id,timestamp,acc_x,acc_y,acc_z,gyro_x,gyro_y,gyro_z
0,1778428947140,0.3946266866666666,-0.008699695,0.8995646666666667,0.110970585,0.0787738433333333,-0.0025706487333333
1,1778428947150,0.3904801,-0.0034961390999999,0.8947676333333333,0.1195224472222222,0.0905835588888888,-0.0043353184222222
2,1778428947160,0.38279672,-0.003780708725,0.915304935,0.08506047775,0.1388914,7.635587499999996e-05
3,1778428947170,0.3742189888888889,-0.0216577688888888,0.9708764466666666,0.0226692204444444,0.1763057922222222,0.0023161292222222
4,1778428947180,0.3826747666666666,-0.0327424251111111,1.0197478333333332,-0.0539581726666666,0.0859003933333333,0.0053703655999999
5,1778428947190,0.4143297222222222,-0.0298018734444444,1.0585407444444443,-0.1201332933333333,-0.1399094766666666,-0.0021634173333333
6,1778428947200,0.39098698125,-0.035684245,1.049664925,-0.15805673125,-0.3387911575,-0.03130592125
7,1778428947210,0.36205365,-0.0501418127777777,1.0212519666666666,-0.1932992211111111,-0.5151054322222222,-0.0557143588888888
8,1778428947220,0.3787721,-0.05052124,0.96716005,-0.20150324,-0.6012264375,-0.05291464375
9,1778428947230,0.3960630844444444,-0.0407103691111111,0.8687634733333334,-0.13778,-0.4683417011111112,-0.0504882244444444
10,1778428947240,0.3786637044444444,-0.0451821755555555,0.7913063477777778,-0.0211760383333333,-0.2005869753333333,-0.07750125
11,1778428947250,0.37486944,-0.049545575,0.76605076,0.039094225,-0.112624966,-0.08116633
12,1778428947260,0.4077372099999999,-0.02862209425,0.75770425,0.07956285625,0.1066691975,-0.0665059965
13,1778428947270,0.42511624,-0.009756667,0.787546,0.070858285,0.25327253,-0.048180576
14,1778428947280,0.43124464,-0.0043905,0.8583123,0.043370154,0.38277218,-0.022524992
15,1778428947290,0.43268108,-0.0012195833333333,0.9546220555555556,0.0260628162222222,0.3345830911111112,-0.0113261263333333
16,1778428947300,0.4266636175,0.000975666675,0.974538525,0.0300842279999999,0.2661003325,-0.00908635325
17,1778428947310,0.4121886844444444,0.0036316482111111,0.9793288111111113,0.039908689,0.1726407133333333,-0.0044031904
18,1778428947320,0.4019442,0.0026830835,0.9749654,0.047646087,0.11766446,-0.0023670332
19,1778428947330,0.3939762566666667,0.0010569722999999,0.9616313,0.0504967067777777,0.0719187831111111,-0.0029100085111111
20,1778428947340,0.38791899,-0.0023781875,0.9492932,0.05299099825,0.02680092275,-0.00419957495
21,1778428947350,0.38974836,-0.00512225,0.9483785,0.052532863,0.016263809,-0.0060321167
22,1778428947360,0.38764457625,-0.003567281225,0.9474638,0.032374904875,-0.0164928762624999,-0.0108425389249999
23,1778428947370,0.386394505,-0.00103664580375,0.94596604375,0.0132859274675,-0.0528382894999999,-0.01687465575
24,1778428947380,0.3873091733333333,0.0003252222266666,0.9272085833333332,-0.0036650835066666,-0.0949103966666666,-0.0278190026666666
25,1778428947390,0.38828486,0.00048783334,0.91663885,-0.009773556,-0.10101887,-0.034741938
26,1778428947400,0.38828486,0.00048783334,0.91663885,-0.009773556,-0.10101887,-0.034741938
27,1778428947410,0.38828486,0.00048783334,0.91663885,-0.009773556,-0.10101887,-0.034741938
28,1778428947420,0.3975807866666667,-0.0014363981755555,0.9087251111111112,-0.0256555856666666,0.0132095716666666,-0.0439046456666666
29,1778428947430,0.40670055,-0.001097625005,0.9284078825,-0.033596599,0.0240521097499999,-0.036803546375
30,1778428947440,0.4108065044444444,-0.0036316481111111,0.9435272933333332,-0.0467637524444444,0.0106304386666666,-0.0293800565555555
31,1778428947450,0.410969105,-0.01164702075,0.9487977825,-0.0453554085,-0.031993125,-0.02603736425
32,1778428947460,0.40822503875,-0.0197877405,0.93386548125,-0.0319167675,-0.070934637,-0.02817532925
33,1778428947470,0.405819751111111,-0.0221964181111111,0.9228994166666666,-0.0240266584444444,-0.0881910708888888,-0.0339953472222222
34,1778428947480,0.40609077,-0.03104602,0.9107848125,-0.0206160945,-0.09368869875,-0.04008685025
35,1778428947490,0.41340828,-0.040032823,0.8998086,-0.02015796,-0.080860905,-0.046958882
36,1778428947500,0.4343038,-0.0452905847777777,0.8927621133333332,-0.0236872986666666,-0.0171970477777777,-0.0551035125555555
37,1778428947510,0.45886824375,-0.038984743875,0.9011196375,-0.0302369395,0.0298551595,-0.05795413275
38,1778428947520,0.47207021625,-0.020001166875,0.91200445,-0.03642176875,0.04428642625,-0.053143711875
39,1778428947530,0.47222266,-0.0102445,0.9156632,-0.039094225,0.037032615,-0.051234815
40,1778428947540,0.4413367024999999,0.003841687125,0.9387171125,-0.043370153125,0.017256434625,-0.044820918
41,1778428947550,0.4286293244444444,-0.0129817875555555,0.9677562888888888,-0.0346146784444444,-0.0132604761111111,-0.0439725194444444
42,1778428947560,0.42048183,-0.018537667,0.9837464,-0.018325418,-0.039323293,-0.059175827
43,1778428947570,0.40810307125,-0.027086184375,0.9952791,-0.023517619625,-0.05795413375,-0.068567604375
44,1778428947580,0.3772438225,-0.04567339625,1.0319847625,-0.0488677805,-0.118886147,-0.09536852875
45,1778428947590,0.35971612,-0.04759424,1.0843011,-0.061695572,-0.16699037,-0.10132429
46,1778428947600,0.35971612,-0.04759424,1.0843011,-0.061695572,-0.16699037,-0.10132429
47,1778428947610,0.3677120112499999,-0.0253863895,1.19088885,0.00633754125,-0.092237936425,-0.11247225375
48,1778428947620,0.3988850655555555,0.0312789251111111,1.4395046666666669,0.1887518044444444,0.1102664144444444,-0.1467305944444444
49,1778428947630,0.45831943,0.08052299,1.6746404,0.3206948,0.13415733,-0.18745375
50,1778428947640,0.4793114925,0.12329988,1.812224575,0.43423605,-0.14263283,-0.204633835
51,1778428947650,0.4826602577777777,0.1504762611111111,1.8889990222222224,0.5763004444444444,-0.8276556333333334,-0.2270230833333333
52,1778428947660,0.4978644,0.13397123,1.8525472,0.6114581,-1.1260206,-0.22654797
53,1778428947670,0.534678901111111,0.1069777867777777,1.7547467111111112,0.6291048,-1.5399883333333333,-0.2397151322222222
54,1778428947680,0.55009305,0.088114895,1.6795188,0.6297835,-1.8481184,-0.25831205
55,1778428947690,0.55009305,0.088114895,1.6795188,0.62367505,-1.9220309,-0.2644205
56,1778428947700,0.5239673275,0.044152729375,1.4944240375,0.5254813675,-2.1798848,-0.28809083125
57,1778428947710,0.52859795,0.04247199,1.4359679,0.43981004,-2.2408931,-0.3071798
58,1778428947720,0.54792155,0.0628525855555555,1.397131011111111,0.43981004,-2.2408931,-0.3071798
59,1778428947730,0.550337,0.06540016,1.3922764,0.43981004,-2.2408931,-0.3071798
60,1778428947740,0.5582778311111111,0.10342067,1.3327607222222224,0.3297896544444444,-2.234038111111111,-0.2782663688888889
61,1778428947750,0.5733261125,0.1519295975,1.247999675,0.148588594,-2.245627375,-0.22105035
62,1778428947760,0.57643604,0.14351447,1.23245,0.073912516,-2.298313,-0.1880646
63,1778428947770,0.5713137975,0.113848113,1.2390623875,-0.014813046625,-2.472557,-0.14102936
64,1778428947780,0.5686815466666667,0.0734494102222222,1.220924822222222,-0.09712471,-2.8407452,-0.08788565
65,1778428947790,0.54176944,0.04027674,1.150433,-0.131943,-3.2145836,-0.057343286
66,1778428947800,0.512728105,0.02599237,1.1039364,-0.151795545,-3.36088155,-0.044820918
67,1778428947810,0.4488066475,0.010488417,0.9260448625,-0.23571068375,-3.663022125,-0.01603474
68,1778428947820,0.43124464,0.014878917,0.8429455,-0.32924667,-3.697764,-0.004810422
69,1778428947830,0.42694944,0.02448313575,0.77523576875,-0.50242188375,-3.720212475,0.0304660062499999
70,1778428947840,0.43929013,0.0341445215,0.70476291875,-0.652986175,-3.820544225,0.06620057325
71,1778428947850,0.43661085,0.04369157,0.6547638,-0.7569161,-3.9286642,0.09720107
72,1778428947860,0.4349034149999999,0.0462526969999999,0.6287867,-0.7734089749999999,-3.96042825,0.097811918
73,1778428947870,0.4305967475,0.036819983875,0.565429325,-0.76042847875,-3.9811206125,0.07223268975
74,1778428947880,0.43295208,0.023659917,0.5259148,-0.68850124,-3.9543197,0.03489465
75,1778428947890,0.43295208,0.023659917,0.5259148,-0.68850124,-3.9543197,0.03489465
76,1778428947900,0.4523739575,0.0022829075437499,0.4485017675,-0.4660955599999999,-3.88697385,-0.044820918125
77,1778428947910,0.4492945,-0.030276157,0.35556954,-0.2443389,-3.9714234,-0.11720632
78,1778428947920,0.43653462,-0.04045967725,0.2736287725,-0.093917765,-3.957984775,-0.1503447825
79,1778428947930,0.4195062,-0.05174082,0.1381178,0.16187452,-3.8797963,-0.198449
80,1778428947940,0.4323728,-0.0442607113333333,0.0702886486666666,0.3144506088888888,-3.7625136333333336,-0.2228828933333333
81,1778428947950,0.4388061,-0.040520657,0.036374073,0.33352262,-3.7478533,-0.22593713
82,1778428947960,0.4388061,-0.040520657,0.036374073,0.33352262,-3.7478533,-0.22593713
83,1778428947970,0.4388061,-0.040520657,0.036374073,0.33352262,-3.7478533,-0.22593713
84,1778428947980,0.4892206225,-0.01617091315,-0.112807653875,0.5776324475,-3.3122428625,-0.247927625
85,1778428947990,0.5369012400000001,-0.0004878332999999,-0.2395769933333333,0.7628803500000001,-2.945810888888889,-0.2533573733333333
86,1778428948000,0.5508858249999999,-0.0001829374899999,-0.32102102375,0.78799295,-2.75767,-0.21372019
87,1778428948010,0.5600936249999999,0.00027440625375,-0.3673347074999999,0.78837473125,-2.7210191875,-0.19997612125
88,1778428948020,0.5710698933333334,0.0044718057566666,-0.4229413433333333,0.76213376,-2.6012931666666668,-0.16973918
89,1778428948030,0.5800948,0.0102445,-0.48271108,0.72690827,-2.477291,-0.14347275
90,1778428948040,0.5800948,0.0102445,-0.48271108,0.72690827,-2.477291,-0.14347275
91,1778428948050,0.58692828,0.012687477875,-0.50092479125,0.69659497125,-2.3964301,-0.12720894175
92,1778428948060,0.6497101700000001,0.033477563625,-0.6426670437499999,0.4131618175,-1.6827887375,0.02412846625
93,1778428948070,0.69398362,0.0449924646666666,-0.6730067333333333,0.1975072833333333,-1.2319007333333334,0.1352772166666666
94,1778428948080,0.71126865,0.0527774715,-0.6658849,0.067116844625,-0.97094170125,0.19615832625
95,1778428948090,0.7203570444444445,0.0521744524444444,-0.6493977,-0.0509718105555555,-0.7356891500000001,0.2506594755555555
96,1778428948100,0.720987165,0.04576486475,-0.6401898349999999,-0.1136939475,-0.5854970925,0.27908084875
97,1778428948110,0.724584945,0.0395373675,-0.630494115,-0.1550025,-0.3801760675,0.3012240674999999
98,1778428948120,0.7420656555555555,0.0255570464444444,-0.6122884466666666,-0.1895662766666666,-0.1316291011111111,0.3198209588888889
99,1778428948130,0.7611420074999999,0.014391083875,-0.58899779125,-0.2079171375,0.151566475,0.31878591875
100,1778428948140,0.7739442244444444,0.0060708145555555,-0.5702297422222222,-0.2115567666666666,0.2648107733333333,0.3116763288888889
101,1778428948150,0.7836433,-0.00512225,-0.54936135,-0.2131857,0.44996536,0.29755896
102,1778428948160,0.8007175,-0.01536675,-0.5244513,-0.22173755625,0.6252785575,0.2788517575
103,1778428948170,0.8007175,-0.01536675,-0.5244513,-0.22295925,0.6503233,0.2761793
104,1778428948180,0.8102302428571428,-0.0170393211428571,-0.5107571357142857,-0.2462587071428571,0.8173463714285715,0.2630897214285714
105,1778428948190,0.830254225,-0.00957372875,-0.4533267775,-0.3359659875,1.332849575,0.2373905125
106,1778428948200,0.8429997466666667,0.0036045464555555,-0.3436277866666666,-0.4039736566666667,1.6280945555555555,0.2332163911111111
107,1778428948210,0.8498971750000001,0.008659041625,-0.2505176725,-0.44996537375,1.8215465125,0.2320456025
108,1778428948220,0.8552023375000001,0.0109152705,-0.16276864,-0.51066834,2.09261,0.23158747
109,1778428948230,0.8660092666666667,0.0103258061111111,-0.0637977625888888,-0.50883576,2.171069911111111,0.2450939833333333
110,1778428948240,0.8658431875,0.0128361141249999,0.0193723194375,-0.49173203,2.1378126,0.25174543
111,1778428948250,0.8542875999999999,0.0104884165,0.0600339919999999,-0.42843298875,1.9205801375,0.25556322375
112,1778428948260,0.8484471299999999,0.0084286762222222,0.0704682055555555,-0.3637934766666666,1.7547435555555555,0.2476731144444444
113,1778428948270,0.85148257,0.00951275,0.06418057,-0.2858765,1.6112623,0.23342001
114,1778428948280,0.84989711875,0.011647021125,0.031758711,-0.205550094,1.5524683,0.2033357825
115,1778428948290,0.8484946074999999,0.013598355,-0.011647020625,-0.0655133665,1.5556752875000002,0.146068847
116,1778428948300,0.8527021822222222,0.0097837688222222,0.0002473044444444,0.0126241766666666,1.8014395,0.1124722506666666
117,1778428948310,0.8580074025,-0.003719729125,0.043539126,0.05978667475,1.9537949625,0.0897181875
118,1778428948320,0.85709274,-0.01683025,0.066863656,0.073912516,2.0156434,0.0782648
119,1778428948330,0.8396865044444444,-0.0446638533333333,0.1074351328888889,0.1018757484444444,1.9985395111111113,0.0573602537777777
120,1778428948340,0.817059875,-0.07247374,0.1193362275,0.14049487,1.88553275,0.0275644812749999
121,1778428948350,0.8005548666666666,-0.08434435,0.0902999833333333,0.1662183277777777,1.7280020444444444,-0.0126156934777777
122,1778428948360,0.77240787,-0.07686424,0.03879799535,0.20768807,1.5917152,-0.075363283
123,1778428948370,0.75382445375,-0.07076632625,-0.0002172377625,0.2338017925,1.6501274875,-0.1149919987499999
124,1778428948380,0.73312205,-0.06222924,-0.052960407,0.24067383,1.7932947999999995,-0.13980767
125,1778428948390,0.7305043071428571,-0.0564057297142857,-0.0327022565714285,0.24634598,1.9166859714285711,-0.1487085871428571
126,1778428948400,0.7147707444444444,-0.0209497326666666,0.1011542742222222,0.2916456177777778,2.702914377777778,-0.2067293811111111
127,1778428948410,0.7145539,-0.01683025,0.1996153,0.3310792,2.8634992,-0.2228829
128,1778428948420,0.7127245249999999,-0.01814130225,0.21846929625,0.35490224375,2.8560163375000003,-0.23120569375
129,1778428948430,0.695772315,-0.030131332,0.3488008325,0.54457033,2.7804241,-0.2969481275
130,1778428948440,0.68333256,-0.038569324,0.34386152,0.61329067,2.7107875,-0.31939676
131,1778428948450,0.68333256,-0.038569324,0.34386152,0.61329067,2.7107875,-0.31939676
132,1778428948460,0.6381029444444445,-0.0423839106666666,0.2915854377777778,0.6779047155555555,2.936665111111111,-0.3977209477777778
133,1778428948470,0.58980960625,-0.0164338862475,0.3393719425,0.6566608,3.2660475,-0.44889638
134,1778428948480,0.5644842,0.00048783334,0.40267593,0.6566608,3.2660475,-0.44889638
135,1778428948490,0.5335846777777777,0.0248557865555555,0.5303663222222222,0.5628618222222223,3.844664222222222,-0.5205012566666666
136,1778428948500,0.52274394,0.038325407,0.6069561,0.53815645,3.9240065,-0.5380801
137,1778428948510,0.52274394,0.038325407,0.6069561,0.53815645,3.9240065,-0.5380801
138,1778428948520,0.4783510911111111,0.08175274,0.8029635111111111,0.5463010555555555,3.7557944666666665,-0.6157934111111111
139,1778428948530,0.46734434,0.09323715,0.8073032,0.5283829,3.632556,-0.6431458
140,1778428948540,0.46734434,0.09323715,0.8073032,0.5283829,3.632556,-0.6431458
141,1778428948550,0.4673443400000001,0.09323715,0.8073032,0.5283829,3.632556,-0.6431458
142,1778428948560,0.3806842285714286,0.19237185,1.04120619,0.1218203942857143,3.523999671428571,-0.6525703014285715
143,1778428948570,0.3585778333333334,0.23224932,1.1979357333333334,-0.1261060244444444,3.3081282,-0.6238701777777778
144,1778428948580,0.3650823,0.24623388,1.2744036,-0.22723518,3.1377697,-0.5967214
145,1778428948590,0.40243202,0.2701682,1.3520302,-0.39399648,2.6222146,-0.53258246
146,1778428948600,0.40243202,0.2701682,1.3520302,-0.39399648,2.6222146,-0.53258246
147,1778428948610,0.40243202,0.2701682,1.3520302,-0.39399648,2.6222146,-0.53258246
148,1778428948620,0.40243202,0.2701682,1.3520302,-0.39399648,2.6222146,-0.53258246
149,1778428948630,0.40243202,0.2701682,1.3520302,-0.39399648,2.6222146,-0.53258246
150,1778428948640,0.40243202,0.2701682,1.3520302,-0.39399648,2.6222146,-0.53258246
151,1778428948650,0.40243202,0.2701682,1.3520302,-0.39399648,2.6222146,-0.53258246
152,1778428948660,0.4070393266666666,0.2717401111111111,1.3479581333333333,-0.40811384,2.5338453555555556,-0.5209084866666667
153,1778428948670,0.4231649,0.2772418,1.3337059,-0.4575246,2.224553,-0.48004958
154,1778428948680,0.435166395,0.1064658184999999,1.360681525,-0.6597723175,1.713044775,-0.1165954681249999
155,1778428948690,0.45435579,0.05052124075,1.34494885,-0.53331740125,1.4721418625,0.0969720018749999
156,1778428948700,0.46441734,0.064424485,1.3251688,-0.4996730699999999,1.4713783,0.10575293
157,1778428948710,0.47758886,0.07613249,1.324437,-0.4947863,1.4640481,0.1130831
158,1778428948720,0.48961318,0.10816561,1.349270775,-0.57085586375,1.5533081875,0.1811162175
159,1778428948730,0.5210365,0.17985806,1.4166985,-0.78562593,1.8122311,0.36536303
160,1778428948740,0.5210365,0.17985806,1.4166985,-0.78562593,1.8122311,0.36536303
161,1778428948750,0.5210365,0.17985806,1.4166985,-0.78562593,1.8122311,0.36536303
162,1778428948760,0.5210365,0.17985806,1.4166985,-0.78562593,1.8122311,0.36536303
163,1778428948770,0.51151994125,0.1623189265,1.4586750375000002,-0.83449371375,1.63721381625,0.3914767449999999
164,1778428948780,0.45985152875,-0.0659146655,1.2241148875,-0.3411677415,-0.503490855,0.38177954625
165,1778428948790,0.49005908,-0.05905832,1.129944,-0.117893524,-0.5066214,0.28534204
166,1778428948800,0.4488676577777778,-0.0457784177777777,1.0699472333333333,0.0018325424444444,-0.43820655,0.19887321
167,1778428948810,0.374797025,-0.0434476575,1.0731914,0.1586675725,-0.19035528425,0.11384666
168,1778428948820,0.3492277,-0.04466724,1.0896672,0.26877278,0.053525493,0.06482617
169,1778428948830,0.3492277,-0.04466724,1.0896672,0.26877278,0.053525493,0.06482617
170,1778428948840,0.3523376425,-0.0395449897499999,1.166180775,0.28915981,0.013896775625,0.047035242
171,1778428948850,0.35752088,-0.031007906,1.2937034,0.3090887,-0.121787675,0.015347538
172,1778428948860,0.38273193375,-0.0238924,1.4587284,0.23800135625,-0.476308148125,-0.0083227935449999
173,1778428948870,0.39023617,-0.012683666,1.517741,0.20341213,-0.68437797,-0.02741177
174,1778428948880,0.39023617,-0.012683666,1.517741,0.20341213,-0.68437797,-0.02741177
175,1778428948890,0.39023617,-0.012683666,1.517741,0.20341213,-0.68437797,-0.02741177
176,1778428948900,0.39023617,-0.012683666,1.517741,0.2079934925,-0.83823513875,-0.042301173125
177,1778428948910,0.39822444125,0.021727640625,1.523743625,0.26793287875,-1.14199805,-0.041613970125
178,1778428948920,0.4318315749999999,0.088839025,1.4894695,0.40575528,-1.6900617,-0.000839915
179,1778428948930,0.45197758,0.07637641,1.4559691,0.38239038,-1.7674866,0.022066858
180,1778428948940,0.4613548577777778,0.0633946228888888,1.4256150444444442,0.3107176199999999,-1.8518513444444444,0.0338765715555555
181,1778428948950,0.47393007,0.0545458665,1.41962555,0.2379250075,-1.95700195,0.047111594
182,1778428948960,0.4834529833333333,0.05198474,1.4019720333333332,0.1826433266666666,-2.1130224666666666,0.0491477523333333
183,1778428948970,0.4899066375,0.050429771125,1.36867745,0.117893524,-2.2607456499999996,0.0413085465
184,1778428948980,0.49249825,0.050277323,1.3476397,0.0678803995,-2.40765445,0.039094226125
185,1778428948990,0.4769688655555556,0.055860307,1.3027250777777777,0.0218547568888888,-2.583782088888889,0.0469079791111111
186,1778428949000,0.46258795625,0.046679553125,1.2561098625,0.014736690125,-2.720637425,0.072385399
187,1778428949010,0.4607586,0.041496325,1.2329378,0.025044737,-2.7943208,0.091092594
188,1778428949020,0.4699664424999999,0.029064196875,1.1632728625,0.046958883375,-2.8954160375,0.087274803625
189,1778428949030,0.47002742,0.03003224,1.0930821,0.04703524,-2.9513085,0.07276718
190,1778428949040,0.4840526524999999,0.036099666,1.05268333375,0.030084228,-3.1047076,0.059481253125
191,1778428949050,0.4810646625,0.02929667825,0.994143405,0.013514995375,-3.374243825,0.03726168475
192,1778428949060,0.4490506,0.012195834,0.95423245,0.043981,-3.516953,0.019623468
193,1778428949070,0.4431966,0.009268833,0.8851431,0.175618595,-3.52657385,0.02405211
194,1778428949080,0.44991784,0.0499521044444444,0.8395848666666667,0.2922564977777778,-3.426208266666667,0.0441931022222222
195,1778428949090,0.44728221,0.0782362745,0.83861215,0.3678827575,-3.4876324125,0.062611845
196,1778428949100,0.4248689688888889,0.0771081588888888,0.7909539688888889,0.4424570411111111,-3.676451955555556,0.0699844322222222
197,1778428949110,0.4024929862499999,0.0582008045,0.7260713225,0.4463766274999999,-3.709675325,0.0926197175
198,1778428949120,0.4115178925,0.015732626,0.63890158,0.4172086699999999,-3.70280335,0.128506995
199,1778428949130,0.42304298,-0.005366167,0.57167207,0.3188622725,-3.7757996,0.139654955
200,1778428949140,0.4260106166666667,-0.0187002786666666,0.47394024,0.198186,-3.888687633333334,0.1386708077777777
201,1778428949150,0.42536017,-0.0219525,0.4007246,0.029931515,-3.9214103625,0.13774605125
202,1778428949160,0.4298116677777777,-0.0243916677777777,0.3089035333333333,-0.1913988133333333,-3.8443673,0.1285578966666666
203,1778428949170,0.4448769066666667,-0.0161527035555555,0.2569899244444444,-0.3031159733333333,-3.8172184111111114,0.11342246
204,1778428949180,0.4507579799999999,-0.016342416,0.2415994599999999,-0.32374904,-3.8150464999999993,0.09659022
205,1778428949190,0.4507579799999999,-0.016342416,0.2415994599999999,-0.32374904,-3.8150464999999993,0.09659022
206,1778428949200,0.4568017022222223,-0.0149602217777777,0.1962614497777778,-0.2811933488888888,-3.782807355555556,0.0503694454444444
207,1778428949210,0.480149955,-0.01122016675,0.042769266,-0.141563855,-3.703719625,-0.0684912474999999
208,1778428949220,0.48490632,-0.018537667,-0.024391668,-0.06230642,-3.6464527,-0.10560022
209,1778428949230,0.48490632,-0.018537667,-0.024391668,-0.06230642,-3.6464527,-0.10560022
210,1778428949240,0.5473832774999999,-0.019238927125,-0.23053555375,0.1797418025,-3.2781882125,-0.20959696875
211,1778428949250,0.5781435,-0.015610667,-0.29480377,0.24494976,-3.0478225,-0.24487339
212,1778428949260,0.6139450466666667,-0.0028185926,-0.3397115477777778,0.3127538,-2.7930992,-0.28152424
213,1778428949270,0.61842024,-0.0012195833,-0.34532502,0.3197021875,-2.76164055,-0.284578475
214,1778428949280,0.6879669475,0.01725710425,-0.4223798199999999,0.42698223,-2.1941633,-0.3059581249999999
215,1778428949290,0.712122375,0.020732916,-0.4417330825,0.473101195,-1.941883425,-0.2851893199999999
216,1778428949300,0.7350463088888889,0.0140658606666666,-0.4636042788888889,0.49600798,-1.8145218000000003,-0.26686388
217,1778428949310,0.7475828285714285,0.0056100835714285,-0.4821535714285714,0.5143333857142857,-1.6251481857142858,-0.2385903942857143
218,1778428949320,0.7519578444444445,0.0033606296288888,-0.4859429777777778,0.51799846,-1.4836376555555555,-0.2166386688888888
219,1778428949330,0.753855,-0.00024391667,-0.49127865,0.51799846,-1.4247248,-0.20761171
220,1778428949340,0.7739442222222223,0.0024120647888888,-0.5152095955555556,0.5131795822222223,-1.2131002444444443,-0.1920011733333333
221,1778428949350,0.7973026,0.01683025,-0.51957303,0.49417543,-1.0368369,-0.17157172
222,1778428949360,0.8099863,0.027699787,-0.505181915,0.471879515,-0.93421455,-0.152330035
223,1778428949370,0.82267,0.038569324,-0.4907907999999999,0.4495836,-0.8315922,-0.13308835
224,1778428949380,0.8317254,0.043447655,-0.48640034,0.4306473,-0.7479061,-0.12697987
225,1778428949390,0.83852458125,0.047868645875,-0.5061270825,0.40399909,-0.6724664687499999,-0.1352263125
226,1778428949400,0.84267115625,0.050673688875,-0.5358887250000001,0.368951725,-0.55930699875,-0.1475196162499999
227,1778428949410,0.8322132,0.048325993,-0.556191,0.3347443,-0.42782214,-0.154468
228,1778428949420,0.8322132,0.048325993,-0.556191,0.3347443,-0.42782214,-0.154468
229,1778428949430,0.7947148125,0.05082613875,-0.62042874,0.23968119625,-0.22433365325,-0.13537902475
230,1778428949440,0.7638555,0.0583265759999999,-0.68284476,0.09590302,0.054747187,-0.096437514
231,1778428949450,0.7655977742857143,0.0587098741428571,-0.6897440914285714,-0.0138749611428571,0.2385249525714285,-0.0553362188571428
232,1778428949460,0.77467934,0.0568630753333333,-0.6790944666666667,-0.2710125766666666,0.6920645,0.0458899
233,1778428949470,0.7812041,0.054423906,-0.6418362,-0.38666633,0.9197069,0.09720107
234,1778428949480,0.7812041,0.054423906,-0.6418362,-0.38666633,0.9197069,0.09720107
235,1778428949490,0.7780501355555555,0.0518763322222222,-0.5790954222222222,-0.4940736277777778,1.1196915,0.1551636877777777
236,1778428949500,0.77117306,0.04905774,-0.4917665,-0.6713975,1.432895,0.24991289
237,1778428949510,0.7642214275,0.04972851075,-0.4830083699999999,-0.69109732,1.4472499125,0.25877017375
238,1778428949520,0.7140863666666666,0.0540173786666666,-0.4202379566666667,-0.8393804733333333,1.5605620666666666,0.3232145533333333
239,1778428949530,0.7111391,0.053204324,-0.41731095,-0.8601493,1.5862176,0.32810134
240,1778428949540,0.7111391,0.053204324,-0.41731095,-0.8601493,1.5862176,0.32810134
241,1778428949550,0.7111391,0.053204324,-0.41731095,-0.8601493,1.5862176,0.32810134
242,1778428949560,0.7111391,0.053204324,-0.41731095,-0.8601493,1.5862176,0.32810134
243,1778428949570,0.67696025375,0.0357947712499999,-0.307921935,-0.7025506775,2.21027445,0.23196924375
244,1778428949580,0.67894207625,0.03457518775,-0.2766510525,-0.656813495,2.3695528625,0.2112004375
245,1778428949590,0.69016224,0.031739656,-0.19034646,-0.55167145,2.7584336,0.16134003
246,1778428949600,0.6907720275,0.0274520584999999,-0.14992871,-0.51000973125,2.88251185,0.13805148
247,1778428949610,0.6891052555555555,0.0218440925888888,-0.1091120533333333,-0.4569137288888889,2.9879762888888894,0.1118614047777777
248,1778428949620,0.6704316187499999,-0.0044514792375,0.03193021675,-0.20570281575,3.2516928000000003,0.007101099375
249,1778428949630,0.65354425,-0.018537667,0.091529734,-0.020768806,3.360729,-0.042072106
250,1778428949640,0.6533613125000001,-0.01859864625,0.1060504005,0.0406213455,3.392493,-0.0545944745
251,1778428949650,0.6339394175,-0.0080492502499999,0.19767541,0.503338135,3.8236651125,-0.13560808375
252,1778428949660,0.6174446,0.00073175,0.24623388,0.71285874,4.1744537,-0.14835952
253,1778428949670,0.6161640325,-5.421010862427522e-20,0.28107585,0.7586722800000001,4.261957625,-0.1440835899999999
254,1778428949680,0.59785883125,-0.0071345625,0.45597555,0.92543355,4.559287675,-0.1208713975
255,1778428949690,0.573753,-0.01536675,0.5732652,1.0133955,4.6637425,-0.08971819
256,1778428949700,0.573753,-0.01536675,0.5732652,1.0133955,4.6637425,-0.08971819
257,1778428949710,0.573753,-0.01536675,0.5732652,1.0133955,4.6637425,-0.08971819
258,1778428949720,0.54367501,-0.034659032125,0.764716875,1.1963443125,4.3299909375,-0.03413109025
259,1778428949730,0.53591543,-0.014391083,0.8763621,1.3707412,4.0919895,-0.0066429637
260,1778428949740,0.53591543,-0.014391083,0.8763621,1.3707412,4.0919895,-0.0066429637
261,1778428949750,0.52676853625,0.040330095125,0.9537598875,1.32133895,3.9698964125,-0.0177145705125
262,1778428949760,0.5212804,0.08860273,1.0650316,1.1783243,3.790231,-0.02985516
263,1778428949770,0.5600937,0.16107647,1.141408,0.9315421,3.308196,-0.021914145
264,1778428949780,0.5715035222222222,0.1675267055555555,1.1278232555555556,0.6893750766666666,2.780016811111111,0.0078137545966666
265,1778428949790,0.5832657,0.17644322,1.0930821,0.5473192,2.440793,0.03489465
266,1778428949800,0.5774930533333333,0.1849803033333333,0.91296995,0.24209914,2.0901666666666667,0.0678804013333333
267,1778428949810,0.55277616,0.17327231,0.85343397,0.10934166,2.1304824,0.08131904
268,1778428949820,0.54506230625,0.17129048,0.86633483375,-0.07834116,2.264181675,0.104225815
269,1778428949830,0.5392578437500001,0.1797361025,0.916589275,-0.32467487,2.3449661875,0.0935359875
270,1778428949840,0.5269989,0.1885577511111111,0.962935588888889,-0.6265341444444446,2.4353630666666666,0.04724734
271,1778428949850,0.5298784325,0.196939845,1.011522475,-0.8864157,2.367185925,0.00817008125
272,1778428949860,0.53591543,0.20062146,1.018657,-1.0421817,2.2636473,-0.024357535
273,1778428949870,0.534390945,0.2008348875,1.0198765875,-1.0615761125,2.2482997625000003,-0.03023694
274,1778428949880,0.512357108888889,0.16792646,1.002660102222222,-1.2703671555555556,1.9122742666666663,-0.1151022888888889
275,1778428949890,0.44870378,0.12622686875,0.9974781875,-1.315230475,1.742441775,-0.1317139375
276,1778428949900,0.39041911875,0.098347965,1.05702435,-1.3319524375,1.6945666499999998,-0.13354648375
277,1778428949910,0.38096735,0.08491349,1.0957651,-1.3231715,1.6491349,-0.13431004
278,1778428949920,0.37339069,0.076498365,1.105659,-1.2996539,1.59782375,-0.145916135
279,1778428949930,0.36581403,0.06808324,1.1155529,-1.2761363,1.5465126,-0.15752223
280,1778428949940,0.3626779585714286,0.0669681914285714,1.1264942999999998,-1.2365185,1.5979982857142858,-0.1768948157142857
281,1778428949950,0.3913066966666667,0.0620124255555555,1.171074411111111,-1.0442179666666669,1.6550397,-0.2607554133333333
282,1778428949960,0.41962813,0.038919955,1.17191285,-0.979951735,1.574229675,-0.281218795
283,1778428949970,0.38995033625,0.003750219,1.1662989625,-0.82556008375,1.24200515,-0.2929012575
284,1778428949980,0.3244193266666667,-0.0278979686666666,1.1952628333333335,-0.7479570133333334,1.2368129666666663,-0.26991812
285,1778428949990,0.280039205,-0.052167678,1.25603365,-0.65320568,1.3195828,-0.2326564475
286,1778428950000,0.2544525111111111,-0.0744521766666666,1.3522300333333332,-0.4898994977777778,1.4356776777777778,-0.1710966277777778
287,1778428950010,0.27504653,-0.0792424325,1.411637275,-0.3658975,1.4732109,-0.12881242
288,1778428950020,0.3195274622222222,-0.0776501944444444,1.4384613,-0.2436601826666666,1.4074430111111111,-0.10627894
289,1778428950030,0.35483778,-0.06759541,1.4369437,-0.058641337,1.2624686,-0.08238802
290,1778428950040,0.3799611844444444,-0.0401073536666666,1.3875505222222222,0.0522613783333333,1.1028338666666668,-0.0697638435555555
291,1778428950050,0.4157940799999999,0.012447373125,1.32340045,0.08162446775,1.1236535,-0.048715069125
292,1778428950060,0.434346985,0.044911158,1.45035905,-0.07574505875,1.4011308875,-0.005115844625
293,1778428950070,0.4199127166666667,0.0447383816666666,1.7991090666666665,-0.29422477,0.8776093133333333,0.075821418
294,1778428950080,0.41048127,0.025367333,1.8479128,-0.28648737,0.12132954,0.053830914
295,1778428950090,0.3810588311111111,0.0146621018888888,1.6902308,-0.1924168833333333,-0.5603760200000001,0.0171800789333333
296,1778428950100,0.35752088,0.006097917,1.5640852,-0.14538164,-0.9012288,-0.0011453386
297,1778428950110,0.35752088,0.006097917,1.5640852,-0.14538164,-0.9012288,-0.0011453386
298,1778428950120,0.343800545,-0.06419581575,1.15666045,0.09544488705,-0.80807455,0.00305423625
299,1778428950130,0.34477621875,-0.06241599125,1.0353652125,0.175924015,-0.5324297225,-0.0122933006499999
300,1778428950140,0.3360562,-0.03881324,1.1128393,0.21990502,-0.32153472,-0.04940227
301,1778428950150,0.35434994,-0.034178823,1.2243702,0.25289077,-0.26716933,-0.08116633
302,1778428950160,0.3611186225,-0.0293805254999999,1.336065025,0.27259059,-0.31825143375,-0.12522368875
303,1778428950170,0.36361876,-0.024635585,1.469659,0.29809347,-0.40216658,-0.17462596
304,1778428950180,0.3631580488888888,-0.0204076945555555,1.5321083666666668,0.32619244,-0.5188384,-0.18378867
305,1778428950190,0.364472475,-0.0128666031375,1.595184525,0.4386646875,-1.1470947625,-0.212269425
306,1778428950200,0.3565452,-0.0046344167,1.5867999,0.4611897,-1.3471472,-0.22105035
307,1778428950210,0.3555966222222222,0.0099734809555555,1.5533866444444446,0.4558956866666667,-1.5141121333333334,-0.2296022166666667
308,1778428950220,0.3638627125,0.03572998075,1.49557885,0.4185067175,-1.7756470375,-0.23387815
309,1778428950230,0.370021595,0.072534718,1.452371325,0.35039725,-1.9709749875,-0.21769068375
310,1778428950240,0.368500915,0.08137670125,1.4447793625,0.32191650625,-2.0688632,-0.20440476875
311,1778428950250,0.37194243,0.08564524,1.4313335,0.31336465,-2.1517096,-0.18623206
312,1778428950260,0.37194243,0.08564524,1.4313335,0.31336465,-2.1517096,-0.18623206
313,1778428950270,0.39535844,0.095920235,1.3683724,0.32802498,-2.293426,-0.13797513
314,1778428950280,0.420215055,0.093237149375,1.31940245,0.33291176,-2.4030730625,-0.1149156405
315,1778428950290,0.43327053,0.0855876488888888,1.2494631333333333,0.3179799444444444,-2.5562261,-0.0958945375555555
316,1778428950300,0.42072576,0.08271824,1.213394,0.2870982,-2.5866327,-0.09399412
317,1778428950310,0.4218233925,0.08070593,1.19711255,0.2473931375,-2.6083941375,-0.08941276625
318,1778428950320,0.4480749,0.08369391,1.1636045,0.17042638,-2.761946,-0.062230065
319,1778428950330,0.45118485625,0.08034005,1.092236025,0.147672325,-2.9530646875,-0.039323290875
320,1778428950340,0.4349034,0.07515682,0.9964301,0.12766708,-3.1620507,-0.014583978
321,1778428950350,0.4222654775,0.0700345725,0.952022,0.1220930975,-3.1221166,0.002825169125
322,1778428950360,0.4248859,0.0552640671111111,0.8773276377777778,0.1612636733333333,-3.0235921666666665,0.053423686
323,1778428950370,0.4431966,0.048082076,0.85319006,0.20768806,-3.0007873,0.06482617
324,1778428950380,0.46136836625,0.044301365125,0.8207223825,0.2399866199999999,-2.951842975,0.0607793043749999
325,1778428950390,0.49190877,0.0459681289999999,0.7954325533333333,0.3186586433333333,-2.9792039666666668,0.0825407366666666
326,1778428950400,0.51469463,0.042715907,0.77364266,0.36101073,-3.0594285,0.09475768
327,1778428950410,0.513871415,0.0419536675,0.75289832,0.36391225375,-3.1143284125,0.0924670024999999
328,1778428950420,0.50176704,0.040764574,0.6660145,0.37689275,-3.3556895,0.08620582
329,1778428950430,0.4983522266666667,0.0375123533333333,0.6376998333333334,0.3870735366666666,-3.4065933,0.0829479666666666
330,1778428950440,0.4992930714285714,0.033229293,0.5748027142857143,0.4066497414285714,-3.421922628571429,0.0745124571428571
331,1778428950450,0.5091388188888889,0.0266953254444444,0.4435421333333333,0.44632574,-3.311301233333334,0.0491477533333333
332,1778428950460,0.53493977,0.027562585,0.3682532,0.45324868,-3.1406713,0.03245126
333,1778428950470,0.53493977,0.027562585,0.3682532,0.45324868,-3.1406713,0.03245126
334,1778428950480,0.55415965625,0.035745226375,0.34742500875,0.45874630375,-2.9989546875,0.021685077375
335,1778428950490,0.5861928,0.05491174,0.28114447,0.45447037,-2.621451,0.002519745
336,1778428950500,0.5861928,0.05491174,0.28114447,0.45447037,-2.621451,0.002519745
337,1778428950510,0.6143515777777778,0.0337418064444444,0.2870255455555555,0.4007836811111111,-2.3842386777777778,0.0012301784866666
338,1778428950520,0.6174446,0.01975725,0.3050483,0.36467582,-2.3636734,0.0037414394
339,1778428950530,0.6174446,0.01975725,0.3050483,0.36467582,-2.3636734,0.0037414393999999
340,1778428950540,0.591375975,0.0003048958699999,0.273941285,0.390789525,-2.559297175,0.05489989475
341,1778428950550,0.5871684,0.0026830835,0.2435507899999999,0.3994941,-2.6275594,0.0782648
342,1778428950560,0.5871684,0.0026830835,0.24355079,0.3994941,-2.6275594,0.0782648
343,1778428950570,0.5921687125,0.0153972398125,0.15405243625,0.3960580875,-2.77607165,0.1229330062499999
344,1778428950580,0.5998521,0.027318668,0.04198416,0.37506023,-2.8755634,0.18088715
345,1778428950590,0.5998521,0.027318668,0.04198416,0.37506023,-2.8755634,0.18088715
346,1778428950600,0.5998521,0.027318668,0.04198416,0.37506023,-2.8755634,0.18088715
347,1778428950610,0.6781527222222222,0.020732917,-0.11892632,0.3483186711111111,-2.784207911111111,0.1781043877777778
348,1778428950620,0.6823569,0.020732917,-0.12787332,0.34696123,-2.7796605,0.17538951
349,1778428950630,0.6823569,0.020732917,-0.12787332,0.34696123,-2.7796605,0.17538951
350,1778428950640,0.6823569,0.020732917,-0.12787332,0.34696123,-2.7796605,0.17538951
351,1778428950650,0.6904332222222221,0.0229823706666666,-0.2349290088888889,0.3887703366666666,-2.609980722222222,0.1248928077777777
352,1778428950660,0.69433925,0.0230501257499999,-0.3605431162499999,0.43446511,-2.3543581125,0.0632226925
353,1778428950670,0.6806494624999999,0.005366167,-0.4402009925,0.38849884,-2.0496979,0.07337803
354,1778428950680,0.6854465033333333,-0.0144012466666666,-0.4865426233333333,0.3745851122222222,-2.006938622222222,0.08220138
355,1778428950690,0.70211416,-0.036374073,-0.53518367,0.36345413,-1.9727312,0.08926006
356,1778428950700,0.70211416,-0.036374073,-0.53518367,0.36345413,-1.9727312,0.08926006
357,1778428950710,0.70211416,-0.036374073,-0.53518367,0.36345413,-1.9727312,0.08926006
358,1778428950720,0.70211416,-0.036374073,-0.53518367,0.36345413,-1.9727312,0.08926006
359,1778428950730,0.70211416,-0.036374073,-0.53518367,0.36345413,-1.9727312,0.08926006
360,1778428950740,0.70211416,-0.036374073,-0.53518367,0.36345413,-1.9727312,0.08926006
361,1778428950750,0.70211416,-0.036374073,-0.53518367,0.36345413,-1.9727312,0.08926006
362,1778428950760,0.70211416,-0.036374073,-0.53518367,0.36345413,-1.9727312,0.08926006
363,1778428950770,0.70211416,-0.036374073,-0.53518367,0.36345413,-1.9727312,0.08926006
364,1778428950780,0.80005051375,-0.0077176758375,-0.6328989700000001,-0.0411558275,-0.5399412324999999,0.11422843875
365,1778428950790,0.89005196,0.029056573,-0.6486659,-0.35245886,1.0290486,0.11002886
366,1778428950800,0.89005196,0.029056573,-0.6486659,-0.35245886,1.0290486,0.11002886
367,1778428950810,0.88674383,0.0237971199999999,-0.5298175,-0.33382803,1.435911,0.08712209
368,1778428950820,0.8834357,0.018537667,-0.4109691,-0.3151972,1.8427734,0.06421532
369,1778428950830,0.86782503,0.0041465834,-0.26016763,-0.31092125,2.0767279,0.020234315
370,1778428950840,0.8534339875,-0.00481735415,-0.2029844075,-0.30076592,2.0705432125,-0.007941014375
371,1778428950850,0.8405064,-0.011708,-0.15839338,-0.27854636,2.0608459,-0.04940227
372,1778428950860,0.8348658125,-0.0068296666875,-0.13977568625,-0.269383635,2.0833709625,-0.065818795
373,1778428950870,0.8201088249999999,0.005244208225,-0.09426617125,-0.25556322125,2.09177015,-0.0936887025
374,1778428950880,0.8132656022222222,0.0199266363333333,-0.0705224112222222,-0.2538409766666666,2.058063222222222,-0.112455286
375,1778428950890,0.80852276,0.029056573,-0.058570493,-0.26419144375,2.075888025,-0.10537114975
376,1778428950900,0.79803437,0.03881324,-0.028294332,-0.28343314,2.0828364,-0.08238802
377,1778428950910,0.7919669487500001,0.043203740375,-0.0121958331999999,-0.2922904162499999,2.057486225,-0.071163705625
378,1778428950920,0.7812041,0.048325993,-0.0031709166,-0.29931515,2.032747,-0.04756973
379,1778428950930,0.7812041,0.048325993,-0.0031709166,-0.29931515,2.032747,-0.04756973
380,1778428950940,0.7787886488888889,0.051659521,0.0006809341333333,-0.3065774466666666,2.0837866666666667,-0.0399002033333333
381,1778428950950,0.755196505,0.07966928625,0.04369157375,-0.367882765,2.521424675,0.02725905875
382,1778428950960,0.7400872444444444,0.0830434655555555,0.0834804822222222,-0.3832048411111111,2.624114922222222,0.05016583
383,1778428950970,0.7168270888888889,0.0767558366666666,0.1183131466666666,-0.4427963833333333,2.7519857,0.1036489011111111
384,1778428950980,0.6965040622222223,0.0703055977777777,0.1526478077777777,-0.5104816455555556,2.7866002666666665,0.1458652411111111
385,1778428950990,0.68455213,0.06100966,0.15985689,-0.5761053,2.7847,0.17722206
386,1778428951000,0.6671654425,0.04270828525,0.1809633,-0.6684959687500001,2.7921065625,0.208451625
387,1778428951010,0.6480255937499999,0.016128989875,0.2137319812499999,-0.78684765,2.788976,0.24075018
388,1778428951020,0.6348168833333333,-0.0181379144444444,0.2468911022222222,-0.8732485577777778,2.8098125333333335,0.2484196911111111
389,1778428951030,0.616225,-0.04320374,0.27480263,-0.8997780062499999,2.9511557,0.23196924375
390,1778428951040,0.6004415466666667,-0.0461578433333333,0.3477980644444444,-0.8898772033333334,3.1184261333333336,0.2011808477777777
391,1778428951050,0.588570925,-0.036922886875,0.4384211675,-0.85709506,3.232451,0.15889664
392,1778428951060,0.5804471377777777,-0.0283180477777777,0.4922916122222222,-0.8057838888888889,3.301544688888889,0.1056850555555555
393,1778428951070,0.57228947,-0.0248795,0.5505809,-0.74714255,3.3381276,0.0678804
394,1778428951080,0.5698503,-0.029788323,0.60915136,-0.5993175,3.3069744,0.028786177
395,1778428951090,0.5454510499999999,-0.03978890675,0.657218265,-0.47251897875,3.3281250250000003,0.00939177665
396,1778428951100,0.51810948375,-0.042197584125,0.72839997,-0.22456273,3.3629432625,-0.0152711815
397,1778428951110,0.51599554,-0.0366417047777777,0.78646188,0.0236194288888888,3.292110422222222,-0.0329093961111111
398,1778428951120,0.5085624212500001,-0.017226615375,0.79218035,0.2052446825,3.2432172,-0.06902573875
399,1778428951130,0.47929627,0.010732334,0.7973026,0.3591782,3.33996,-0.11231954
400,1778428951140,0.4653116855555555,0.0198114547777777,0.8277413977777779,0.4630222366666666,3.4338948,-0.1290160333333333
401,1778428951150,0.44700779625,0.013872760125,0.87688801125,0.5958814825,3.5413106375,-0.152253685
402,1778428951160,0.4329520799999999,-0.0164338853333333,0.9832687466666664,0.7258901411111112,3.606696755555556,-0.1571828833333333
403,1778428951170,0.43590956,-0.030550562,1.042694225,0.80356956,3.542990475,-0.1545443624999999
404,1778428951180,0.44002566,-0.033447072,1.0725931,0.83563906,3.4700706,-0.1556897
405,1778428951190,0.4408116166666666,-0.0275625825555555,1.0735687555555555,0.8260012466666667,3.3835339,-0.1592869111111111
406,1778428951200,0.439046205,0.021285540125,1.0734734,0.7237012975,2.663064975,-0.19066070125
407,1778428951210,0.38267475,0.03369099,1.0181692,0.5473192,2.4658377,-0.20883341
408,1778428951220,0.38267475,0.03369099,1.0181692,0.5473192,2.4658377,-0.20883341
409,1778428951230,0.283156745,0.02897272675,1.134868025,0.1080436087499999,2.6167169625,-0.1364479995
410,1778428951240,0.29943818,0.037593655,1.2185162,-0.07207998,2.5782335,-0.100102596
411,1778428951250,0.29943818,0.037593655,1.2185162,-0.07207998,2.5782335,-0.100102596
412,1778428951260,0.32115693,0.05402754,1.2527662,-0.1567841333333333,2.4002733333333333,-0.0791301726666666
413,1778428951270,0.3675824122222222,0.0974650331111111,1.3107980666666663,-0.4158512466666667,1.7977064777777778,-0.0265973071111111
414,1778428951280,0.35776478,0.11079915,1.2807455,-0.539989,1.5263546,-0.0280226169999999
415,1778428951290,0.312266695,0.1058598342499999,1.31102915,-0.61542860125,1.6153091875,-0.039246935625
416,1778428951300,0.29138896,0.092505395,1.3630064,-0.64635277,1.6424155,-0.024357535
417,1778428951310,0.29138896,0.092505395,1.3630064,-0.64635277,1.6424155,-0.024357535
418,1778428951320,0.3159635685714285,0.0690676162857142,1.4017717142857145,-0.6290745157142857,1.4826244342857142,-0.0082137142571428
419,1778428951330,0.36874104,0.025123417,1.4464563,-0.55594736,0.97712654,0.015347538
420,1778428951340,0.36874104,0.025123417,1.4464563,-0.55594736,0.97712654,0.015347538
421,1778428951350,0.348617895,0.02164760425,1.34835615,-0.417533195,0.62573666,-0.0153475372499999
422,1778428951360,0.3144831055555555,0.026885037,1.2690408777777775,-0.2926637211111111,0.5129505,-0.0442440063333333
423,1778428951370,0.30187738,0.021708583,1.241231,-0.21013145,0.5562528,-0.06100837
424,1778428951380,0.3015013333333333,0.015041528,1.2480063888888888,-0.1046584972,0.6359343866666668,-0.0732253133333333
425,1778428951390,0.3339654628571429,0.0022997857142857,1.2900578142857142,0.0322876404285714,0.6795566714285715,-0.085704051
426,1778428951400,0.36288702,-0.002927,1.3066311,0.09773556,0.659486,-0.106211066
427,1778428951410,0.36288702,-0.002927,1.3066311,0.09773556,0.659486,-0.106211066
428,1778428951420,0.4215760777777777,0.0084557777777777,1.4025039,-0.0366508382222222,0.7338736,-0.095080074
429,1778428951430,0.42757448875,-0.0030184683124999,1.602624,-0.33947837,0.1656159699999999,-0.037643462
430,1778428951440,0.40926167,-0.014147166,1.59241,-0.41781953,-0.6874322,-0.057343286
431,1778428951450,0.3803135166666667,-0.0017074164666666,1.3856940666666668,-0.2919849833333333,-1.0859761555555556,-0.1051251151111111
432,1778428951460,0.34175777,0.0226880615,1.1742681874999998,-0.03924693875,-1.02370367875,-0.15904936125
433,1778428951470,0.33044612,0.034666654,1.0694221,0.19058435,-0.77783763,-0.19539477
434,1778428951480,0.3461380977777777,0.0361301546666666,1.0498309,0.4592892699999999,-0.4552424166666666,-0.2236973566666666
435,1778428951490,0.35514268,0.0490577425,1.115598625,0.662540235,-0.2122694225,-0.236168825
436,1778428951500,0.3538621,0.05271649,1.178026,0.73851436,-0.14622156,-0.23387815
437,1778428951510,0.3538621,0.05271649,1.178026,0.73851436,-0.14622156,-0.2338781499999999
438,1778428951520,0.354959725,0.02318351725,1.3062919125,0.8550334712500001,-0.222424755,-0.24342263625
439,1778428951530,0.34495915,0.00573204175,1.423291925,0.910391485,-0.43278529875,-0.25357798125
440,1778428951540,0.3314218,0.018537667,1.4730737,0.8649597,-0.63428855,-0.25464696
441,1778428951550,0.3243133614285715,0.0532086785714285,1.5255463571428571,0.76827132,-0.8562878571428572,-0.2173852614285714
442,1778428951560,0.3320315525,0.0979325375,1.57342265,0.687355855,-1.108916875,-0.1668376575
443,1778428951570,0.34703246,0.13104422,1.5985079,0.6456655,-1.3013338,-0.13614258
444,1778428951580,0.350691204,0.1768334939999999,1.6117282199999998,0.622697686,-1.5021956,-0.098147881
445,1778428951590,0.3506641066666667,0.2152293633333333,1.6100804555555557,0.63120882,-1.7300213,-0.0347419364999999
446,1778428951600,0.35313037,0.22623271,1.5985079,0.6487198,-1.8652221,0.0080173705
447,1778428951610,0.3625448744444444,0.21653024,1.5542505333333334,0.6257112022222222,-2.0368022999999997,0.0615683113333333
448,1778428951620,0.3739208644444444,0.2001031288888889,1.4878950222222225,0.5475227533333333,-2.338832366666667,0.1588966411111111
449,1778428951630,0.37804034,0.19010256,1.4308456,0.49967307,-2.4467487,0.19554748
450,1778428951640,0.4031366622222222,0.1788823911111111,1.3306839555555556,0.3728204433333333,-2.599664166666667,0.24421165
451,1778428951650,0.42080708,0.1716461966666666,1.2273175333333333,0.1660825804444444,-2.7599098,0.2985770555555555
452,1778428951660,0.4222807466666666,0.1688005,1.1723245,0.0573517713333333,-2.8047052444444445,0.3243683766666667
453,1778428951670,0.4339277549999999,0.1612594125,1.122009,-0.1076618325,-2.883046475,0.3688753899999999
454,1778428951680,0.44856274875,0.142039539375,1.0745939625,-0.22288288125,-2.9891047625,0.3997995325
455,1778428951690,0.456937221111111,0.1203390066666666,1.0251309333333334,-0.3286358,-3.0948577,0.43072367
456,1778428951700,0.4558802666666666,0.0971296566666666,0.9840716133333332,-0.41781952,-3.1475941333333335,0.43723938
457,1778428951710,0.4585362488888889,0.0841546433333333,0.9573424533333332,-0.4776825666666667,-3.2139729333333333,0.4299092066666666
458,1778428951720,0.4557989533333333,0.0799538516666666,0.9016684466666668,-0.4947863,-3.2946048,0.41850674
459,1778428951730,0.4336495175,0.080065648125,0.8480334537499999,-0.5366388437499999,-3.334080675,0.3885752225
460,1778428951740,0.4231649,0.07857166,0.81876725,-0.5536397055555555,-3.3750329555555556,0.3777835777777777
461,1778428951750,0.4313284925,0.06951625,0.779424275,-0.5468323900000001,-3.4759500625,0.3563530112499999
462,1778428951760,0.4319696355555555,0.058082654,0.7473234244444444,-0.5332696777777779,-3.5527217444444443,0.3322415111111111
463,1778428951770,0.4220673324999999,0.0397546055,0.7226298062500001,-0.4324798675,-3.6748571,0.2702235675
464,1778428951780,0.4251162711111111,0.0051222497333333,0.6582023555555556,-0.3103782677777777,-3.800046788888889,0.1854345655555555
465,1778428951790,0.42682368,-0.0017074167,0.6240303,-0.22295925,-3.856584,0.11796988
466,1778428951800,0.4236256533333333,-0.0115724913333333,0.5307016944444444,-0.0558585893333333,-3.9090492222222224,0.0270215074444444
467,1778428951810,0.4309512199999999,-0.0084761044375,0.44702685,0.07078192825,-3.920723075,-0.033520244
468,1778428951820,0.4387756175,0.0035367919375,0.3688706025,0.19394400875,-3.8916315625,-0.09208523
469,1778428951830,0.4379930466666666,0.0200113306666666,0.2914600866666667,0.2565558622222222,-3.815386,-0.1504635555555555
470,1778428951840,0.43734258,0.03222749,0.24769738,0.288319925,-3.6994437375,-0.1860029899999999
471,1778428951850,0.4684826066666667,0.028477269,0.157082332,0.3192695022222222,-3.578512922222222,-0.2074080966666666
472,1778428951860,0.4932109375,0.0210073224999999,0.08813395725,0.32955209625,-3.4799204875,-0.2154763725
473,1778428951870,0.514328785,0.0184157075,0.0524649525,0.344670575,-3.2490966,-0.211887635
474,1778428951880,0.54873627,0.019269418,0.0169522075,0.331690075,-3.0719509,-0.191118835
475,1778428951890,0.5665709922222223,0.0172638805555555,0.0009180748888888,0.3113963666666667,-3.0208772111111113,-0.1761191444444444
476,1778428951900,0.5927251225,0.009085896,-0.049614175,0.2479276425,-2.9571879125,-0.1442363125
477,1778428951910,0.6067731999999999,0.010671354,-0.0979325425,0.1727170725,-2.8717455999999997,-0.1022405575
478,1778428951920,0.6164689,0.014878917,-0.12592198,0.12827793,-2.8126462,-0.07566871
479,1778428951930,0.638177475,0.020641449125,-0.19059801625,0.01099524975,-2.684673725,0.004199575
480,1778428951940,0.6486659,0.021464668,-0.22550097,-0.047646087,-2.6067908,0.049554985
481,1778428951950,0.6756864555555555,0.0146349995555555,-0.2487001522222222,-0.1060159337777777,-2.4151203666666667,0.125639406
482,1778428951960,0.69308925,0.011220166,-0.25403923,-0.13560809,-2.2720463,0.18333054
483,1778428951970,0.7296801044444444,0.0035232407222222,-0.2580198088888889,-0.1266490088888889,-2.0883170444444445,0.2399357122222222
484,1778428951980,0.7623424974999999,-0.0045124585625,-0.26325849375,-0.0574196415,-1.897597,0.27037628
485,1778428951990,0.77852106,-0.010000584,-0.2745587,-0.023823043,-1.8389556,0.27373594
486,1778428952000,0.79937589,-0.00926883375,-0.2902913225,0.03390202175,-1.7138847,0.265031365
487,1778428952010,0.8259247,-0.003170916725,-0.3153156625,0.1077381849999999,-1.5625759,0.2491493275
488,1778428952020,0.84047585,0.0137203127124999,-0.3502338675,0.2003578987499999,-1.3503542125,0.20661908375
489,1778428952030,0.8383111,0.02561125,-0.3650823,0.29198498,-1.1419026,0.15156648
490,1778428952040,0.8363292777777778,0.0277827859999999,-0.37311122,0.3321651577777778,-1.0724017111111113,0.1271325866666666
491,1778428952050,0.8258103299999999,0.039910866375,-0.40487880125,0.390484115,-0.9254336,0.070400145625
492,1778428952060,0.8104741,0.038325407,-0.4763692299999999,0.41904122,-0.8144885,0.03000787
493,1778428952070,0.8032786000000001,0.040886531,-0.536784385,0.42514968,-0.590307505,-0.044210069
494,1778428952080,0.8010969333333333,0.0442065084444444,-0.5591450899999999,0.4132720933333333,-0.4769614055555555,-0.0722751057777777
495,1778428952090,0.8060836,0.046374656,-0.58472925,0.3770454574999999,-0.29694813,-0.0981173385
496,1778428952100,0.82425543,0.050155366,-0.6293965,0.2932066749999999,-0.0023670349999999,-0.122703943
497,1778428952110,0.82611192,0.0524454708888888,-0.6405929333333334,0.2564200911111111,0.1029362466666666,-0.1222288415555555
498,1778428952120,0.82023077,0.0546678235,-0.66491685,0.1708081675,0.3472666625,-0.10178242225
499,1778428952130,0.81803554,0.055155657,-0.6718685,0.12766708,0.4866162,-0.090329036
500,1778428952140,0.823432165,0.058387551125,-0.6724782699999999,0.045584478,0.776921325,-0.0640626045
501,1778428952150,0.8313797933333333,0.0569443806666666,-0.65730462,-0.0458135453333333,1.1331216333333334,-0.0335202436666666
502,1778428952160,0.834652425,0.0514359275,-0.62359584,-0.118809795,1.4240377,-0.0106134711
503,1778428952170,0.8300823111111111,0.0423906855555555,-0.5743492377777778,-0.1655396088888888,1.6618948333333334,0.0010944346444444
504,1778428952180,0.82443833,0.040154784,-0.5422115175,-0.1838650275,1.815132625,0.0041995749
505,1778428952190,0.810077775,0.0358252637499999,-0.4690479275,-0.2112004375,2.106048575,0.00687203165
506,1778428952200,0.79470088,0.0383254066666666,-0.3762414533333333,-0.2030049,2.3222885,-0.0015525702
507,1778428952210,0.7796148350000001,0.03670945875,-0.3135510462499999,-0.18333053,2.4073491,-0.0124460129999999
508,1778428952220,0.75175115625,0.0312175224999999,-0.258303945,-0.143625455,2.502183075,-0.0226013478749999
509,1778428952230,0.72915840625,0.02317208325,-0.20388004375,-0.1307213125,2.5976279875,-0.018096350875
510,1778428952240,0.7219019,0.016342416,-0.16522306,-0.12644538,2.652146,-0.012751437
511,1778428952250,0.71598310625,0.0157326245,-0.15802370675,-0.13110309,2.6632939625,-0.009239065125
512,1778428952260,0.6743686225,0.01207387575,-0.104030463,-0.1771457025,2.786074275,0.0222195695
513,1778428952270,0.6756492049999999,0.01384227175,-0.07847256825,-0.2287623025,2.9665797,0.047875153
514,1778428952280,0.6811373,0.013659334,-0.034178823,-0.26266432,3.1053948,0.06299362
515,1778428952290,0.6904671125,-0.01280562475,0.06748107275,-0.2851129575,3.186790125,0.05551074525
516,1778428952300,0.6899183,-0.027074749,0.11762882,-0.27732465,3.2055738,0.038559735
517,1778428952310,0.6899183,-0.027074749,0.11762882,-0.27732465,3.2055738,0.038559735
518,1778428952320,0.6690939333333333,-0.0199198613333333,0.2138742666666666,-0.2486148266666666,3.308196,-0.0469588833333333
519,1778428952330,0.6547638,-0.008537084,0.23403804,-0.23792501,3.4080695,-0.0848314125
520,1778428952340,0.6518672925,-0.006524771375,0.2372737475,-0.23823044,3.4810658,-0.099491745
521,1778428952350,0.5977177687499999,0.0258589781249999,0.37585272625,-0.23357272375,3.692800825,-0.10521843875
522,1778428952360,0.57802155,0.0306420315,0.48065305,-0.1768402849999999,3.7226941,-0.11537378
523,1778428952370,0.5647281,0.030276157,0.525427,-0.14415996,3.745639,-0.12392564
524,1778428952380,0.5437626687499999,0.02295865625,0.64809801875,-0.025502872,3.72897435,-0.150650205
525,1778428952390,0.5415522125,0.024669884,0.6921440400000001,0.0928487875,3.61759005,-0.18913359
526,1778428952400,0.5112798044444444,0.0342872292222222,0.7070771666666666,0.16615045,3.5873532000000004,-0.234489
527,1778428952410,0.4875352266666666,0.0414963206666666,0.7522864655555556,0.1941136766666666,3.6474199111111103,-0.2598052088888888
528,1778428952420,0.48393065,0.04491115625,0.8406664175,0.1933331575,3.5430667500000004,-0.274346765
529,1778428952430,0.48100364,0.043447655,0.88002086,0.16676131,3.4010448,-0.27663746
530,1778428952440,0.4666397,0.0457242123333333,0.9260736555555557,0.0816499162666666,3.1647147111111114,-0.2653707088888889
531,1778428952450,0.45953903,0.05149691,0.9452076,-0.0018325418,2.9294708,-0.24976017
532,1778428952460,0.4595390299999999,0.05149691,0.9452076,-0.0018325417999999,2.9294708,-0.24976017
533,1778428952470,0.43130566,0.0642618783333333,0.9120044433333332,-0.2166471661555555,2.642983411111111,-0.2066615077777777
534,1778428952480,0.40633467,0.072229825,0.88392353,-0.417972245,2.4166644749999997,-0.1422510575
535,1778428952490,0.40633467,0.072229825,0.88392353,-0.467909,2.432241,-0.10193513
536,1778428952500,0.3603191211111111,0.0538276684444444,0.93439394,-0.5502631088888889,2.5124657,-0.0358278872222222
537,1778428952510,0.3455689524999999,0.036976244,1.008946075,-0.6589514999999999,2.5918248875,0.035810920625
538,1778428952520,0.34995946,0.02268425,1.0772275,-0.7257629,2.6154952,0.0678804
539,1778428952530,0.38459561375,-0.0105303396875,1.198934275,-0.8703809874999999,2.4378914500000004,0.14347275375
540,1778428952540,0.4116466333333333,-0.0530417105555555,1.270812688888889,-0.9516406588888888,2.1625181111111114,0.2150267266666666
541,1778428952550,0.4231649,-0.07662032,1.2946793,-0.98109704,1.9667754,0.25541052
542,1778428952560,0.4394700688888889,-0.0699803698888889,1.286721488888889,-0.9931103622222222,1.6755370555555555,0.2788941977777777
543,1778428952570,0.45383745,-0.0483259898749999,1.27788335,-0.9949938125,1.3336323,0.3029802375
544,1778428952580,0.4344156,-0.03125182,1.3159,-0.9597174,1.3699777,0.3109976
545,1778428952590,0.4305027566666666,-0.0219457237999999,1.3679592222222223,-0.8574344333333334,1.2916535111111112,0.3197530844444444
546,1778428952600,0.41627429,-0.00201231255,1.3828931999999998,-0.719959875,1.13281625,0.33588963
547,1778428952610,0.40877387,-0.017562,1.4023074,-0.6109236,1.0993724,0.36108708
548,1778428952620,0.4123513133333333,-0.0158545833333333,1.4075923,-0.5398362566666667,1.1003904666666666,0.36556663
549,1778428952630,0.4434608444444444,-0.0157461756666666,1.3839357444444444,-0.1765348581111111,1.079893111111111,0.3622409133333333
550,1778428952640,0.4578316,-0.021708583,1.3532497,-0.015271181,1.0682192,0.34337252
551,1778428952650,0.451794655,-0.0237208967499999,1.338774775,0.089183701,1.06272155,0.3241308275
552,1778428952660,0.47450939,-0.04320374,1.2949943,0.2696551266666666,1.01499912,0.28568139
553,1778428952670,0.48835167,-0.04905774,1.2795259,0.31764057,0.99361944,0.25907558
554,1778428952680,0.4911567125,-0.050795647,1.276354975,0.33054472,0.98208968,0.245866015
555,1778428952690,0.4983251488888889,-0.0559145108888888,1.2702299333333331,0.3779787033333333,0.903010391111111,0.1871313533333333
556,1778428952700,0.50396234,-0.05417999,1.2739158,0.38666633,0.8769476,0.15400986
557,1778428952710,0.50396234,-0.05417999,1.2739158,0.38666633,0.8769476,0.15400986
558,1778428952720,0.5377333225,-0.02537495645,1.3508296125,0.4885251075,0.770049325,0.03978142625
559,1778428952730,0.5283234975,-0.0049088229375,1.4040034,0.5522059,0.6533775,-0.031687703
560,1778428952740,0.51079199625,-0.0086590419375,1.3937094,0.5238779124999999,0.37101335375,-0.04375193475
561,1778428952750,0.48199629,-0.0083473709288888,1.3249553444444446,0.42637138,-0.0026724533333333,-0.0414612566666666
562,1778428952760,0.45844139,0.0026830833299999,1.2202389,0.33398073,-0.3317664125,-0.0507766785
563,1778428952770,0.4342517262499999,0.0103359681249999,1.163044275,0.3001550624999999,-0.43477053625,-0.06368082775
564,1778428952780,0.4045459788888889,0.0184021561111111,1.1469098111111111,0.3184550288888889,-0.36660168,-0.087614162
565,1778428952790,0.3888946525,0.020854875,1.172759,0.34696123,-0.33191913,-0.09093989
566,1778428952800,0.38898611875,0.019299906375,1.227400175,0.3680354675,-0.3419980975,-0.1092653045
567,1778428952810,0.393772975,0.01530577125,1.293200525,0.3752129275,-0.3571165599999999,-0.1454580025
568,1778428952820,0.39584626625,0.016952208875,1.362156475,0.3781144475,-0.43561043,-0.1747023125
569,1778428952830,0.4065786011111111,0.0233075934444444,1.4270514,0.3836120766666666,-0.6894684033333333,-0.2037430133333333
570,1778428952840,0.40913973,0.03738785425,1.446151375,0.3848337775,-0.9064209975,-0.2262425575
571,1778428952850,0.397492705,0.05844853375,1.468172575,0.38177954625,-1.0965471999999998,-0.25227992125
572,1778428952860,0.3846260999999999,0.0514969053333333,1.5219485333333334,0.3905350166666667,-1.240452577777778,-0.2659815666666666
573,1778428952870,0.3926448625,0.08965080875,1.5655296125,0.41110020625,-1.3561573,-0.28350947875
574,1778428952880,0.4019442,0.10689648,1.5858243,0.4659237375,-1.6270202875,-0.2981698299999999
575,1778428952890,0.4229209925,0.117445877,1.5662422500000002,0.5108210175,-1.79543285,-0.308554235
576,1778428952900,0.4165182,0.11677511,1.531636625,0.54915169,-1.94967175,-0.310234065
577,1778428952910,0.41706705,0.11421398,1.489904,0.56930965,-2.0894032,-0.29740626
578,1778428952920,0.42420159,0.1147628,1.4414026999999998,0.5444939624999999,-2.180648325,-0.2870982099999999
579,1778428952930,0.42812797,0.1133738217777777,1.370350966666667,0.4292220111111111,-2.3895325888888888,-0.2458914755555555
580,1778428952940,0.4435319625,0.10552445275,1.318083775,0.3480302249999999,-2.516843425,-0.2051683275
581,1778428952950,0.4656369,0.093481064,1.2765989,0.255945,-2.717965,-0.14652699
582,1778428952960,0.4753664844444444,0.08225751,1.2153724222222224,0.1882766977777777,-2.8906309333333335,-0.1203284255555555
583,1778428952970,0.4694786325,0.07655935,1.18009165,0.13820418825,-2.9881119875,-0.1081963205
584,1778428952980,0.4631164477777777,0.07025139,1.1156545,0.0737767757777777,-3.1319156777777777,-0.0918222242222222
585,1778428952990,0.45670347375,0.063479310375,1.0665828,0.03710897125,-3.17350415,-0.070323795
586,1778428953000,0.456733975,0.0569850335,0.99278662,0.02954973625,-3.1902261125,-0.04650074775
587,1778428953010,0.45959999375,0.055887406875,0.9595948725,0.026648212125,-3.1973272875,-0.029473380825
588,1778428953020,0.47197875,0.0593564407777777,0.8934531888888889,0.0223298603622222,-3.2671843999999997,0.0018410259111111
589,1778428953030,0.47170434125,0.0592717481249999,0.8179135750000001,-0.0051922020549999,-3.32743775,0.03107685475
590,1778428953040,0.4710030699999999,0.0507651565,0.7411713,-0.040239565,-3.3579037625000003,0.0599393856249999
591,1778428953050,0.47036279375,0.0428378642499999,0.694000105,-0.076432265625,-3.377374575,0.0839914975
592,1778428953060,0.45734373,0.033447072,0.63207954,-0.124001995,-3.3666847,0.1026987
593,1778428953070,0.4302147966666666,0.0249641937777777,0.57091066,-0.1777565505555555,-3.269492077777778,0.1293044866666666
594,1778428953080,0.42813853125,0.023633238,0.50142789375,-0.30511820875,-3.0353,0.1862320575
595,1778428953090,0.45441675,0.031983573,0.48368677,-0.43951414125,-2.9307688125,0.24517881375
596,1778428953100,0.5112188200000001,0.043935492,0.4850511625,-0.711255295,-3.0185018250000004,0.3510081
597,1778428953110,0.5117947555555555,0.0301609737111111,0.4659621433333333,-0.8317109688888888,-3.2393569555555555,0.4054074444444444
598,1778428953120,0.5074991375,-0.0067991768125,0.41303093125,-0.89664741875,-3.4735829125,0.44530764125
599,1778428953130,0.5057917375,-0.0232940415,0.376691175,-0.885041325,-3.56475195,0.453172315
600,1778428953140,0.5146946833333333,-0.0189983988888888,0.3423709344444444,-0.77992471,-3.5988066666666665,0.4227826699999999
601,1778428953150,0.5224390250000001,-0.004024625,0.30524648,-0.6478798975,-3.65011775,0.3645994624999999
602,1778428953160,0.5293296433333333,0.015691972,0.2268729966666666,-0.5046107466666667,-3.699189166666667,0.2902288066666666
603,1778428953170,0.53790868125,0.01890354175,0.15536348875,-0.3941491925,-3.6876848,0.23189289
604,1778428953180,0.55311156875,0.018537667125,0.09319522775,-0.30458371375,-3.647598075,0.1914242655
605,1778428953190,0.56545985,0.027074749,0.030520074,-0.0728265666666666,-3.4781982333333334,0.0979476593333333
606,1778428953200,0.59741294,0.03808149,-0.06320491,0.12644538,-3.1877065,0.025731942
607,1778428953210,0.6520603977777779,0.0395720915555555,-0.1219447788888889,0.3335904733333333,-2.9418064888888886,-0.0597188037777777
608,1778428953220,0.6691244,0.045155075,-0.202923425,0.4807367975,-2.7616404,-0.1361425795
609,1778428953230,0.6769907,0.04369157,-0.27504653,0.5686988,-2.513331,-0.18012358
610,1778428953240,0.6769907,0.04369157,-0.27504653,0.5686988,-2.513331,-0.18012358
611,1778428953250,0.71260256,0.026099084,-0.31483543,0.7281299,-1.9849482,-0.22227205
612,1778428953260,0.72302995,0.014909406825,-0.328342335,0.7524111,-1.889579575,-0.23685603125
613,1778428953270,0.7345855177777778,0.0043633982,-0.3549495766666666,0.7718394544444445,-1.7148858222222223,-0.2714113288888889
614,1778428953280,0.73653686,0.013903251,-0.38511395,0.76966757,-1.6410412,-0.28824356
615,1778428953290,0.7326342,0.018537667,-0.39804152,0.7611157,-1.5927079,-0.29190862
616,1778428953300,0.728487625,0.0298416785,-0.42977356,0.73049696875,-1.5420076,-0.28977067375
617,1778428953310,0.720499345,0.038630302875,-0.4629576625,0.6476508249999999,-1.4615284375,-0.268696445
618,1778428953320,0.71751136,0.040764574,-0.49713266,0.6071822,-1.4302225,-0.25342527
619,1778428953330,0.7370595428571428,0.0365090977142857,-0.5346653142857143,0.5265503428571429,-1.3150341571428572,-0.2209630928571428
620,1778428953340,0.7601968022222222,0.0236328148333333,-0.5594431844444444,0.3787253111111111,-1.1013152222222222,-0.17170747
621,1778428953350,0.7680021,0.0078053335,-0.57570434,0.3023694,-0.98124975,-0.14652699
622,1778428953360,0.7680021,0.0078053335,-0.57570434,0.3023694,-0.98124975,-0.14652699
623,1778428953370,0.7851982333333334,0.00254757402,-0.5902986777777778,0.1493860942222222,-0.7275445255555556,-0.1040391673333333
624,1778428953380,0.8104741,0.00048783334,-0.610371,-0.10934166,-0.30076593,-0.034741938
625,1778428953390,0.8253394666666667,0.0202044307422222,-0.6028231,-0.2389770222222222,-0.0667435505555555,0.0173158226666666
626,1778428953400,0.8355974875000001,0.0344532294999999,-0.59082715,-0.3850628375,0.21540001375,0.08811471625
627,1778428953410,0.8439211,0.039788906,-0.5549714,-0.49784052,0.41209283,0.15278818
628,1778428953420,0.8439211,0.039788906,-0.5549714,-0.49784052,0.41209283,0.15278818
629,1778428953430,0.8473970125,0.0346933345,-0.4528846425,-0.64763173,0.61153447,0.24716406625
630,1778428953440,0.8448969,0.027074749,-0.37779644,-0.721487,0.70041275,0.29389387
631,1778428953450,0.8448969,0.027074749,-0.37779644,-0.721487,0.70041275,0.29389387
632,1778428953460,0.8276549824999999,0.019452354375,-0.337119525,-0.68475978625,0.67429903125,0.246629575
633,1778428953470,0.8092545066666667,0.0160171953333333,-0.3075687633333333,-0.6195433388888889,0.6548028222222222,0.1713172075555555
634,1778428953480,0.80193704,0.018781584,-0.31065837,-0.5706077,0.683309,0.122856654
635,1778428953490,0.7808924355555555,0.0224132319999999,-0.31847725,-0.4850381755555555,0.7693705822222223,0.050640934
636,1778428953500,0.7636116,0.02561125,-0.32678735,-0.41720867,0.84457266,-0.005421269
637,1778428953510,0.7484888,0.025367333,-0.33678794,-0.3531376033333333,0.9873751844444444,-0.0580898743333333
638,1778428953520,0.7469338175,0.021281728875,-0.32897879875,-0.2756448275,1.1626427625,-0.1123195387499999
639,1778428953530,0.7459140866666666,0.0057455926666666,-0.3133482144444444,-0.1026902093333333,1.5077577333333332,-0.2230865111111111
640,1778428953540,0.7531232,0.010488417,-0.31678677,-0.019547112,1.7077762,-0.2644205
641,1778428953550,0.7531232,0.010488417,-0.31678677,-0.019547112,1.7077762,-0.2644205
642,1778428953560,0.7365864075,0.034228369875,-0.26289643375,0.1132358145,2.32763345,-0.2676274475
643,1778428953570,0.71430993,0.048569907,-0.19668831,0.20524468,2.8109665,-0.24181916
644,1778428953580,0.7008945333333334,0.0453989906666666,-0.1635054766666666,0.2235701,2.8840645333333335,-0.2204395066666666
645,1778428953590,0.6713196625,0.017550567125,-0.0734379709999999,0.270299915,3.05667975,-0.17035003
646,1778428953600,0.6667462,-0.018293751,-0.033934906,0.30053684,3.1359372,-0.14835952
647,1778428953610,0.6733861666666666,-0.0346327807777777,-0.0084896550111111,0.30053684,3.1359372,-0.14835952
648,1778428953620,0.6772075488888888,-0.0401378433333333,0.0084049615111111,0.3819152733333333,3.347095133333333,-0.13593897
649,1778428953630,0.67381984,-0.024635585,0.05979007,0.45141613,3.7792356,-0.12636903
650,1778428953640,0.67381984,-0.024635585,0.05979007,0.45141613,3.7792356,-0.12636903
651,1778428953650,0.6476635687500001,0.04335237525,0.3179225275,0.51028653375,4.0664866625,-0.17057910375
652,1778428953660,0.6280956,0.05304171,0.3741986766666667,0.54691192,4.0030095,-0.1927477666666666
653,1778428953670,0.6113466,0.05564349,0.40755427,0.59374356,3.9240065,-0.21188764
654,1778428953680,0.60073241625,0.06439780875,0.4190526325,0.65582086875,3.9268316,-0.22517356875
655,1778428953690,0.5636168722222222,0.0987930271111111,0.4645934966666666,0.7653916000000001,4.170381333333333,-0.2631988133333333
656,1778428953700,0.5534125999999999,0.115799444,0.4942971324999999,0.7742488625,4.30654925,-0.2843494075
657,1778428953710,0.5359763575000001,0.137538515,0.5487896425000001,0.6716265325,4.488582,-0.3053472725
658,1778428953720,0.50225496,0.14031307,0.65086114,0.53693473,4.569672,-0.30901235
659,1778428953730,0.481339065,0.120555815,0.8019599275,0.3326826862499999,4.221260025,-0.25258534875
660,1778428953740,0.48173542,0.1015303125,0.87613347,0.1743968925,3.74743345,-0.19234053
661,1778428953750,0.4821148288888888,0.0975192437777777,0.8955807388888888,0.0799531177777777,3.490975144444445,-0.1668206844444444
662,1778428953760,0.46228307375,0.1240430625,0.906729725,-0.14583978,3.2196232375,-0.14675605
663,1778428953770,0.4422480311111111,0.1529222077777777,0.9295461,-0.29239221,3.2116822333333332,-0.1429297777777777
664,1778428953780,0.4304824375,0.2143112925,1.0576036,-0.5278770312500001,3.137235075,-0.13117945125
665,1778428953790,0.42562697,0.2373918975,1.11284695,-0.631692425,3.01605835,-0.1242310589999999
666,1778428953800,0.41243258,0.2394042,1.1545795,-0.7104917,2.9514613,-0.115984626
667,1778428953810,0.40987147875,0.212843975,1.2020822875,-0.7500440625,2.8402870375,-0.082311667625
668,1778428953820,0.4216472455555555,0.1518550644444444,1.249632488888889,-0.7183648333333333,2.4095040444444447,0.0169764633333333
669,1778428953830,0.4231649,0.12299499,1.261964,-0.6249731,2.0858908,0.088649206
670,1778428953840,0.43709868,0.08052299,1.2253458,-0.53449136,1.8507144,0.13446276
671,1778428953850,0.4360533014285714,0.06919829,1.177063442857143,-0.4812603885714285,1.7237454714285716,0.1549697671428571
672,1778428953860,0.3838829175,0.080522995,1.1402494875,-0.5016774025,1.8652221,0.14118207
673,1778428953870,0.363984645,0.0702784935,1.1946124,-0.60252445,2.140790475,0.1146102187499999
674,1778428953880,0.36361876,0.055155657,1.2309865,-0.6515788822222223,2.1267494666666664,0.12991534
675,1778428953890,0.38567799125,0.0394382765,1.2682942875,-0.7061394425,1.94417405,0.170655455
676,1778428953900,0.4168231166666666,0.0172367773333333,1.3673968666666667,-0.6553118733333334,1.660741,0.21305843
677,1778428953910,0.41194475,0.012683666,1.393252,-0.5803813,1.5214678,0.24441525
678,1778428953920,0.4082047033333333,-0.0187815836666666,1.3542151999999998,-0.3253101011111111,1.2410210555555556,0.2977625799999999
679,1778428953930,0.4040174725,-0.0116470215,1.2967449000000002,-0.18745375125,1.18008055,0.28847263125
680,1778428953940,0.3982312111111111,0.0188222363333333,1.2337644888888888,-0.0886407211111111,1.2410889,0.2446867466666666
681,1778428953950,0.39237045125,0.0413133855,1.2158941625000002,-0.0992626799999999,1.3275237875,0.210513235
682,1778428953960,0.4078896666666666,0.103227562,1.1950900666666666,-0.1804035633333333,1.5336168888888888,0.1856381822222222
683,1778428953970,0.4572353533333333,0.1901025444444444,1.2349026222222224,-0.4420582933333333,2.128853611111111,0.2345059588888889
684,1778428953980,0.412104845,0.137485159,1.7856262374999998,-1.2489535875,2.73659575,0.45378315625
685,1778428953990,0.36771201,0.0714370944999999,2.1460854749999996,-1.57835295,1.1605048087499998,0.5047889125
686,1778428954000,0.42079436375,0.0290832510875,2.0418186874999997,-1.607826325,-0.21433103375,0.503032735
687,1778428954010,0.5266770475,-0.0062503648125,1.906075375,-1.1322817625,-0.75034949875,0.43805384875
688,1778428954020,0.5058221733333332,-0.0245644413333333,1.7262287666666667,-0.6154540908888889,-0.8766591455555557,0.3295945277777778
689,1778428954030,0.4206266825,-0.063143927,1.3414045,0.03008422575,-1.38960115,0.14515258
690,1778428954040,0.36132062,-0.069089396,1.036093225,0.15683503,-1.34806355,0.0724617595
691,1778428954050,0.313364315,-0.053936072,0.9515876,0.2136438325,-0.9186379325,0.01626380885
692,1778428954060,0.30309695,-0.07662032,0.9964301,0.3155365444444444,-0.4443828877777778,-0.0065750917555555
693,1778428954070,0.3513619675,-0.0782057875,1.134570725,0.4366794325,-0.1909661275,-0.060550232375
694,1778428954080,0.3710988855555556,-0.0774062802222222,1.2910035,0.6161412777777778,-0.10285141,-0.1451695488888889
695,1778428954090,0.3730172,-0.0793034079999999,1.414061175,0.81425939375,-0.23326730375,-0.2060846
696,1778428954100,0.37706468,-0.074181154,1.501368,0.9425373,-0.37223506,-0.24426255
697,1778428954110,0.37706468,-0.074181154,1.501368,0.9425373,-0.37223506,-0.24426255
698,1778428954120,0.37706467875,-0.0578311155,1.5243114375,0.989267125,-0.51143187,-0.27427042125
699,1778428954130,0.38023558,0.008293167,1.6028984,1.0811996666666668,-1.1492327333333334,-0.3810923333333333
700,1778428954140,0.36751001875,0.0605942375,1.6073803875,0.98819817,-1.3877018375,-0.3868953825
701,1778428954150,0.3606104866666667,0.0983594,1.5989957,0.7806627733333333,-1.7870337333333337,-0.3666356166666666
702,1778428954160,0.36483836,0.1232389,1.5843607,0.6413896,-2.0350378,-0.34749573
703,1778428954170,0.36483836,0.1232389,1.5843607,0.6413896,-2.0350378,-0.34749573
704,1778428954180,0.40886151375,0.15860300625,1.4803302625,0.4432460374999999,-2.4464433875,-0.3035147375
705,1778428954190,0.42103067875,0.17116852625,1.3503912625,0.2706053275,-2.706358775,-0.2546469449999999
706,1778428954200,0.42072576,0.16766222,1.2858677,0.18630841,-2.7851582,-0.20700087
707,1778428954210,0.4214575299999999,0.1527833,1.2241263,0.114839286,-2.8279173,-0.16424155
708,1778428954220,0.42905705375,0.1351336425,1.153447575,0.02160872225,-2.7861506875,-0.14370182
709,1778428954230,0.43539125,0.11762882,1.1006434,-0.10689827,-2.7320144,-0.13186665
710,1778428954240,0.44191602625,0.11049425,1.0858865375,-0.18302510875,-2.7383518875,-0.116671826875
711,1778428954250,0.4678321933333333,0.0897410133333333,1.0563217666666669,-0.2721664,-2.8393199000000005,-0.0826595149999999
712,1778428954260,0.4751497,0.0866514,1.0428047,-0.29687178,-2.9219878,-0.066506
713,1778428954270,0.4796214933333333,0.0796354077777777,1.0006511755555556,-0.3014870688888889,-2.9852445,-0.0622979392222222
714,1778428954280,0.48271108,0.07637641,0.96447706,-0.3090887,-3.0478225,-0.057954133
715,1778428954290,0.48271108,0.07637641,0.96447706,-0.3090887,-3.0478225,-0.057954133
716,1778428954300,0.4809339757142857,0.0550162775714285,0.8056001657142857,-0.2121385242857142,-3.256034,-0.0439919111428571
717,1778428954310,0.4519233833333333,0.0352561228888888,0.6924658777777778,-0.1707657466666666,-3.206506966666667,-0.0327057806555555
718,1778428954320,0.4431966,0.0219525,0.6604044,-0.14415996,-3.1027987,-0.0017561859
719,1778428954330,0.4566662022222222,0.0044989074022222,0.6114110422222222,-0.1085271988888888,-3.0999479888888892,0.0272251222444444
720,1778428954340,0.4731069075,-0.0333822829175,0.5376266574999999,-0.08231166875,-3.0638571,0.0616192165
721,1778428954350,0.5082139555555556,-0.045073766,0.4844490044444445,-0.0502252196666666,-2.995493088888889,0.1178341324444444
722,1778428954360,0.5354276,-0.041740242,0.46295384,-0.041537613,-3.025832,0.14729054
723,1778428954370,0.5332933,-0.04195367025,0.44886767875,-0.014965757125,-3.1247128125000003,0.1679066424999999
724,1778428954380,0.5243429044444444,-0.0254994552,0.3731552244444444,0.020768806,-3.2048101,0.1802763
725,1778428954390,0.51884127,-0.0019513334,0.3287387,0.04886778,-3.1272326,0.19554748
726,1778428954400,0.53287025875,0.0258284873249999,0.28242500125,0.106134705,-3.0346892000000003,0.219828655
727,1778428954410,0.5471050825,0.03881324,0.24150799375,0.179283675,-2.922293325,0.24655323
728,1778428954420,0.55350786,0.03881324,0.20501198,0.2443389,-2.7967641,0.2657949
729,1778428954430,0.576775265,0.032620041125,0.1715991925,0.26594763125,-2.727509325,0.2793099175
730,1778428954440,0.6054316750000001,0.0275092257499999,0.108299,0.27281968375,-2.611219225,0.28641101875
731,1778428954450,0.616225,0.028812656,0.09274931,0.26694027,-2.496838,0.29389387
732,1778428954460,0.6338822375000001,0.027810312375,0.0635364794999999,0.2602209299999999,-2.36825475,0.2793862625
733,1778428954470,0.6625996675,0.03789855225,0.01378129225,0.217461625,-2.1811828,0.2415137475
734,1778428954480,0.66991717,0.04247199,0.011220166,0.18814096,-2.0680234,0.21448374
735,1778428954490,0.68985733375,0.0306344094999999,0.004786864875,0.147977744375,-1.9891477625,0.17439689625
736,1778428954500,0.7057729,0.019513333,-0.0078053335,0.108730815,-1.9354695,0.13568445
737,1778428954510,0.7138221,0.0139032509999999,-0.020245085,0.087554775,-1.880628966666667,0.1025629531111111
738,1778428954520,0.733263035,0.02052711175,-0.043619162125,0.054441762,-1.82269185,0.0659715045
739,1778428954530,0.7587332755555555,0.0324443022222222,-0.0680290388888888,-0.0033935957777777,-1.7446816555555555,0.0180624144444444
740,1778428954540,0.76556295,0.03661799,-0.06954674,-0.020768806,-1.7821469,-0.01885991
741,1778428954550,0.7629611833333333,0.042146768,-0.0944465666666666,-0.0272845099999999,-1.8216483666666667,-0.0449227253333333
742,1778428954560,0.7623615625,0.048447948625,-0.1259639025,-0.0327566835,-1.846973075,-0.064978876375
743,1778428954570,0.7672704,0.07320549,-0.25943586,-0.0574196429999999,-1.821852,-0.1440836
744,1778428954580,0.7735741175,0.0685100954999999,-0.284498295,-0.069331166625,-1.696170125,-0.1698155375
745,1778428954590,0.78169197,0.06369274,-0.29919428,-0.06230642,-1.633711,-0.190508
746,1778428954600,0.78169197,0.06369274,-0.29919428,-0.06230642,-1.633711,-0.190508
747,1778428954610,0.78169197,0.06369274,-0.29919428,-0.06230642,-1.633711,-0.190508
748,1778428954620,0.78169197,0.06369274,-0.29919428,-0.06230642,-1.633711,-0.190508
749,1778428954630,0.78169197,0.06369274,-0.29919428,-0.06230642,-1.633711,-0.190508
750,1778428954640,0.8244586777777778,-0.0195675367444444,-0.5155856622222222,-0.052532863,-1.3531879444444446,-0.3343285755555555
751,1778428954650,0.8263287,-0.021708583,-0.51981694,-0.052532863,-1.3361521,-0.34016556
752,1778428954660,0.8302923375,-0.0109457600875,-0.604208275,-0.023670332375,-0.9100097025,-0.43538136875
753,1778428954670,0.832701,0.0065857503,-0.6384214,-0.009009997125,-0.5932090250000001,-0.44530765625
754,1778428954680,0.8315627722222223,0.0328067923333333,-0.6417007333333333,-0.0130992797777777,-0.3623936151111111,-0.4285347955555555
755,1778428954690,0.8319388125,0.0497894905,-0.63506754375,-0.041461257625,0.0868166649999999,-0.36207971375
756,1778428954700,0.831915111111111,0.0563481375555555,-0.6196398,-0.0720799763333333,0.3949891133333333,-0.3022930299999999
757,1778428954710,0.832270375,0.053814115625,-0.597744475,-0.109036236875,0.7257629112499999,-0.23868856125
758,1778428954720,0.8216400333333334,0.0504399388888889,-0.56347804,-0.1331647066666666,0.9117828344444444,-0.20557556
759,1778428954730,0.79803435,0.04552094825,-0.517370135,-0.1598892725,1.1438877875,-0.1614927462499999
760,1778428954740,0.7841311,0.0528248965555555,-0.4628115644444445,-0.1668291722222222,1.4836631222222223,-0.0900575511111111
761,1778428954750,0.77179805,0.0674734469999999,-0.402432015,-0.16615045,1.6818152,-0.03657448
762,1778428954760,0.7678801350000001,0.07613249,-0.3689468099999999,-0.16508146875,1.781077875,-0.005115846125
763,1778428954770,0.7612266633333333,0.0850523873333333,-0.3339659744444445,-0.1575986,1.896528,0.035505496
764,1778428954780,0.7491595875,0.0838997145,-0.28753964,-0.15820944,2.0235842875,0.08689302275
765,1778428954790,0.7403176075,0.0768032637499999,-0.24245316875,-0.156605965,2.118723725,0.11850436875
766,1778428954800,0.7297072233333333,0.0668636583333333,-0.2165573533333333,-0.1433454866666667,2.208874633333333,0.1267253533333333
767,1778428954810,0.71262163125,0.04154587175,-0.19597561875,-0.14316733,2.4204059,0.12667445
768,1778428954820,0.7052851,0.025367333,-0.18254115,-0.14965758,2.5971699,0.1259109
769,1778428954830,0.6908939733333334,0.0144994901111111,-0.0978918908888888,-0.1375763722222222,2.908430522222222,0.1161373344444444
770,1778428954840,0.68622906125,0.01866343525,-0.023347398125,-0.105981994,3.215347175,0.1062110675
771,1778428954850,0.681327,0.0369161077777777,0.0586856732222222,-0.072351462,3.352380644444444,0.1059565461111111
772,1778428954860,0.6688194999999999,0.044240386,0.10024975,-0.06154286,3.4465531,0.108196321875
773,1778428954870,0.6615697333333332,0.0439625922222222,0.15267828,-0.0804960944444444,3.5293905555555556,0.1123365077777777
774,1778428954880,0.6527515,0.0362927673333333,0.2100325766666666,-0.10567658,3.5873532000000004,0.11186141
775,1778428954890,0.6374457499999999,0.027951326,0.273384855,-0.16981553375,3.746937125,0.10208784625
776,1778428954900,0.6235695511111111,0.0272170353333333,0.3805235566666666,-0.1940458099999999,3.8779893333333337,0.0933323733333333
777,1778428954910,0.63098190625,0.042014645,0.53648709375,-0.1818034124999999,3.820439275,0.09132166475
778,1778428954920,0.6434623333333334,0.0466185713333333,0.6307888666666667,-0.16615045,3.7028034,0.088649206
779,1778428954930,0.652934475,0.045002626,0.67613705,-0.122093096875,3.4125746125,0.072538109875
780,1778428954940,0.6554956,0.04393549,0.6769907,-0.054976255,3.0577486,0.042224817
781,1778428954950,0.6252804125,0.05442391,0.62090895,-0.011911522,2.9541336375,-0.0113006741875
782,1778428954960,0.5955395222222222,0.0685981777777777,0.5949466666666666,-0.0044795465,3.0508935888888886,-0.0610083691111111
783,1778428954970,0.5710356175,0.08107561375,0.6112322937500001,-0.04123219,3.2468058500000003,-0.0742942975
784,1778428954980,0.5433701550000001,0.084928735,0.7453179050000001,-0.11338852375,3.447927275,-0.07337803
785,1778428954990,0.54497087,0.07979124,0.79461956,-0.14965758,3.4425824,-0.06956023
786,1778428955000,0.55484944875,0.06658925075,0.86944479,-0.1824142625,3.256121225,-0.057343286
787,1778428955010,0.5442289333333333,0.053204324,0.9192406566666668,-0.1873264955555555,3.019061688888889,-0.0394251022222222
788,1778428955020,0.5368910925,0.0469234675,0.9454896275,-0.18035265125,2.7950079375000003,-0.0309241435
789,1778428955030,0.5261587466666666,0.0501147133333333,0.9604930133333331,-0.17348062,2.668639,-0.028633466
790,1778428955040,0.5094983857142857,0.0610793442857142,0.9619637771428572,-0.1369170485714285,2.4677573571428573,-0.0288952561428571
791,1778428955050,0.4604875666666667,0.0777586011111111,0.94771112,-0.11911522,2.518166933333333,-0.0375925573333333
792,1778428955060,0.4247732375,0.0819255125,0.9829613275,-0.1177408125,2.6825357,-0.03275668375
793,1778428955070,0.42192628625,0.08486394875,1.075664875,-0.105829288125,2.723538875,-0.01488940225
794,1778428955080,0.43685477,0.08987567,1.13450975,-0.078188450625,2.6284756625,-0.0035123715
795,1778428955090,0.43173254,0.06735149,1.113815,0.02443389,2.4627833,0.022677705
796,1778428955100,0.40591547,0.0554605535,1.149876575,0.0390942225,2.4591182375,0.033443887875
797,1778428955110,0.36288702,0.035642326,1.2099792,0.06352811,2.4530098,0.051387526
798,1778428955120,0.3541602366666667,0.0371600263333333,1.2655887555555556,0.027691742,2.414458688888889,0.0671338051111111
799,1778428955130,0.35166687,0.037593655,1.2814772,0.023212196,2.4096398,0.06910209
800,1778428955140,0.3657699855555555,0.0452092773333333,1.3605028,-0.094952814,1.994467233333333,0.1055493122222222
801,1778428955150,0.38682133,0.05588741,1.4157228,-0.25105822,1.4145695,0.14240377
802,1778428955160,0.38682133,0.05588741,1.4157228,-0.25105822,1.4145695,0.14240377
803,1778428955170,0.401090465,0.0723517835,1.3567255,-0.30007873,1.1511416,0.148817665
804,1778428955180,0.40682253,0.082230404,1.321754,-0.31519719,1.0135101,0.148817665
805,1778428955190,0.40682253,0.082230404,1.321754,-0.31397548,0.9636879,0.1466797
806,1778428955200,0.40682253,0.082230404,1.321754,-0.31397548,0.9636879,0.1466797
807,1778428955210,0.40682253,0.082230404,1.321754,-0.31397548,0.9636879,0.1466797
808,1778428955220,0.40682253,0.082230404,1.321754,-0.31397548,0.9636879,0.1466797
809,1778428955230,0.4119142842857143,0.0823741414285714,1.2630441142857145,-0.2738340928571428,0.9397776,0.1338519064285714
810,1778428955240,0.42023793,0.039301075,1.1514087,-0.09712471,0.9869001,0.07398888
811,1778428955250,0.42252846125,0.038081491625,1.1551627125,-0.09628479625,0.98117340375,0.07078193125
812,1778428955260,0.45777063,0.0304362265,1.1982712,-0.09529217,0.81036526,0.020234315
813,1778428955270,0.4618155633333333,0.0360488516666666,1.1808616333333335,-0.1183007533333333,0.5755962866666667,-0.0192671406666666
814,1778428955280,0.4518518275,0.03667897175,1.15116475,-0.14446538,0.441718925,-0.0381015975
815,1778428955290,0.42536017,0.042228073,1.1255535,-0.1692047,0.38216132,-0.044515494
816,1778428955300,0.4063041899999999,0.0468929795,1.134456475,-0.1842468025,0.38521555125,-0.041079478125
817,1778428955310,0.3896873737499999,0.049759000125,1.1556505875,-0.19241688,0.39460732625,-0.038025240625
818,1778428955320,0.3875531,0.04613074,1.1887584,-0.1795891,0.41331452,-0.039628714
819,1778428955330,0.3857847,0.041343874625,1.2327206,-0.16042376,0.4159869825,-0.0448209165
820,1778428955340,0.37944286,0.0380814894999999,1.32310315,-0.118351655,0.3739148825,-0.054747185
821,1778428955350,0.37633294,0.03295924,1.3930081,-0.09407048,0.26487863,-0.05612159
822,1778428955360,0.37633294,0.03295924,1.3930081,-0.09407048,0.26487863,-0.05612159
823,1778428955370,0.3518879125,0.0279170256249999,1.5575717875,-0.033291175875,-0.0652079525,-0.06192463975
824,1778428955380,0.34020278,0.020245085,1.6512243,0.012216945,-0.31909135,-0.07200362
825,1778428955390,0.34020278,0.020245085,1.6512243,0.012216945,-0.31909135,-0.07200362
826,1778428955400,0.3353854225,0.0300703529999999,1.760430475,0.10598199875,-0.7727981375,-0.08635853
827,1778428955410,0.33995885,0.048325993,1.8166914,0.19180603,-1.116247,-0.09399412
828,1778428955420,0.33995885,0.048325993,1.8166914000000003,0.19180603,-1.116247,-0.09399412
829,1778428955430,0.344593275,0.08774140225,1.781170975,0.3188622675,-1.631095825,-0.1107924225
830,1778428955440,0.35849655,0.098603316,1.7336987,0.3591782,-1.9513515,-0.12331479
831,1778428955450,0.3853476922222222,0.083250112,1.6361387888888888,0.31540081,-2.1897856,-0.13064496
832,1778428955460,0.4038684111111111,0.0638011422222222,1.5429660444444444,0.2425063711111111,-2.4532643555555556,-0.1367534322222222
833,1778428955470,0.416945065,0.037429775,1.46510455,0.1565296025,-2.655658425,-0.1278961375
834,1778428955480,0.428843625,0.0235379582499999,1.402421725,0.067422267,-2.861361225,-0.111555979375
835,1778428955490,0.4373697022222222,0.0222506201111111,1.3305247555555555,-0.0230085797777777,-3.0802651444444447,-0.0876820338888889
836,1778428955500,0.43831828,0.02414775,1.2646469,-0.07574506,-3.2066426,-0.06772769
837,1778428955510,0.438806115,0.02500145875,1.248174925,-0.0839914975,-3.234359825,-0.0594812525
838,1778428955520,0.4423022366666667,0.03205133,1.1306994999999995,-0.0973961999999999,-3.284627522222222,-0.0429544411111111
839,1778428955530,0.4414891749999999,0.0394230329999999,1.028901565,-0.0813190375,-3.220997575,-0.01107160625
840,1778428955540,0.4386976777777778,0.0327288742222222,0.9382559733333332,-0.0217868869999999,-3.0755141333333333,0.0127005326666666
841,1778428955550,0.4422209,0.025123417,0.92956644,0.035581852125,-3.0320166875,0.03115320975
842,1778428955560,0.4562054744444445,0.0087538978555555,0.9162052511111112,0.1164003411111111,-3.0347232444444447,0.0437179977777777
843,1778428955570,0.4631977675,0.0050917604875,0.8805353775,0.2756448275,-3.1487649,0.0466534594999999
844,1778428955580,0.4520385649999999,0.009146875375,0.82315014125,0.3880407225,-3.2448970375,0.04909684975
845,1778428955590,0.4439554544444444,0.0149602226666666,0.7309132566666666,0.4588820488888889,-3.325147133333333,0.0492834969999999
846,1778428955600,0.43807435,0.014391083,0.6420802,0.503949,-3.3300338,0.042224817
847,1778428955610,0.4366108374999999,0.0114640835,0.6120784,0.5230379749999999,-3.2815478,0.042988375125
848,1778428955620,0.4554195366666667,0.0044718057222222,0.5282252555555556,0.5661196688888889,-3.2844238000000003,0.0474509553333333
849,1778428955630,0.46441734,0.005366167,0.4668565,0.5882459,-3.3153734,0.047722444
850,1778428955640,0.46441734,0.005366167,0.4668565,0.5882459,-3.3153734,0.047722444
851,1778428955650,0.46835047375,0.009268833375,0.3337580375,0.6109236175,-3.2369559375,0.073988875
852,1778428955660,0.48517312,0.02414775,0.2842543875,0.617872,-3.0597339,0.090176327
853,1778428955670,0.5350583388888889,0.0509243797777777,0.2783258644444444,0.6181095733333333,-2.6716763555555554,0.1087392971111111
854,1778428955680,0.5580203874999999,0.057960697,0.30688527,0.6184828625,-2.53913945,0.1191915725
855,1778428955690,0.58430239,0.0619243409999999,0.3558744,0.62871455625,-2.4945475625,0.1417929275
856,1778428955700,0.5826694911111111,0.0630964973333333,0.34448486,0.62767947,-2.649617822222222,0.1610006688888889
857,1778428955710,0.572960275,0.0675344285,0.3061382824999999,0.6050441824999999,-2.84295945,0.1805817137499999
858,1778428955720,0.5674112,0.06540016,0.23159887,0.56442285,-2.9952896,0.19982341
859,1778428955730,0.5607034575,0.0164110195,0.0783429835,0.47668992375,-3.0539309,0.2064663699999999
860,1778428955740,0.5593619,-0.012927583,-0.005854,0.4202629,-3.0600393,0.20532103
861,1778428955750,0.5743627625,-0.03343945075,-0.069927865,0.36757734,-2.880297475,0.1842468025
862,1778428955760,0.6121317275,-0.041801218,-0.13257634,0.2872509374999999,-2.62022935,0.1497339349999999
863,1778428955770,0.6669697933333333,-0.032623856,-0.1719714233333333,0.2142037733333333,-2.461001833333333,0.10514208
864,1778428955780,0.7071220125,-0.011890938,-0.1937689275,0.16111096375,-2.379402775,0.0657424325
865,1778428955790,0.7328238877777777,0.0151838122222222,-0.2207852444444444,0.1146356694444444,-2.3059144666666667,0.0171800793333333
866,1778428955800,0.74202499,0.04387450875,-0.2574006875,0.083838785,-2.1845424,-0.0284807527499999
867,1778428955810,0.75391590625,0.069302821875,-0.2989617875,0.09849912125,-2.0393135625000003,-0.057572353125
868,1778428955820,0.7609285,0.080279075,-0.3245921,0.11300674,-1.9599035,-0.07017108
869,1778428955830,0.7729719,0.0764577133333333,-0.35159571,0.1231196577777777,-1.8874162555555556,-0.0779763511111111
870,1778428955840,0.7985222000000001,0.064363511,-0.415550155,0.14965758,-1.7002933,-0.09765921
871,1778428955850,0.8029127,0.051009074,-0.44539183,0.16248538,-1.5249038,-0.11720632
872,1778428955860,0.817486735,0.027341534,-0.4896932125,0.1519482625,-1.186799825,-0.1430146075
873,1778428955870,0.82942509,0.0171825744888888,-0.4991924011111111,0.1172148044444444,-0.9795529333333334,-0.1577258511111111
874,1778428955880,0.83392063375,0.0058540006125,-0.4968277587499999,0.074905146875,-0.8162446250000001,-0.1709608725
875,1778428955890,0.83840259875,-0.0046649062875,-0.48929686125,0.028862534125,-0.6727718675000001,-0.1856212112499999
876,1778428955900,0.8458725,-0.0065857503,-0.487376,-0.0357345635,-0.5083012625,-0.19982340875
877,1778428955910,0.840079535,0.011555552375,-0.5047855725,-0.08315158025,-0.383688435,-0.1998234125
878,1778428955920,0.8319693,0.0190255,-0.5122555,-0.14782503,-0.23296188,-0.18378867
879,1778428955930,0.824949928888889,0.0383491211111111,-0.4917597088888888,-0.2079595588888888,-0.0263597565555555,-0.1575901077777778
880,1778428955940,0.82828003,0.05174082,-0.46319774,-0.24861483,0.20257223,-0.12331479
881,1778428955950,0.82828003,0.05174082,-0.46319774,-0.24861483,0.20257223,-0.12331479
882,1778428955960,0.8305133975,0.0558264245,-0.42653021125,-0.2404447475,0.335202435,-0.101400645
883,1778428955970,0.8375522777777777,0.0666468393333333,-0.2781564722222222,-0.1887517944444444,0.8459979799999999,-0.0139052583333333
884,1778428955980,0.8420918249999999,0.0552166361249999,-0.24047135125,-0.1522536737499999,0.9672766125,0.0108425393125
885,1778428955990,0.8436230811111111,0.0386472411111111,-0.2288886933333333,-0.1360153233333333,1.0177818222222224,0.0173158235555555
886,1778428956000,0.8226902866666667,0.0222777223333333,-0.24022744,-0.1407663522222222,1.0058364222222222,0.0124290452222222
887,1778428956010,0.7853642444444444,0.011165963,-0.2850200266666667,-0.1922811477777777,0.994366011111111,0.0113430944444444
888,1778428956020,0.7597902666666667,0.005610083,-0.31635993,-0.2339545077777777,1.0319840333333334,0.0174515673333333
889,1778428956030,0.7335488875,0.007347989375,-0.34181870625,-0.31939677,1.1290748,0.038788801625
890,1778428956040,0.7236359625000001,0.010762822875,-0.35599637125,-0.35490227,1.1775608,0.051387526
891,1778428956050,0.7118708,0.014391083,-0.37093627,-0.4662800666666666,1.5192280666666669,0.1031059266666666
892,1778428956060,0.7215969625,0.01512283375,-0.32940185,-0.533441455,1.8472021,0.1369061425
893,1778428956070,0.7345855,0.013659334,-0.29919428,-0.5577799,2.0235844,0.14790139
894,1778428956080,0.7359948244444444,0.0133341113333333,-0.2076577688888888,-0.5819423,2.3819480888888886,0.1385350677777777
895,1778428956090,0.72336537,0.018049834,-0.14202048,-0.5730511,2.5935047,0.12407835
896,1778428956100,0.70013905,0.0349884926666666,-0.0884401155555555,-0.5311826222222222,2.744587488888889,0.1126758633333333
897,1778428956110,0.68747912,0.0571755925,-0.055635866,-0.4976878225,2.8512821500000003,0.12071868625
898,1778428956120,0.6723563,0.08640748,-0.022196416,-0.46607646,2.9569588,0.14423631
899,1778428956130,0.6428423444444444,0.0820440755555555,0.0096753617777777,-0.4649905222222222,3.0970465333333332,0.1795297055555555
900,1778428956140,0.6391531,0.08149865,0.013659334,-0.46485478,3.1145575,0.18394138
901,1778428956150,0.6248839975,0.0445910125,0.105425357,-0.46546562,3.284067625,0.204557475
902,1778428956160,0.60549265,-0.0014635,0.22867186,-0.4563029,3.5000021,0.22059222
903,1778428956170,0.59504236,-0.0064028125,0.2885153124999999,-0.4306473125,3.590254775,0.2063900175
904,1778428956180,0.591857048888889,-0.0047428241111111,0.3276885088888888,-0.4101499933333333,3.627194055555555,0.1973121477777777
905,1778428956190,0.584363375,0.0271166728749999,0.5088635625,-0.2935121125,3.705657175,0.15660596875
906,1778428956200,0.567899,0.036130156,0.5544836,-0.2583884,3.7450283,0.1466797
907,1778428956210,0.5486566933333333,0.0325459366666666,0.619392508888889,-0.1920096544444444,3.700436366666666,0.1449150244444444
908,1778428956220,0.5414302575,0.024086771125,0.66568673,-0.10567657525,3.66401455,0.1425564875
909,1778428956230,0.51664597,0.01683025,0.75239146,-0.028709821,3.7125769,0.13934954
910,1778428956240,0.51112737125,0.01103723,0.807154595,0.017790926125,3.707231875,0.13400462
911,1778428956250,0.5072145744444445,0.0015448055555555,0.8680418944444445,0.1508792733333333,3.391882088888889,0.082201376
912,1778428956260,0.49810836,-0.00073175,0.8756304,0.17225893,3.2422245,0.053220067
913,1778428956270,0.5001642000000001,0.0009756666857142,0.8737487142857142,0.1409311857142857,2.9838362714285713,0.0130786761428571
914,1778428956280,0.491145295,0.0177563715,0.85742805,0.0792574335,2.831735275,-0.02374668725
915,1778428956290,0.47100312,0.032715324,0.8539218,0.014660334,2.824405,-0.053067356
916,1778428956300,0.4401882888888889,0.0568088697777777,0.9052899455555556,-0.09386686,2.9760987333333335,-0.079944635
917,1778428956310,0.4403229225,0.062351198,0.9816273875,-0.136677075,3.039117875,-0.086969381875
918,1778428956320,0.428775,0.05905832,1.0660073,-0.13988402,3.1011188,-0.08483142
919,1778428956330,0.4342224666666666,0.0443149155555555,1.1575303222222224,-0.0741840022222222,3.032703866666667,-0.07940166
920,1778428956340,0.4480749,0.021464668,1.2119304,-0.01786728175,2.8094392125,-0.1223985227499999
921,1778428956350,0.4480749,0.021464668,1.2119304,-0.05314371,2.5935047,-0.1672958
922,1778428956360,0.443806375,0.03017325675,1.2535677125,-0.10697462875,2.4007060124999997,-0.1749313875
923,1778428956370,0.4181409355555555,0.0384338157777777,1.2673841888888888,-0.2667366333333333,2.1112747111111108,-0.1776123288888889
924,1778428956380,0.38926053,0.042228073,1.2534268,-0.5314371,1.8152853,-0.16485241
925,1778428956390,0.37286389,0.0270239338888888,1.3035245777777775,-0.7297588644444445,1.7968242,-0.1353959922222222
926,1778428956400,0.37118018,0.023172084,1.3385842,-0.82899606,1.812842,-0.12331479
927,1778428956410,0.37682077,0.0282943319999999,1.421089,-0.8473215,1.8097878,-0.093383275
928,1778428956420,0.37682077,0.028294332,1.421089,-0.8473215,1.8097878,-0.093383275
929,1778428956430,0.37682077,0.0282943319999999,1.421089,-0.8473215,1.8097878,-0.093383275
930,1778428956440,0.37682077,0.028294332,1.421089,-0.8473215,1.8097878,-0.093383275
931,1778428956450,0.37682077,0.028294332,1.421089,-0.8473215,1.8097878,-0.093383275
932,1778428956460,0.37682077,0.028294332,1.421089,-0.8473215,1.8097878,-0.093383275
933,1778428956470,0.37682077,0.0282943319999999,1.421089,-0.8473215,1.8097878,-0.093383275
934,1778428956480,0.37682077,0.028294332,1.421089,-0.8473215,1.8097878,-0.093383275
935,1778428956490,0.37682077,0.028294332,1.421089,-0.8473215,1.8097878,-0.093383275
936,1778428956500,0.4302613675,0.0336223905,1.439382775,-0.74103405,1.677386625,-0.05444176375
937,1778428956510,0.4589509785714286,0.0320445544285714,1.4772813142857142,-0.4659455471428571,1.5029678714285717,0.020583369
938,1778428956520,0.482284225,0.0089639375,1.8073996,-0.3675773325,1.0559831625,0.13965495125
939,1778428956530,0.4751497,-0.026343001,1.8505957,-0.40193748,-0.09307785,0.076432265
940,1778428956540,0.47112502,-0.0370448435,1.607174525,-0.22754060775,-0.9723924875,-0.01351499625
941,1778428956550,0.4289613355555555,-0.0454531931111111,1.2859794555555557,-0.0342753164444444,-1.240384733333333,-0.07437914
942,1778428956560,0.37476654875,-0.040673104375,1.04354415,0.153780795,-1.085704625,-0.1272852975
943,1778428956570,0.35935025,-0.0340492425,0.96185495,0.310463115,-0.743630175,-0.1610346075
944,1778428956580,0.36483836,-0.0219525,0.9656966,0.41354358,-0.4595862,-0.1880646
945,1778428956590,0.36483836,-0.0219525,0.9656966,0.41354358,-0.4595862,-0.1880646
946,1778428956600,0.36483836,-0.0219525,0.9656966,0.41354358,-0.4595862,-0.1880646
947,1778428956610,0.363405345,-0.046062137375,1.137657825,0.52364880375,-0.36895174375,-0.22311196375
948,1778428956620,0.3623686975,-0.058844895625,1.2876589,0.516929475,-0.4269058874999999,-0.2373905174999999
949,1778428956630,0.3706212166666667,-0.0524725746666666,1.3861886,0.4574567166666667,-0.6220037111111112,-0.2319777333333333
950,1778428956640,0.392797305,-0.03264671975,1.457135375,0.4243097625,-0.77860117875,-0.23487076875
951,1778428956650,0.4067412077777777,0.0035842196666666,1.4994506333333333,0.3747887355555555,-1.0189186933333334,-0.2504388744444444
952,1778428956660,0.4076152437499999,0.056222790625,1.507058225,0.3122193199999999,-1.320117275,-0.23700874
953,1778428956670,0.4107861625,0.0844599549999999,1.4878917,0.273812295,-1.494056075,-0.2105895975
954,1778428956680,0.4113959625,0.096834921,1.466053525,0.2351761987499999,-1.65886075,-0.1602710525
955,1778428956690,0.4182053222222222,0.1070861968888888,1.4351820222222225,0.1936385788888888,-1.8163543333333336,-0.1039712966666666
956,1778428956700,0.4273115,0.1027499,1.415235,0.1551552,-1.8676655,-0.07261447
957,1778428956710,0.44639417375,0.089445005,1.415174,0.084449635,-1.9402799875,-0.035429142725
958,1778428956720,0.4617952375,0.0828402,1.4071781,0.013973131125,-2.0478653375,0.0016034739625
959,1778428956730,0.4756442777777778,0.0771352644444444,1.3781223777777778,-0.0350219073333333,-2.202816933333333,0.0391705806666666
960,1778428956740,0.4874844288888889,0.0702242888888888,1.3295558111111112,-0.06563214,-2.336185311111111,0.0697808164444444
961,1778428956750,0.4870507855555555,0.0619311172222222,1.2770324333333334,-0.08246438,-2.4488527777777778,0.0951649099999999
962,1778428956760,0.493717835,0.0585704925,1.2003445,-0.0881910725,-2.5296712,0.115755554375
963,1778428956770,0.49518132,0.0556434899999999,1.1689707,-0.09773556,-2.5487602,0.1191915699999999
964,1778428956780,0.4968345333333333,0.0459952314444444,1.1185781666666663,-0.1174184155555555,-2.608623188888889,0.1390780399999999
965,1778428956790,0.5027156666666666,0.0286906997777777,1.062118222222222,-0.1307891866666666,-2.712059922222222,0.1698918944444444
966,1778428956800,0.513901975,0.020732916875,1.0164503125,-0.13011047,-2.7680542,0.1790546
967,1778428956810,0.5173777688888889,0.0227655555555555,0.9702158333333332,-0.1125316388888889,-2.9426209111111112,0.2015880755555555
968,1778428956820,0.516280145,0.0260381045,0.9091918375,-0.0787993,-3.05332,0.22059222
969,1778428956830,0.518932725,0.02823716625,0.84738944375,0.010002626875,-3.195952775,0.23143476
970,1778428956840,0.5236112199999999,0.0378646731111111,0.6939462888888889,0.0963102566666666,-3.2037920333333334,0.230773
971,1778428956850,0.527042965,0.04823452125,0.5879497,0.18439952125,-3.009949875,0.22471543625
972,1778428956860,0.54195998,0.045581928,0.5486219875,0.2553341624999999,-2.862277625,0.2124984975
973,1778428956870,0.5505809,0.041740242,0.50981635,0.30664533,-2.749118,0.1918824
974,1778428956880,0.54336249,0.03703722225,0.4875513099999999,0.3439070125,-2.5179887,0.166303175
975,1778428956890,0.5571666355555556,0.021464667,0.4817625133333332,0.34960825,-2.442812077777778,0.1516343511111111
976,1778428956900,0.57228950125,0.0006097916249999,0.4752106375,0.31061584,-2.41742805,0.11216683
977,1778428956910,0.57472867,-0.008537084,0.4797841,0.29442838,-2.4186497,0.09597938
978,1778428956920,0.57472867,-0.008537084,0.4797841,0.29442838,-2.4186497,0.09597938
979,1778428956930,0.5732651675,-0.00018293775,0.45713033,0.2192178062499999,-2.3674148625,0.031764059025
980,1778428956940,0.5704465666666666,0.0129817871111111,0.44644882,0.1681187455555555,-2.315959488888889,-0.0292443127777777
981,1778428956950,0.57143577,0.0220744584999999,0.432464255,0.17225893,-2.30503215,-0.0539836275
982,1778428956960,0.56863072,0.02268425,0.4317325233333333,0.17816379,-2.2750327222222224,-0.0621621933333333
983,1778428956970,0.5755213775,0.01838521875,0.43523501,0.227540595,-2.31694365,-0.070171075
984,1778428956980,0.601445175,0.00500029175,0.41481081,0.2628170225,-2.4065854250000003,-0.07963921
985,1778428956990,0.6062244,-0.006341833,0.38243085,0.28893074,-2.5041683,-0.08971819
986,1778428957000,0.5971918749999999,-0.014817938,0.2932106975,0.298780665,-2.5993840500000003,-0.09849912
987,1778428957010,0.5834486875,-0.0136288444999999,0.228427955,0.2780882025,-2.607706925,-0.088496495
988,1778428957020,0.582534,-0.011951917,0.20525588,0.26571855,-2.5829675,-0.066506
989,1778428957030,0.6016509533333333,0.0048783333333333,0.1552123066666666,0.2080953066666666,-2.5528324333333337,-0.0178418293333333
990,1778428957040,0.60915136,0.0190255,0.13665432,0.17294613375,-2.5747975625,0.026190077
991,1778428957050,0.632201555,0.03208266575,0.1047545925,0.152864525,-2.62450525,0.063909895
992,1778428957060,0.6512778266666667,0.0449924626666666,0.048803662,0.12949961,-2.6886442,0.09048175
993,1778428957070,0.6579652,0.045155074,0.014147166,0.12949961,-2.6886442,0.09048175
994,1778428957080,0.6823568888888888,0.0428785177777777,-0.0646209803333333,0.1412414544444444,-2.678395488888889,0.1062959088888889
995,1778428957090,0.7104073,0.039788906,-0.15302722,0.14110571,-2.601293,0.10514209
996,1778428957100,0.7104073,0.039788906,-0.15302722,0.14110571,-2.601293,0.10514209
997,1778428957110,0.74726921,0.0326543445,-0.2621113399999999,0.10949436875,-2.153694725,0.08177717725
998,1778428957120,0.78917206,0.0301948509999999,-0.32646214,0.0855186122222222,-1.8412633555555555,0.0618398022222222
999,1778428957130,0.8070593,0.031983573,-0.33556834,0.076966755,-1.6825788,0.042835664
1000,1778428957140,0.82247482,0.0360813746,-0.350008228,0.0838082389999999,-1.55595016,0.0169357404
