id,timestamp,acc_x,acc_y,acc_z,gyro_x,gyro_y,gyro_z
0,1778428676170,0.8470921,0.03808149,0.2640703,-0.06421532,-0.026419144,0.10392039
1,1778428676180,0.8470921,0.03808149,0.2640703,-0.06421532,-0.026419144,0.10392039
2,1778428676190,0.89224714,-0.0048783333,0.2982186,-0.1293044922222222,0.0350134255555555,0.1326302111111111
3,1778428676200,0.924444215,-0.0362483044125,0.380380425,-0.16103460625,0.0461094249999999,0.1474432525
4,1778428676210,0.93615216,-0.04198416,0.4019442,-0.15889664,0.00167983,0.14851224
5,1778428676220,0.981222551111111,-0.02940212,0.3873091866666667,-0.1579464377777777,-0.0206500314444444,0.1007304116666666
6,1778428676230,0.939401,-0.0141471666666666,0.3935968066666666,-0.1586930266666666,-0.0184102576666666,0.0706631526666666
7,1778428676240,0.9071261,-0.00219525,0.38487,-0.16439427,-0.050242186,0.061161082
8,1778428676250,0.9560542775,0.02609908275,0.3482520275,-0.20412797875,0.006595241875,0.001756186125
9,1778428676260,0.9366401,0.023172084,0.34386152,-0.2577266422222222,0.0398238481111111,-0.0256470999666666
10,1778428676270,0.8763621,0.01536675,0.3567891,-0.3440597,0.012064233,-0.0066429637
11,1778428676280,0.85319005,0.0034148334999999,0.345812855,-0.451568825,0.005192202,0.051692949075
12,1778428676290,0.8463332933333333,0.0124939543333333,0.3409887244444445,-0.5702767888888889,0.0365659969999999,0.1111826866666666
13,1778428676300,0.85782444,0.014878917,0.34337372,-0.6305471,0.022448637,0.18394138
14,1778428676310,0.85782444,0.014878917,0.34337372,-0.6305471,0.022448637,0.18394138
15,1778428676320,0.8975184933333333,-0.0215595245555555,0.3465717288888889,-0.68552335,0.1599316942222222,0.2643696133333333
16,1778428676330,0.93859136,-0.058326576,0.35313037,-0.72950435,0.26991814,0.3287122
17,1778428676340,0.93859136,-0.0583265759999999,0.35313037,-0.72950435,0.26991814,0.3287122
18,1778428676350,0.9833881725,-0.0669856185,0.40929979,-0.54770093625,0.3067216825,0.2361688325
19,1778428676360,1.0074639666666667,-0.0703868977777777,0.4382335666666666,-0.3953709,0.30412558,0.15278818
20,1778428676370,1.0037781,-0.06540016,0.41414002,-0.33428615,0.27236152,0.107585475
21,1778428676380,1.0037781,-0.06540016,0.41414002,-0.33428615,0.27236152,0.107585475
22,1778428676390,0.9755176111111112,-0.0643160844444444,0.373470311111111,-0.2933593855555556,0.3533327244444444,0.0429714087333333
23,1778428676400,0.9338959625,-0.054850761375,0.325110425,-0.2272065425,0.4810422125,-0.041079477125
24,1778428676410,0.9354204000000002,-0.040520657,0.3231286,-0.20654273,0.5386909,-0.044515494
25,1778428676420,0.93478016125,-0.035047776915,0.3397263725,-0.1801999375,0.6275692125000001,0.0029778805249999
26,1778428676430,0.94363909,-0.0857604241111111,0.3871736733333333,-0.17321761,0.6433494222222222,0.012904149
27,1778428676440,0.9476468,-0.104945146,0.42682368,-0.16561596,0.5991648,-0.03840702
28,1778428676450,0.94709457,-0.093633514,0.4100747366666666,-0.0999159482222222,0.5435098311111112,-0.0609404982222222
29,1778428676460,0.9115402933333334,-0.0485970114444444,0.4090448833333333,-0.0183339017777777,0.4905697299999999,-0.0675919511555555
30,1778428676470,0.86684936,-0.054667823,0.39560235,0.026190076,0.32061845,-0.0029778804
31,1778428676480,0.8749595575,-0.0664368,0.3576504375,-0.03947600475,0.203946627125,-0.023212196225
32,1778428676490,0.87779511875,-0.059729094375,0.3488008187499999,-0.13064496125,-0.0299601506249999,-0.03374931125
33,1778428676500,0.8785574,-0.06369274,0.33995885,-0.15278818,-0.16324893,-0.03413109
34,1778428676510,0.8785574,-0.06369274,0.33995885,-0.15278818,-0.16324893,-0.03413109
35,1778428676520,0.8592879777777778,-0.0972685484444444,0.2480937533333333,-0.1316800077777777,-0.5215447844444445,-0.0124799490444444
36,1778428676530,0.8597758,-0.1188484,0.1730284,-0.09597938,-0.634823,-0.0023670332
37,1778428676540,0.8597758,-0.1188484,0.1730284,-0.09597938,-0.634823,-0.0023670332
38,1778428676550,0.90580745625,-0.16741067875,0.094045121125,-0.079791925625,-0.41843037125,-0.24065473955
39,1778428676560,0.9339569,-0.17376013,0.110311314,-0.15584241,-0.24449162,-0.5858025
40,1778428676570,0.9339569,-0.17376013,0.110311314,-0.15584241,-0.24449162,-0.5858025
41,1778428676580,0.9792813444444444,-0.1159010666666666,0.1116122046666666,-0.1330374404444444,-0.0898030322222222,-0.4601037266666666
42,1778428676590,0.9889499666666666,-0.0763493075555555,0.100446242,-0.0587176926666666,0.035734567,-0.3577528699999999
43,1778428676600,0.9688675222222224,-0.0615516942222222,0.1077637397777777,-0.03672719,0.005955761,-0.33535513
44,1778428676610,0.9603304,-0.05491174,0.09884723,-0.03672719,0.005955761,-0.33535513
45,1778428676620,0.9507499411111112,-0.0247778689111111,0.0797438143333333,-0.0471115938888888,-0.0895400231111111,-0.3139754855555556
46,1778428676630,0.9588059625,-0.00853708305,0.05674111725,-0.057496,-0.10460759,-0.25899923
47,1778428676640,0.97277015,-0.0128589809999999,0.0509480935,-0.0695602315,-0.0042568437499999,-0.151165605
48,1778428676650,0.9905761333333332,0.0307538256666666,0.0846797359999999,-0.1436254626666666,0.09725197,-0.0151948243333333
49,1778428676660,1.010100825,0.0193303955,0.1361474275,-0.22366554,0.1075854699999999,0.03153499025
50,1778428676670,1.0462919375,0.02437261125,0.17357720125,-0.33756946125,0.0177622915,0.06383353625
51,1778428676680,1.0740565,0.049545575,0.17571147,-0.39598173,-0.034971006,0.11613733
52,1778428676690,1.098570175,0.02500908125,0.175162665,-0.416597835,-0.01664558775,0.19402036
53,1778428676700,1.1067414,0.01683025,0.17497973,-0.42346987,-0.010537115,0.21998137
54,1778428676710,1.1344631333333333,-0.0375055744444444,0.2502890022222222,-0.3689687111111111,-0.29627789,0.2565643388888889
55,1778428676720,1.1176600444444444,-0.0660234993333333,0.2823911355555555,-0.2696042355555555,-0.5946428377777777,0.2601615477777778
56,1778428676730,1.0656909875,-0.036759004875,0.2564059775,-0.22158484,-0.79776654,0.2402920425
57,1778428676740,1.0178981,-0.0207600191111111,0.2039414455555555,-0.2104877833333333,-0.9025777333333332,0.2346417033333333
58,1778428676750,1.0071319,-0.0383025397499999,0.16997943,-0.1928559375,-0.877176675,0.239223055
59,1778428676760,1.0253241,-0.0941924866666666,0.1412277466666666,-0.1145084153333333,-0.78997822,0.2326055433333333
60,1778428676770,1.041371775,-0.1295807225,0.125159735,-0.021608722375,-0.697129425,0.17722206125
61,1778428676780,1.0488214,-0.14869769,0.1468276766666666,0.0573432866666666,-0.6342121666666667,0.0965902226666666
62,1778428676790,1.0462196,-0.16985747,0.17351623,0.115984626,-0.6305471,0.033062108
63,1778428676800,1.0638044,-0.1422110375,0.1784555425,0.1874537564999999,-0.66124217,-0.0274117704999999
64,1778428676810,1.0320075875,-0.069912615,0.1543649475,0.23143476,-0.6305471,-0.1300341
65,1778428676820,0.9848034377777776,-0.0298662411111111,0.1121271377777777,0.0610083693333333,-0.5273139066666667,-0.18651203
66,1778428676830,0.94653770625,-0.020397531625,0.1217868375,-0.06314633375,-0.4170559625,-0.19623468125
67,1778428676840,0.89004048125,-0.035958653125,0.18904686125,-0.1150683475,-0.3057290375,-0.1951657
68,1778428676850,0.8497752,-0.05198474,0.22794013,-0.07154548,-0.26037365,-0.175924
69,1778428676860,0.8222126025,-0.07573993475,0.2963092224999999,0.069789300375,-0.249378395,-0.15226321625
70,1778428676870,0.8132452777777778,-0.0917465488888888,0.43871803,0.3972458555555555,-0.4779031333333333,-0.1971679222222222
71,1778428676880,0.851612115,-0.1058598375,0.3907163875,0.5681642899999999,-0.6534538249999999,-0.20096874
72,1778428676890,0.908711505,-0.09494456,0.3200720325,0.6446729025,-0.7170583125,-0.203870265
73,1778428676900,0.93246973,-0.0967061895555555,0.2781327622222222,0.6126034,-0.6684196,-0.22418094
74,1778428676910,0.94775349,-0.08224565,0.22574487,0.36963893875,-0.4703524,-0.310081325
75,1778428676920,0.9219135433333332,-0.0476653806666666,0.2237122333333333,0.2177246255555555,-0.3026578377777777,-0.3282285844444444
76,1778428676930,0.87733777,-0.02439166725,0.2543593575,0.0986518321249999,-0.03198358,-0.30595812875
77,1778428676940,0.8574450122222222,-0.0303608498888888,0.3502169166666667,0.0726823376666666,0.2682892155555555,-0.2068736088888889
78,1778428676950,0.88447997,-0.0601025925,0.4520919325,0.16928104625,0.21188764425,-0.160271045
79,1778428676960,0.8987516555555555,-0.1032919366666666,0.4024794355555555,0.3255052433333333,0.1222967159999999,-0.1702227766666666
80,1778428676970,0.90526621875,-0.11238460575,0.3062983825,0.4025483575,0.1851630825,-0.21097137875
81,1778428676980,0.8925385188888888,-0.0858247946666666,0.3031579533333333,0.46661095,0.2349641,-0.2680262111111111
82,1778428676990,0.8627332775000001,-0.008472293125,0.3102277249999999,0.5309026025,0.1194110921625,-0.2955737025
83,1778428677000,0.8618490625,0.0721688437499999,0.28193718,0.4510343425,-0.015576605775,-0.28312769
84,1778428677010,0.8837135277777778,0.0761324933333333,0.3169256733333333,0.36229182,-0.104200365,-0.3023015088888889
85,1778428677020,0.9000525,0.07271766,0.36191136,0.27297238,-0.22677705,-0.35978904
86,1778428677030,0.9213274888888888,0.0423771317777777,0.40243202,0.27650172,-0.3208475266666666,-0.37220959
87,1778428677040,0.93801209,-0.01617091375,0.39340711125,0.3129065225,-0.29839889125,-0.35123717
88,1778428677050,0.9328186266666668,-0.0794761833333333,0.40186287,0.39704224,-0.0079410122222222,-0.3056272533333333
89,1778428677060,0.9134103066666668,-0.095076685,0.4176361422222222,0.446453,0.18928629,-0.29565006
90,1778428677070,0.87782556,-0.041496325,0.42804328,0.4603497675,0.2609081375,-0.28763270625
91,1778428677080,0.8641933866666667,0.0202010416666666,0.3977637266666667,0.38048149,0.2724294022222222,-0.2377383644444444
92,1778428677090,0.85697077,0.0984813556249999,0.33736724375,0.20394664,0.2796917,-0.12942326
93,1778428677100,0.87660605,0.095920235,0.32093337,0.035352785,0.28946525,-0.035963632
94,1778428677110,0.87660605,0.095920235,0.32093337,0.035352785,0.28946525,-0.035963632
95,1778428677120,0.87401439375,0.09881674125,0.351270495,-0.087962011875,0.2066190875,0.0739888755
96,1778428677130,0.9021901555555556,0.1048909427777777,0.4048406811111111,-0.1595753622222222,0.0951479438888888,0.1603898177777777
97,1778428677140,0.9148094625,0.099670450625,0.41237161,-0.16072918,0.0736834485,0.17829104
98,1778428677150,0.9082542333333332,0.091356958,0.3872177133333333,-0.1738284555555555,0.1003062055555555,0.1986017133333333
99,1778428677160,0.8846553,0.082230404,0.3621553,-0.20043425,0.17157172,0.20287764
100,1778428677170,0.879142788,0.0783765212,0.362643126,-0.2101009079999999,0.206023506,0.194814458
101,1778428677180,0.86130028,0.0686320525,0.371004865,-0.244797035,0.3555894625,0.1555369875
102,1778428677190,0.8739229,0.08564524,0.39023617,-0.23288552,0.3908659,0.13446276
103,1778428677200,0.8739229,0.08564524,0.39023617,-0.23288552,0.3908659,0.13446276
104,1778428677210,0.9319547555555556,0.0869529033333333,0.4536003177777778,-0.1152889385555555,0.1229499848888888,0.0743282376888888
105,1778428677220,0.9835025,0.09738373,0.4817354399999999,0.013973131,-0.18890451,0.0012980504
106,1778428677230,0.9835025,0.09738373,0.4817354399999999,0.013973131,-0.18890451,0.0012980504
107,1778428677240,0.9223912011111112,0.1047825355555555,0.4388365855555556,0.0947407091111111,-0.1703754788888888,-0.0466873963555555
108,1778428677250,0.86636156,0.07344941,0.42340887,0.1300341,-0.044133715,-0.07566871
109,1778428677260,0.8652639279999998,0.0698150515,0.430805639,0.1230704424,0.0040086844999999,-0.081288504
110,1778428677270,0.8584206533333334,0.0438812883333333,0.5200947022222223,0.0511669431111111,0.4750270622222222,-0.1337670633333333
111,1778428677280,0.8638410566666666,0.0767117933333333,0.6349151333333334,0.01885991,0.6071058,-0.14041851
112,1778428677290,0.85343397,0.09494456,0.705529,0.022402824,0.620300108,-0.139196816
113,1778428677300,0.8493788375,0.109823475,0.77568550375,0.0676513305,0.5850389625,-0.12843063375
114,1778428677310,0.8407503,0.1400013944444444,0.7622734744444445,0.065284304,0.40491536,-0.10193513
115,1778428677320,0.831478071111111,0.15614393,0.7339045933333332,0.064877072,0.3735585355555555,-0.0924330626666666
116,1778428677330,0.8195904875,0.150271725,0.6811677724999999,-0.045049984375,0.16805935,0.06474981
117,1778428677340,0.8258409,0.11518965,0.68040556,-0.09659022,0.16424155,0.11552649
118,1778428677350,0.8258409,0.11518965,0.68040556,-0.09659022,0.16424155,0.11552649
119,1778428677360,0.8572756333333333,0.0475264858888888,0.6953928744444444,-0.2266158466666666,0.1630877288888889,0.1895747511111111
120,1778428677370,0.8792586,0.0172875940625,0.7137497137500001,-0.30565268875,0.191729675,0.2412083175
121,1778428677380,0.8997882488888889,0.0102173985666666,0.7351580577777779,-0.3337431822222222,0.22736243,0.2651840711111111
122,1778428677390,0.9832043444444444,-0.0024933703888888,0.8132114044444444,-0.3654394,0.2967954,0.2993915
123,1778428677400,0.9983814,-0.00073175,0.82486516,-0.35077903,0.26747474,0.29083964
124,1778428677410,0.9983814,-0.00073175,0.82486516,-0.35077903,0.26747474,0.29083964
125,1778428677420,1.00714335,-0.01445968475,0.8771243175,-0.33222454375,0.21959958875,0.2699944775
126,1778428677430,1.00367515,-0.05113103,0.97679481875,-0.24983653125,0.0293683915,0.1963873925
127,1778428677440,0.9780550133333332,-0.055643488,0.9733393333333332,-0.2419803566666666,-0.0353782366666666,0.1674485044444444
128,1778428677450,0.965879505,-0.0483259905,0.9683186625,-0.25884653,-0.089641835,0.150039365
129,1778428677460,0.9722823,-0.04686249,0.95569605,-0.2780882,-0.14553437,0.14912309
130,1778428677470,0.9770522555555556,-0.0554266766666666,0.9384456944444444,-0.2892192,-0.1620951166666666,0.14477929
131,1778428677480,0.995279125,-0.07637641125,0.92383435875,-0.2939702525,-0.1930277325,0.0857476875
132,1778428677490,0.998530125,-0.0761934687499999,0.9373718025,-0.24593284875,-0.23922305375,0.024433889
133,1778428677500,0.9771607,-0.08174257,0.9117605,-0.20471019,-0.33917293,-0.014583978
134,1778428677510,0.96837968125,-0.087699475,0.891168575,-0.1982962949999999,-0.36757733125,-0.0248920259999999
135,1778428677520,0.9566716875,-0.09817645625,0.799802755,-0.19609152,-0.40315918375,-0.058030489125
136,1778428677530,0.9658592,-0.0862347033333333,0.7580828666666667,-0.2098090644444444,-0.3532224277777777,-0.0949443268888888
137,1778428677540,0.977160675,-0.08345761,0.75976995,-0.20943471125,-0.3003841325,-0.1397408475
138,1778428677550,0.9845594588888888,-0.0889821566666666,0.7699839722222221,-0.2034885,-0.2597628,-0.19058435
139,1778428677560,0.97935593,-0.10957957,0.79169255,-0.13263021,-0.17363334,-0.24983653
140,1778428677570,0.9670787944444444,-0.1157045883333333,0.7999044044444444,-0.0378810142222222,-0.1285663799999999,-0.2625964511111111
141,1778428677580,0.94648435625,-0.1100064156249999,0.7795843725,0.08971819,-0.13453911,-0.2583884
142,1778428677590,0.9412473022222222,-0.0852929133333333,0.7274509444444445,0.2046932199999999,-0.1910764122222222,-0.2230271177777777
143,1778428677600,0.9153583425,-0.0499724275,0.6326817499999999,0.27648475,-0.20081604,-0.1591066275
144,1778428677610,0.8886900433333333,-0.0256620662222222,0.5793292,0.2942162733333333,-0.1712578211111111,-0.0748542446666666
145,1778428677620,0.8811049411111112,0.009187528,0.5435615111111111,0.2754157533333333,-0.1086799093333333,0.053830916
146,1778428677630,0.88587487,0.022196416,0.5520444,0.2644205,-0.030084228,0.15156648
147,1778428677640,0.91459985,0.004847844125,0.55069904,0.2654894925,0.00229067725,0.2410555999999999
148,1778428677650,0.9514680666666666,-0.029361469,0.5369723833333333,0.2489457,-0.0047680026666666,0.3000023755555555
149,1778428677660,0.960726775,-0.0568973756249999,0.54348065625,0.2068481575,0.047665176,0.34337251
150,1778428677670,0.956549675,-0.1059817924999999,0.5625937825,0.15171918675,0.12430741875,0.3529169975
151,1778428677680,0.9613061,-0.09884723,0.58911973,0.102545984,0.22105035,0.32993388
152,1778428677690,0.9590295444444444,-0.0576558046666666,0.6430456455555555,0.0740397773333333,0.2544433366666667,0.2981698133333333
153,1778428677700,0.9617939,0.0019513334,0.6977236,0.07200362,0.17279342,0.26701662
154,1778428677710,0.97112375,0.03581763935,0.7169549275,0.08727480375,0.109799795,0.2528907637499999
155,1778428677720,0.97520934,0.0296968563333333,0.6986179766666667,0.1024781144444444,-0.17370121,0.1625617355555555
156,1778428677730,0.96435507875,0.0148179371875,0.66488254625,0.055587102125,-0.30901234375,0.13171394
157,1778428677740,0.9421891333333332,-0.0216374403333333,0.6306973266666667,-0.0467043633333333,-0.4157324599999999,0.1202096533333333
158,1778428677750,0.912553265,-0.066139528,0.60267997,-0.120107838,-0.4306473125,0.1026986925
159,1778428677760,0.89005196,-0.08591965,0.5839975,-0.15950748,-0.38987327,0.08070819
160,1778428677770,0.8299493175,-0.068144219,0.5415254975,-0.1710372375,-0.1718771543749999,0.049249560625
161,1778428677780,0.8130488322222222,-0.0208921397777777,0.5480096088888888,-0.1780365233333333,-0.0280480699999999,0.06116108
162,1778428677790,0.7936744,0.009024916625,0.58607076,-0.1631725762499999,0.010613470775,0.07330167
163,1778428677800,0.7804690111111111,0.0114640827444444,0.6009936977777778,-0.1374491177777777,-0.0004241996444444,0.0767037517777777
164,1778428677810,0.7687339,0.0017074167,0.6179324,-0.1026987,-0.06123744,0.088649206
165,1778428677820,0.7571072,-0.0314754133333333,0.5501642066666668,-0.0695093266666666,-0.1384078033333333,0.1026987
166,1778428677830,0.759709,-0.04905774,0.49664482,-0.05688515,-0.12171131,0.1026987
167,1778428677840,0.7582454577777777,-0.0996026911111111,0.3804795088888889,-0.044125231,0.086044625,0.1000516911111111
168,1778428677850,0.75565384875,-0.1268709675,0.32675306,-0.047111593,0.20211409,0.12835428
169,1778428677860,0.76108482375,-0.1433277356249999,0.30651179375,-0.0645207444999999,0.32642149,0.1775274825
170,1778428677870,0.7826676,-0.092505395,0.30992663,-0.067269556,0.3951418,0.21875967
171,1778428677880,0.8104436,-0.040486353875,0.3079447975,-0.075974126375,0.3435252275,0.23074755
172,1778428677890,0.8145393666666666,-0.0100005837666666,0.2861853933333333,-0.0858664588888888,0.2644205,0.18998198
173,1778428677900,0.8060836,-0.0036587503,0.26553378,-0.092314295,0.25220355,0.17233528
174,1778428677910,0.8057583777777778,-0.0044718058222222,0.2592698644444444,-0.092314295,0.25220355,0.17233528
175,1778428677920,0.814445375,-0.0131715,0.2068946875,-0.107509115,0.38437564,0.1128540324999999
176,1778428677930,0.8601890688888889,-0.0239377108888888,0.2022780544444444,-0.07989373,0.4053226033333333,0.0831515806666666
177,1778428677940,0.90175986,-0.038569324,0.20989029,-0.05993939,0.35849097,0.061161082
178,1778428677950,0.9334691000000002,-0.077595994,0.20110929,-0.0037414393999999,0.21249849,-0.017638214
179,1778428677960,0.9201146825,-0.08209701225,0.2006481337499999,0.02512109365,0.1985253599999999,-0.0742179435
180,1778428677970,0.8839743466666667,-0.0520863744444444,0.1954687233333333,0.0276153877777777,0.2190820599999999,-0.1251473333333333
181,1778428677980,0.88845122,0.0048783324999999,0.18680968,-0.0156529615,0.19356223,-0.0869693775
182,1778428677990,0.91280091875,0.0161899672875,0.17089030375,-0.0567324405,0.101763344325,-0.0373380397499999
183,1778428678000,0.9674040025,-0.001524479275,0.1264707875,-0.08536590375,-0.0109952506125,-0.01351499525
184,1778428678010,0.9813073,-0.020732917,0.10982348,-0.09659022,-0.103996746,-0.023135839
185,1778428678020,0.9811243,-0.02734153525,0.09646904,-0.11903886,-0.196540104,-0.0304660075
186,1778428678030,0.978898575,-0.054362927,0.059614758625,-0.1931995387499999,-0.3084015175,-0.049173203125
187,1778428678040,0.9674040333333332,-0.0807770753333333,0.0557247943333333,-0.2538579422222222,-0.29627789,-0.0641304766666666
188,1778428678050,0.9552081,-0.086163566,0.076864235,-0.27625567,-0.27320144,-0.06956023
189,1778428678060,0.9470877777777778,-0.0737576912222222,0.1019537761111111,-0.2772737422222222,-0.2653961622222222,-0.0644698377777777
190,1778428678070,0.9517934,-0.050277323,0.14275223,-0.25915194,-0.27320144,-0.042072106
191,1778428678080,0.97862417,-0.03149574,0.1644913,-0.1997046422222222,-0.2503964666666667,-0.0339953481111111
192,1778428678090,1.00305778125,-0.02395337925,0.14798881375,-0.12927055975,-0.21776704125,-0.037872530875
193,1778428678100,1.049878366666667,-0.011518287,0.0987625377777777,-0.0344874183333333,-0.1852394222222222,-0.059515189
194,1778428678110,1.0459757,-0.021708583,0.07076632,-0.044668205,-0.2005106,-0.065284304
195,1778428678120,1.0459757,-0.021708583,0.07076632,-0.044668205,-0.2005106,-0.065284304
196,1778428678130,1.0508932,-0.0469234688571428,0.0652607785714285,-0.0720690685714285,-0.1587112057142857,-0.1122431875714285
197,1778428678140,1.0355957444444444,-0.0693299233333333,0.0573238077777777,-0.0914319566666666,-0.0598800023333333,-0.1740236044444444
198,1778428678150,1.0071929,-0.05979007,0.06881499,-0.09903361,-0.029473381,-0.21257484
199,1778428678160,1.0071929,-0.05979007,0.06881499,-0.09903361,-0.029473381,-0.21257484
200,1778428678170,1.010607742857143,-0.0510787632857142,0.08887278,-0.0994699314285714,-0.0251101852857142,-0.2854401971428572
201,1778428678180,1.0193888,-0.035886243,0.09201756,-0.09353599,-0.053296424,-0.36039987
202,1778428678190,1.0204863875,-0.027734089125,0.08734122,-0.08758022875,-0.04550812175,-0.3535278375
203,1778428678200,1.055495975,-0.016708292,0.06521721625,-0.1153737737499999,0.01313321625,-0.229506775
204,1778428678210,1.0789349,-0.020001167,0.06759541,-0.16805935,0.025502874,-0.1428619
205,1778428678220,1.0789349,-0.020001167,0.06759541,-0.16805935,0.025502874,-0.1428619
206,1778428678230,1.0492163428571428,-0.0194436431428571,0.0611490342857142,-0.4429297214285714,-0.1916969657142857,-0.0337820365714285
207,1778428678240,1.0028024,0.0014635,0.06930282,-0.5205946,-0.22005773,-0.014583978
208,1778428678250,1.0028024,0.0014635,0.06930282,-0.5205946,-0.22005773,-0.014583978
209,1778428678260,0.974790125,0.0104884165,0.066741696,-0.4837146625,0.11924884375,0.0291679563749999
210,1778428678270,0.9737459,0.011708,0.07905949,-0.4381302,0.32000762,0.040392276
211,1778428678280,0.9737459,0.011708,0.07905949,-0.4381302,0.32000762,0.040392276
212,1778428678290,0.9662115555555556,0.0119248151111111,0.1017098622222222,-0.2854098977777777,0.4188291211111111,-0.0322985485555555
213,1778428678300,0.9547203,0.011220166,0.10714039,-0.14973393,0.4281276,-0.096437514
214,1778428678310,0.9530090825,0.0081712076875,0.100184955,-0.1257581754999999,0.42377530875,-0.09628480225
215,1778428678320,0.94746384,-0.019523497,0.0505212423333333,0.0567324402222222,0.3884224988888889,-0.0911435044444444
216,1778428678330,0.9603304,-0.03222749,0.048569907,0.10804361,0.3713188,-0.0768904
217,1778428678340,0.9820118622222224,-0.0428243117777777,0.0686286711111111,0.1358710911111111,0.2249190582222222,-0.0825237711111111
218,1778428678350,0.98679533,-0.060521827,0.0905540625,0.188217315,0.018993533,-0.084831415
219,1778428678360,0.9807380644444444,-0.0627170755555555,0.0947819494444444,0.2626558333333333,-0.1561223788888888,-0.0572075416666666
220,1778428678370,0.97667277,-0.05905832,0.09518848,0.2851893,-0.19684553,-0.043904647
221,1778428678380,0.9740168,-0.0579471444444444,0.09296274,0.2943520111111111,-0.1975921211111111,-0.0358957606666666
222,1778428678390,0.95195598,-0.0483530918888888,0.0742895611111111,0.3676537,-0.20356485,0.02817533
223,1778428678400,0.9411143675,-0.04039869825,0.063265886,0.366126595,-0.1510319885,0.035658208
224,1778428678410,0.9293496433333333,-0.0346937577777777,0.0480820735555555,0.3597127,-0.090558104,0.045279052
225,1778428678420,0.9429627875,-0.0419841575,0.02666695125,0.3501681875,-0.0390942236875,0.0560452345
226,1778428678430,0.96094022125,-0.04747228125,0.003658750125,0.333446225,0.0083991494375,0.0691020949999999
227,1778428678440,0.9872154477777778,-0.0552098573333333,-0.0450839316666666,0.2655743288888889,-0.0825492183333333,0.0752105688888888
228,1778428678450,1.00388098125,-0.06128406,-0.07785134125,0.203641205,-0.1829487525,0.069407518
229,1778428678460,1.016461775,-0.0600339875,-0.097383729,0.13530267,-0.27976805,0.060168455125
230,1778428678470,1.0246736666666667,-0.044504629,-0.1063273473333333,0.05116694,-0.3457565222222222,0.0510481654444444
231,1778428678480,1.028017275,-0.039849886125,-0.10906124625,-0.03268032875,-0.36635564375,0.042224815625
232,1778428678490,1.0204186222222225,-0.0474858311111111,-0.1071674982222222,-0.0676767877777777,-0.33211425,0.0307544625555555
233,1778428678500,1.006636475,-0.045520946,-0.1143969195,-0.107738185,-0.3035910875,0.002367033
234,1778428678510,0.9955086555555556,-0.0516595183333333,-0.13123734,-0.14484715,-0.2701472,-0.012751437
235,1778428678520,0.9853929,-0.0507041772499999,-0.143933705,-0.224973135,-0.209367895,-0.04253024125
236,1778428678530,0.9713067,-0.03222749,-0.1422644,-0.29946786,-0.18951537,-0.06161922
237,1778428678540,0.97505687875,-0.0038150090499999,-0.1346724875,-0.464167555,-0.22357009625,-0.07742489125
238,1778428678550,0.9776485155555554,0.0140387604444444,-0.1207726222222222,-0.6086923244444444,-0.2577945111111111,-0.0821165333333333
239,1778428678560,0.9617668444444444,0.0174806944444444,-0.0907674904444444,-0.7075138,-0.2518218,-0.07017108
240,1778428678570,0.9450178666666668,0.0023036573333333,-0.0444436502222222,-0.7378526066666667,-0.2163247666666666,-0.0441082651111111
241,1778428678580,0.9488392222222222,-0.0091333245555555,-0.0017616203333333,-0.7132150744444444,-0.2164605133333333,-0.0202173473333333
242,1778428678590,0.9469827666666668,-0.0297171814444444,0.0125481584444444,-0.6608179466666666,-0.2556226166666666,-0.0163486481111111
243,1778428678600,0.940786575,-0.048569907,-0.001067135,-0.4604261174999999,-0.3906368325,-0.01473669025
244,1778428678610,0.9359996875,-0.046649063625,-0.02656023875,-0.3512371675,-0.42217180125,-0.013591351375
245,1778428678620,0.9337131,-0.0318412908888888,-0.0662470922222222,-0.2228744144444444,-0.3272953522222221,-0.0453978272222222
246,1778428678630,0.9234686,-0.027074749,-0.09226148,-0.17600037,-0.24143738,-0.06711684
247,1778428678640,0.9081018,-0.025123417,-0.10348164,-0.1283542764444444,0.0420805855555555,-0.1175626477777777
248,1778428678650,0.860263585,-0.028309579,-0.0573509069999999,-0.059023117,0.5683170200000001,-0.173786045
249,1778428678660,0.85379981875,-0.0258856575,-0.0079349124999999,-0.01763821425,0.778295775,-0.18417045
250,1778428678670,0.8609411922222221,-0.021762787,0.0437491644444444,0.0341310897777777,0.9523702888888887,-0.1847473511111111
251,1778428678680,0.88786050125,-0.011951916375,0.10836378875,0.092772424,1.0511918,-0.18203248
252,1778428678690,0.917827975,0.0061284063125,0.16537550375,0.20417569875,1.0266815125,-0.1764585025
253,1778428678700,0.9323037444444444,0.0084015743888888,0.1892081911111111,0.3365683533333333,0.7947716911111111,-0.1587354488888888
254,1778428678710,0.9239564,-0.008293167,0.17327231,0.43270892375,0.57503634,-0.13934953125
255,1778428678720,0.8893125475,-0.03228846875,0.1511292475,0.539301805,0.396516225,-0.1014770015
256,1778428678730,0.88496394375,-0.0428988443749999,0.13805684,0.6002338125000001,0.3597126775,-0.072003617375
257,1778428678740,0.90719088125,-0.03862649066625,0.1157346475,0.62367503,0.4101075724999999,-0.050013119
258,1778428678750,0.9520373,0.00024391667,0.07003457,0.58572614,0.52341974,-0.015805673
259,1778428678760,0.9720926022222224,0.0268003446666666,0.1042947027777777,0.4639639411111111,0.6187798,0.0168407207777777
260,1778428678770,0.9527956875,0.0033538543749999,0.14598793375,0.4141544325,0.6547518775,0.022983128125
261,1778428678780,0.9120045,-0.015854584,0.1908343,0.41529977,0.67307734,0.02145601
262,1778428678790,0.86480656875,-0.008232187625,0.2610327624999999,0.5225034749999999,0.6549046199999999,0.06177192725
263,1778428678800,0.8631906444444444,-0.0051222502666666,0.2934487022222222,0.5923097222222222,0.5453423666666667,0.1178341322222222
264,1778428678810,0.8792625,0.0011586042625,0.30870703,0.61939911875,0.37597648,0.16271444125
265,1778428678820,0.9188341333333332,0.0262210425555555,0.3132195,0.5509757533333333,0.1975666711111111,0.1740999544444444
266,1778428678830,0.92410884375,0.026605973125,0.34426931875,0.47195586375,0.16500511875,0.1207186875
267,1778428678840,0.9021563333333334,0.0056913886666666,0.38771571,0.4543939933333333,0.1646487933333333,-0.00012726
268,1778428678850,0.882520975,-0.01634241725,0.4054809725,0.473482975,0.1715717225,-0.108520835
269,1778428678860,0.8726423612499999,-0.00390266675,0.4122496625,0.4938700075,0.2295258574999999,-0.15530792
270,1778428678870,0.87200211375,0.021498967375,0.4148107875,0.4681380599999999,0.2421245924999999,-0.110544264625
271,1778428678880,0.8949073875,0.0727862575,0.4024929925,0.358032845,0.13444365975,0.053220068625
272,1778428678890,0.9511259722222224,0.1036442599999999,0.41527829,0.19498753,-0.0524819606666666,0.19228963
273,1778428678900,0.980941375,0.096705335,0.422982005,0.05383091,-0.20722993375,0.21662171125
274,1778428678910,0.999601,0.07344941,0.4180427,-0.08192989,-0.30985227,0.15889664
275,1778428678920,0.999601,0.07344941,0.4180427,-0.08192989,-0.30985227,0.15889664
276,1778428678930,0.98332715,0.03895806725,0.37683601125,-0.2197904875,-0.152854980625,-0.0221813937499999
277,1778428678940,0.9464271,0.029544408,0.34093451,-0.36910444,0.14897038,-0.24861483
278,1778428678950,0.9464271,0.029544408,0.34093451,-0.36910444,0.14897038,-0.24861483
279,1778428678960,0.8800894699999999,0.121619141,0.46875447625,-0.511890005,0.239223062,0.0115201957124999
280,1778428678970,0.87026423,0.14104481,0.5776557,-0.64398575,0.057954133,0.16867019
281,1778428678980,0.87026423,0.14104481,0.5776557,-0.64398575,0.057954133,0.16867019
282,1778428678990,0.8933186828571429,0.0994657328571428,0.5514781657142857,-0.7352637542857143,-0.1774511277142857,0.1828069457142857
283,1778428679000,0.88956416,0.04198416,0.4978644,-0.74111044,-0.2701472,0.06177193
284,1778428679010,0.88956416,0.04198416,0.4978644,-0.74111044,-0.2701472,0.06177193
285,1778428679020,0.8767356275,-0.0491758875,0.5286093375,-0.677735035,0.0533536895,-0.1801808475
286,1778428679030,0.8692885,-0.05783874,0.5698503,-0.6525376,0.24670593,-0.2987043
287,1778428679040,0.8663615222222222,-0.0269290777777777,0.6041206111111111,-0.6528090666666667,0.2410046944444444,-0.2737274377777778
288,1778428679050,0.8639833625,0.01835854125,0.657942375,-0.65039959125,0.184237265,-0.199966575625
289,1778428679060,0.8729473,0.06491233,0.7348295,-0.63115793,-0.16324893,0.097811915
290,1778428679070,0.8729473,0.06491233,0.7348295,-0.63115793,-0.16324893,0.097811915
291,1778428679080,0.8729473,0.06491233,0.7348295,-0.63115793,-0.16324893,0.097811915
292,1778428679090,0.8729473,0.06491233,0.7348295,-0.63115793,-0.16324893,0.097811915
293,1778428679100,0.8729473,0.06491233,0.7348295,-0.63115793,-0.16324893,0.097811915
294,1778428679110,0.8729473,0.06491233,0.7348295,-0.63115793,-0.16324893,0.097811915
295,1778428679120,0.8729473,0.06491233,0.7348295,-0.63115793,-0.16324893,0.097811915
296,1778428679130,0.8729473,0.06491233,0.7348295,-0.63115793,-0.16324893,0.097811915
297,1778428679140,0.8729473,0.06491233,0.7348295,-0.63115793,-0.16324893,0.097811915
298,1778428679150,0.8729473,0.06491233,0.7348295,-0.63115793,-0.16324893,0.097811915
299,1778428679160,0.8729473,0.06491233,0.7348295,-0.63115793,-0.16324893,0.097811915
300,1778428679170,0.8729473,0.06491233,0.7348295,-0.6259657224999999,-0.23059484,0.14484715375
301,1778428679180,0.9279199875,-0.128925195,0.64087575,-0.0558161678749999,-0.1750077425,0.209749675
302,1778428679190,0.9259348111111112,-0.1766058344444444,0.6570064677777778,-0.0011623066111111,-0.1236117288888888,0.1645978811111111
303,1778428679200,0.901626525,-0.190041575,0.65083065625,0.017790926875,-0.062525945,0.1152210574999999
304,1778428679210,0.8827039,-0.18424855,0.6576908,0.053067356,0.08238802,0.01901262
305,1778428679220,0.86733715,-0.14345731,0.6846093,0.059481253,0.1075091125,-0.041384899875
306,1778428679230,0.8594098875,-0.09774579,0.72729475875,0.05894675975,0.0402300175,-0.055587098875
307,1778428679240,0.84636035,-0.075126335,0.73574410625,0.062077353,-0.08674031,-0.0019088974999999
308,1778428679250,0.85284446,-0.0864650722222222,0.7255809222222223,0.07322532,-0.1565296066666666,0.0782648046666666
309,1778428679260,0.90718705375,-0.15453263625,0.717766735,0.0866639575,-0.1664558725,0.1556896975
310,1778428679270,0.940220858888889,-0.1950384711111111,0.7242868377777777,0.1092653033333333,-0.12659809,0.1851630766666666
311,1778428679280,0.9560096142857144,-0.2213892114285714,0.7347945942857143,0.1279397757142857,-0.1211004651428571,0.1648305807142857
312,1778428679290,0.9750737777777778,-0.2328184511111111,0.7427160666666667,0.1480880444444444,-0.0813953962222222,0.0914319607777777
313,1778428679300,0.97886808,-0.2029691599999999,0.7619956866666667,0.18867544,-0.0101129151111111,-0.0172988545555555
314,1778428679310,0.9619082975,-0.159483385,0.8109695699999999,0.24281178,0.053678203625,-0.12233170875
315,1778428679320,0.9385642511111112,-0.1346216777777777,0.8673405333333333,0.3079942755555555,0.0551544154311111,-0.1597535333333333
316,1778428679330,0.9094128225,-0.1264403075,0.9363465,0.3693335199999999,-0.0183254169199999,-0.14148749625
317,1778428679340,0.90346736,-0.13665432,0.943988,0.3923493857142857,-0.0884637705714285,-0.1082181362857142
318,1778428679350,0.8989684777777778,-0.1877243644444444,0.9107509666666668,0.3996892444444444,-0.1664389144444444,-0.0594473187777777
319,1778428679360,0.9012720777777778,-0.2226823622222222,0.88067467,0.3877437755555555,-0.1189964344444444,-0.0103759198333333
320,1778428679370,0.930122825,-0.2231227774999999,0.9214638325,0.3959817375,-0.0288625348749999,0.007711946625
321,1778428679380,0.9554521175,-0.2003699175,0.973570505,0.4006394575,-0.0113006745,0.0033596599374999
322,1778428679390,0.96496487,-0.17107704,1.0030463,0.38781166,-0.059404895,-0.01641652
323,1778428679400,0.95621428375,-0.1443719875,1.009662525,0.339249295,-0.140036735,-0.0206924509249999
324,1778428679410,0.8976134000000001,-0.12153149,1.0005767,0.26136628,-0.24449162,-0.0060321167
325,1778428679420,0.8547754562500001,-0.1132078275,0.98478307375,0.20448112125,-0.2925194825,0.041995749375
326,1778428679430,0.8446258722222222,-0.1042134022222222,0.9760766344444444,0.1726576755555555,-0.3133815944444444,0.0823371222222222
327,1778428679440,0.8448969,-0.09811548,0.96862364,0.14958122,-0.3208475,0.1026987
328,1778428679450,0.846665225,-0.111443235,0.959289965,0.099568101625,-0.28999972875,0.12400199875
329,1778428679460,0.8475256777777778,-0.15367766,0.9349326611111112,0.0096972004444444,-0.2003069977777777,0.1582857977777777
330,1778428679470,0.8572552666666666,-0.1845839433333333,0.9129801,-0.0560706866666666,-0.1310776406666666,0.1821088333333333
331,1778428679480,0.8651419499999999,-0.2183054099999999,0.88918293,-0.0826934455,-0.015252094,0.1923405299999999
332,1778428679490,0.8810041325,-0.2259887924999999,0.882589545,-0.058335913625,0.07643225875,0.19928891875
333,1778428679500,0.90737003,-0.2084268,0.8961498000000001,-0.038559735,0.0988809,0.21265121
334,1778428679510,0.9285907325,-0.18571968,0.924139275,-0.0220668584999999,0.0878856495,0.1787491775
335,1778428679520,0.9281842466666668,-0.1466582822222222,0.9683254444444443,-0.0139222273555555,0.0544756957777777,0.0732422842222222
336,1778428679530,0.934780135,-0.152600365,0.964503705,0.006795675675,0.0003054229999999,0.0188599079999999
337,1778428679540,0.92517596,-0.16497913,0.92712724,0.021914145,-0.029473381,-0.014583978
338,1778428679550,0.8842627025,-0.1637595625,0.89907304875,0.052914644625,-0.026190076,-0.0522274403749999
339,1778428679560,0.85270226,-0.15083197,0.87684995,0.13797513,0.037108973,-0.077501245
340,1778428679570,0.8507813750000001,-0.12348281725,0.8384521125000001,0.2515927125,0.11275858325,-0.08956547925
341,1778428679580,0.8461164125,-0.1109820845,0.7912580650000001,0.3203893775,0.1837886625,-0.10109522275
342,1778428679590,0.84172595,-0.09177365,0.75263536,0.3415908822222222,0.3154601822222223,-0.1004419544444444
343,1778428679600,0.8361768375,-0.038405443125,0.70851695,0.3129828725,0.3452050625,-0.0535254892499999
344,1778428679610,0.8462248222222222,-0.0313161912222222,0.7101091777777778,0.2484027277777777,0.2948949944444444,0.0170443356666666
345,1778428679620,0.8558731312500001,-0.050185856125,0.70220562125,0.21685077625,0.2113531562499999,0.04734066375
346,1778428679630,0.8645999500000001,-0.0622021403333333,0.6796941422222222,0.2154848455555555,0.1611194488888888,0.0262749166666666
347,1778428679640,0.854161825,-0.07610200025,0.634453925,0.217690685,0.24288814,-0.05505261
348,1778428679650,0.8033090374999999,-0.076768963,0.5705515624999999,0.2198286549999999,0.4524087375,-0.14638382375
349,1778428679660,0.7753996875,-0.0174095525625,0.5381297125,0.2247154375,0.7257629,-0.19852536
350,1778428679670,0.7688219977777778,0.0019039057222222,0.5229065111111111,0.2162993211111111,0.8177802333333334,-0.1573101366666666
351,1778428679680,0.7894363400000001,0.040246252625,0.5089931,0.2267006875,0.7453099875,-0.074370650625
352,1778428679690,0.8212140625,0.06716855075,0.5087796925,0.2341835725,0.4010784865,0.013362284
353,1778428679700,0.8253733200000001,0.0580013543333333,0.4752513233333333,0.2074080933333333,-0.2009178426666666,0.0961829923333333
354,1778428679710,0.8116327249999999,0.05588740925,0.4344689524999999,0.17141901,-0.4895940725,0.12377292875
355,1778428679720,0.8020183555555556,0.0341212313333333,0.3875734288888888,0.1799199777777777,-0.4826541666666666,0.1227887861111111
356,1778428679730,0.7968148,-0.011220166,0.3038287,0.13431004,-0.37948886,0.107585475
357,1778428679740,0.7849170833333333,-0.0096753616555555,0.2438726255555555,0.0394250982222222,-0.3531545511111111,0.1111148116666666
358,1778428679750,0.7751366749999999,-0.0069859261375,0.202027785,-0.1487508599999999,-0.3701734425,0.15423893
359,1778428679760,0.79459285625,-0.03119084425,0.22519987375,-0.28923618375,-0.39040775125,0.2274642499999999
360,1778428679770,0.840357725,-0.03667896775,0.3062450312499999,-0.3617742862499999,-0.2742704187499999,0.31389913875
361,1778428679780,0.8891846377777779,-0.0303032588888888,0.4007246144444444,-0.3562087933333333,-0.3158249977777778,0.3376034044444445
362,1778428679790,0.9057540175,-0.019688649,0.42106114875,-0.37696910875,-0.42766943,0.28915982375
363,1778428679800,0.906028485,0.05469831525,0.4160875337499999,-0.3408527725,-0.4789042599999999,0.2138728925
364,1778428679810,0.8998899155555556,0.0353374274444444,0.3246666277777777,-0.2896943177777778,-0.4271349444444444,0.1304583077777777
365,1778428679820,0.88736886,0.0026830835,0.26772904,-0.2597628,-0.4656183,0.101477005
366,1778428679830,0.8744108,0.0031709166,0.11250656,-0.2145601,-0.6610894,0.042835664
367,1778428679840,0.8512014244444445,-0.0465880837111111,0.0043329072222222,-0.2649210611111111,-0.9301337,-0.0207603228888888
368,1778428679850,0.8282190300000001,-0.079608303125,-0.0533262812499999,-0.35742199625,-1.07707635,-0.0540599825
369,1778428679860,0.8282533449999999,-0.07070153725,-0.02813044875,-0.50654507,-1.0899042,-0.05245651
370,1778428679870,0.85538524,-0.017318083,0.10640865,-0.5350512811111111,-1.120039377777778,-0.0874784144444444
371,1778428679880,0.8470921,-0.0019513334,0.25257573,-0.48638713,-1.1742011,-0.12759072
372,1778428679890,0.8417259133333334,-0.0679240127777777,0.2581281866666666,-0.3781314155555556,-1.316189211111111,-0.1538656299999999
373,1778428679900,0.8612393,-0.095920235,0.17156488,-0.3281777,-1.3525685,-0.19791451
374,1778428679910,0.88197213,-0.09811548,0.009024917,-0.21089502,-1.0654703,-0.26877278
375,1778428679920,0.904443,-0.09470064,-0.0190255,-0.1546207,-0.80769277,-0.29503924
376,1778428679930,0.9288347,-0.072229825,-0.051252995,-0.09903361,-0.46500748,-0.40010494
377,1778428679940,0.9066383,-0.045886826,-0.0612535769999999,-0.06421532,-0.21822518,-0.4043809
378,1778428679950,0.91371185,-0.040398698,-0.0423347885,-0.057496,-0.13728792,-0.41843038
379,1778428679960,0.9207854,-0.03491057,-0.023416,-0.05077668,-0.05635066,-0.43247986
380,1778428679970,0.9207854,-0.03491057,-0.023416,-0.05077668,-0.05635066,-0.43247986
381,1778428679980,0.9207854,-0.03491057,-0.023416,-0.05077668,-0.05635066,-0.43247986
382,1778428679990,0.9207854,-0.03491057,-0.023416,-0.05077668,-0.05635066,-0.43247986
383,1778428680000,0.832830575,0.04734269875,0.023911455875,-0.05558709925,-0.54220330875,-0.61367241
384,1778428680010,0.8596538,0.0168454945,0.0344074954999999,0.12514733,-0.8174663,-0.37200597
385,1778428680020,0.92322457,-0.006097917,0.023903834,0.12514733,-0.8174663,-0.37200597
386,1778428680030,0.92322457,-0.006097917,0.023903834,0.12514733,-0.8174663,-0.37200597
387,1778428680040,0.92322457,-0.006097917,0.023903834,0.12514733,-0.8174663,-0.37200597
388,1778428680050,0.92322457,-0.006097917,0.023903834,0.12514733,-0.8174663,-0.37200597
389,1778428680060,0.9738576388888888,-0.0141471674444444,-0.0643736755555555,0.6605889088888888,-0.7571960866666667,-0.0386954790444444
390,1778428680070,0.94911027,-0.026830835,-0.114701815,0.8428929,-0.5095993,0.0031305922
391,1778428680080,0.96225123625,-0.03487246175,-0.1426950643749999,0.921692175,-0.2489202549999999,0.01550024905
392,1778428680090,0.9708188,-0.028050419,-0.1688818,1.0592684666666663,0.3897035777777777,0.0587176955555555
393,1778428680100,1.02611,-0.0408255535555555,-0.18954358,1.0744039333333335,0.6321505444444444,0.1104360928888888
394,1778428680110,1.1285075777777775,-0.0572153975555555,-0.2236038377777778,1.063273,1.2442195,0.2289404577777777
395,1778428680120,1.1392128,-0.042715907,-0.22915971,1.0328664,1.4708438,0.25602135
396,1778428680130,1.1392128,-0.042715907,-0.22915971,1.0328664,1.4708438,0.25602135
397,1778428680140,1.1434546625,-0.0084227475625,-0.1639920375,0.8526664500000001,1.4412941125,0.2656421925
398,1778428680150,1.1804652,-0.00512225,-0.14717323,0.6480326,1.1611443,0.2352525399999999
399,1778428680160,1.208603688888889,-0.0190593784444444,-0.1401673944444444,0.5049585911111111,0.9272576644444444,0.2185560577777777
400,1778428680170,1.264674022222222,-0.0556976966666666,-0.1454928988888889,0.2059827866666666,0.4522899488888889,0.1769505855555555
401,1778428680180,1.2668422,-0.05417999,-0.17717497,0.08055548,0.29862794,0.13079767
402,1778428680190,1.2352753333333333,-0.0547220271111111,-0.1846550855555555,-0.0219480844444444,0.2127020966666666,0.1060922908888888
403,1778428680200,1.1564013,-0.067778344,-0.2002937,-0.24128467,0.05535803125,0.050318543
404,1778428680210,1.1150346,-0.066863656,-0.20891462,-0.28664008,0.08238802,0.023288552
405,1778428680220,1.1150346,-0.066863656,-0.20891462,-0.28664008,0.08238802,0.023288552
406,1778428680230,1.0141940675,-0.06600994925,-0.0577129687499999,-0.36528665625,0.14599249125,0.0213796544999999
407,1778428680240,0.99203956,-0.07320549,-0.018537667,-0.40819868,0.12942326,0.031840414
408,1778428680250,0.99203956,-0.07320549,-0.018537667,-0.40819868,0.12942326,0.031840414
409,1778428680260,1.0401521375,-0.11113073,0.070587201,-0.6706339425,-0.20463382875,0.1516428287499999
410,1778428680270,1.0232915,-0.08442566,0.1086039,-0.73316944,-0.3617743,0.16500512
411,1778428680280,0.9980803875,-0.060735251125,0.13893721875,-0.76149748625,-0.45744824375,0.1815743474999999
412,1778428680290,0.9675395466666666,-0.0548575388888888,0.1842485466666666,-0.73378026,-0.52242714,0.1802763
413,1778428680300,0.9569156,-0.06418057,0.19205388,-0.6696413,-0.5517478,0.1802763
414,1778428680310,0.9576473,-0.065887995,0.15522248,-0.5493044,-0.55724543,0.18394138
415,1778428680320,0.9573763,-0.06778512,0.14707498,-0.5255492166666667,-0.5457071911111111,0.1808871466666666
416,1778428680330,0.9571595,-0.06930282,0.14055698,-0.50654507,-0.5364766,0.17844376
417,1778428680340,0.9697821875,-0.08590821,0.10823039875,-0.3281013399999999,-0.3875825825,0.13453910625
418,1778428680350,0.987893,-0.10348164,0.0690589,-0.2677038,-0.32878855,0.10514209
419,1778428680360,1.011410666666667,-0.1138074499999999,0.0165863306666666,-0.176780887,-0.3770454744444445,0.0507766807777777
420,1778428680370,1.02746855,-0.1259524725,-0.08153295875,-0.012216945125,-0.5019637325,-0.019776180625
421,1778428680380,1.0282510222222223,-0.1369795399999999,-0.1771715733333333,0.2348962222222222,-0.6331941,-0.1094689222222222
422,1778428680390,1.0310968,-0.13982524,-0.22598879,0.33466795,-0.65559185,-0.1440836
423,1778428680400,1.0293284,-0.1416546,-0.2658768099999999,0.39208758,-0.6232169,-0.16248538
424,1778428680410,1.0226511625,-0.137386055,-0.30072258,0.526474,-0.53892,-0.21257484
425,1778428680420,1.0100047222222222,-0.1234286122222222,-0.3222342466666666,0.5452066522222222,-0.5393272333333333,-0.2477324966666666
426,1778428680430,0.9993571,-0.11640923,-0.3421541,0.50937027,-0.5425851,-0.27488127
427,1778428680440,0.9903017,-0.10896977075,-0.37456071,0.421637315,-0.50173466,-0.2829750037499999
428,1778428680450,0.9780821,-0.0990098386666666,-0.4018628622222222,0.3371113322222222,-0.5087169922222222,-0.2800395366666666
429,1778428680460,0.964416,-0.0966519805,-0.4189573625,0.28854898125,-0.552816765,-0.28244050125
430,1778428680470,0.9547203,-0.09299323,-0.4275554,0.27785915,-0.598783,-0.29259583
431,1778428680480,0.90517477625,-0.0935420399999999,-0.429784995,0.29351210625,-0.69628952625,-0.28786176125
432,1778428680490,0.86587375,-0.09884723,-0.44100136,0.30412558,-0.80341685,-0.27671382
433,1778428680500,0.8551718500000001,-0.1047012275,-0.45087996625,0.26610034,-0.8785510625,-0.3028275375
434,1778428680510,0.83516685,-0.09737991625,-0.441946495,0.1646996875,-0.935741675,-0.33107922375
435,1778428680520,0.7956028500000001,-0.03947639075,-0.43972077,0.02779355125,-0.922150325,-0.330010235
436,1778428680530,0.8402625,-0.014391083,-0.4388061,-0.17477867,-0.7484406,-0.26266432
437,1778428680540,0.89194912,0.0203839804444444,-0.4488879955555556,-0.4107099311111111,-0.4719304116666667,-0.2097836122222222
438,1778428680550,0.9154231,0.051588376,-0.423218305,-0.613061595,-0.048171036875,-0.13431004125
439,1778428680560,0.95748468,0.0636114346666666,-0.3322246733333334,-0.7338481511111111,0.4423128,-0.0692208733333333
440,1778428680570,0.980148615,0.0443623445,-0.25644028,-0.7550072274999999,0.764551725,-0.0829988725
441,1778428680580,0.9726888266666668,0.0243306873333333,-0.1917489966666666,-0.7250247833333333,0.9255608866666668,-0.1559187633333333
442,1778428680590,0.9487977175,0.00963470825,-0.147958324,-0.710262655,0.95269267,-0.2116585775
443,1778428680600,0.9184072275,0.0148865389999999,-0.0965833785,-0.7357655175,0.92276115,-0.2521272025
444,1778428680610,0.9062046,0.0452634817777777,-0.0524691878888888,-0.77653956,0.8893172999999999,-0.26083177
445,1778428680620,0.9260295975,0.0774549787499999,0.036305468125,-0.8273926025,0.778601205,-0.229678565
446,1778428680630,0.9395670266666666,0.096733285,0.13463183,-0.8936865222222222,0.5378764711111111,-0.16280776
447,1778428680640,0.945306695,0.09176602775,0.2082286125,-0.90802445,0.2948101625,-0.08528954375
448,1778428680650,0.9672413533333332,0.0655356668888888,0.2501805977777778,-0.8498412222222221,0.0831176553333333,-0.0300587754444444
449,1778428680660,0.97862417,0.048325993,0.24013597,-0.7600467,-0.066124216,-0.011529742
450,1778428680670,0.947212325,0.0011586039999999,0.181252945,-0.6042806625,-0.1879882474999999,0.02741177025
451,1778428680680,0.8963836000000001,-0.0411507746666666,0.1114394316666666,-0.4384016788888888,-0.2457811788888889,0.0247817335555555
452,1778428680690,0.8827115649999999,-0.0715590492499999,0.05704601475,-0.2383640625,-0.1791309625,-0.004046863375
453,1778428680700,0.92591532,-0.06613190275,0.0314957405,-0.18837002,0.0620200825,0.0092390645
454,1778428680710,0.9924257888888888,-0.0190695402222222,0.0498233688888888,-0.2123288166666666,0.4022683566666666,0.0206415468333333
455,1778428680720,1.0229865500000002,0.03850834425,0.128986185,-0.28282228,0.563430225,0.07872294125
456,1778428680730,1.0404739333333335,0.0528248976666666,0.2119229233333333,-0.27238697,0.5336005333333333,0.1476977766666666
457,1778428680740,1.039725325,0.0190369339375,0.22202515,-0.21413060125,0.3754419875,0.1853921412499999
458,1778428680750,1.0231694875,-0.0035672811874999,0.20527493875,-0.167830285,0.3124483624999999,0.181956125
459,1778428680760,0.9923369125,-0.018145114,0.19174900625,-0.0950631045,0.2998496375,0.1622563
460,1778428680770,0.9220863366666668,-0.0387048356666666,0.1883138366666666,-0.015347538,0.30901235,0.1466797
461,1778428680780,0.8826658225,-0.0618633677499999,0.1897976549999999,0.1775274875,0.3618506375,0.1249946199999999
462,1778428680790,0.84119614375,-0.0446558061249999,0.1973095275,0.37086063125,0.38200859375,0.085365903625
463,1778428680800,0.8208100333333334,-0.0089436109,0.2254196533333333,0.5643464833333334,0.2672711266666667,0.02573194
464,1778428680810,0.83434744375,0.0055186143125,0.25420309,0.6623874812499999,0.04059270775,-0.001450762125
465,1778428680820,0.8552226433333333,0.017480694,0.2828518599999999,0.6984614222222222,-0.0924585202222222,-0.0109188944888888
466,1778428680830,0.88172823,0.01975725,0.2891937,0.700031005,-0.1249946174999999,-0.0041995746125
467,1778428680840,0.9122483999999998,0.010488417,0.2774857,0.68773764,-0.09666658,0.012904149
468,1778428680850,0.9122484,0.010488417,0.2774857,0.68773764,-0.09666658,0.012904149
469,1778428680860,0.8931245999999999,-0.0196115757777777,0.2411522833333333,0.7029409622222222,0.0491647222222222,0.0012980504444444
470,1778428680870,0.87782556,-0.04369157,0.21208555,0.7243885,0.24548425,-0.019470757
471,1778428680880,0.87782556,-0.04369157,0.21208555,0.7243885,0.2454842499999999,-0.019470757
472,1778428680890,0.843036935,-0.0505822185,0.3825832925,0.512500845,0.47165045375,-0.238755374625
473,1778428680900,0.8675925062500001,-0.0106789759999999,0.458441375,0.3597127,0.5252523,-0.3206948
474,1778428680910,0.9025187777777778,0.0482175835555555,0.4577197888888889,0.3205506012222222,0.5254559111111111,-0.3309434611111111
475,1778428680920,0.9174010375,0.07271766,0.369587115,-0.1645660625,0.452408755,-0.3923166425
476,1778428680930,0.9107849,0.07271766,0.30529222,-0.24388076,0.46294588,-0.35245886
477,1778428680940,0.9162323466666668,0.07141677,0.3320620666666667,-0.3063908,0.4865652866666667,-0.27098711
478,1778428680950,0.934635305,0.0599120325,0.4101230125,-0.43141088,0.5338041,-0.10804361
479,1778428680960,0.9571595,0.03320316,0.48368677,-0.46867257,0.48860145,0.029397024
480,1778428680970,0.9571595,0.03320316,0.48368677,-0.46867257,0.48860145,0.029397024
481,1778428680980,0.9571595,0.03320316,0.48368677,-0.46867257,0.48860145,0.029397024
482,1778428680990,0.9571595,0.03320316,0.48368677,-0.46867257,0.48860145,0.029397024
483,1778428681000,0.9571595,0.03320316,0.48368677,-0.46867257,0.48860145,0.029397024
484,1778428681010,0.9571595,0.03320316,0.48368677,-0.46867257,0.48860145,0.029397024
485,1778428681020,0.9701568185714284,-0.0202799297857142,0.5028124571428572,-0.1440726851428571,0.3057835828571428,0.250436478
486,1778428681030,0.9739898,-0.021464668,0.4988401,-0.110639706,0.31023404,0.27373594
487,1778428681040,0.9739898,-0.021464668,0.4988401,-0.110639706,0.31023404,0.27373594
488,1778428681050,0.989024975,-0.06366605925,0.536727175,0.0200816065,0.191347895,0.23899399625
489,1778428681060,0.9727702,-0.08713923,0.5278661,0.1660741,0.062230065,0.08681667
490,1778428681070,0.9586154,-0.078472565625,0.5308274125,0.1638597775,0.067727690125,0.05634111875
491,1778428681080,0.8539454333333333,-0.0163695170333333,0.5530200999999999,0.14727357,0.115577392,-0.1536535322222222
492,1778428681090,0.8092545,-0.0048783333,0.5647281,0.13858597,0.190508,-0.12697987
493,1778428681100,0.8092545,-0.0048783333,0.5647281,0.13858597,0.190508,-0.12697987
494,1778428681110,0.8092545,-0.0048783333,0.5647281,0.13858597,0.190508,-0.12697987
495,1778428681120,0.9013771155555556,-0.085699447,0.7110305888888889,0.25953373,0.31145576,0.0678804
496,1778428681130,0.9071261,-0.0895784,0.7158039,0.25953373,0.31145576,0.0678804
497,1778428681140,1.000620722222222,-0.0803434395555555,0.7224642,0.4358649766666666,0.1917127235555555,0.0038093108444444
498,1778428681150,1.0567919,-0.066802675,0.6776538625,0.6400916,0.029167956,-0.09216158
499,1778428681160,1.0421543333333334,-0.0802011555555555,0.6280955844444445,0.6582812666666666,0.0288285964444444,-0.1106990966666666
500,1778428681170,1.0036827874999998,-0.0875622725,0.61381634875,0.8105179250000001,0.02741177025,-0.2695363475
501,1778428681180,0.9483785,-0.07515682,0.61402977,0.8575532,0.036498122,-0.34329617
502,1778428681190,0.9483785,-0.07515682,0.61402977,0.8575532,0.036498122,-0.34329617
503,1778428681200,0.966306405,-0.018232772,0.5832657375,0.92100495375,0.2419718725,-0.38796436625
504,1778428681210,0.9546084944444444,0.0171046566666666,0.5887673833333333,0.8950185333333334,0.4079017422222222,-0.3937928788888889
505,1778428681220,0.91663885,0.075888574,0.59765685,0.8777112,0.42690587,-0.37139514
506,1778428681230,0.9445706777777778,0.1039559273333333,0.6001129333333333,0.84621859,0.4448919255555555,-0.3119393233333333
507,1778428681240,0.97780095,0.125312185,0.60326690625,0.75745059125,0.36643200375,-0.22059221
508,1778428681250,0.9959423,0.12348281,0.60524875,0.70361966,0.30534726,-0.18508671
509,1778428681260,1.0218007333333334,0.1283882477777777,0.5607712266666667,0.5665184177777777,0.2583799,-0.1470105766666666
510,1778428681270,1.0235354,0.13055639,0.57594824,0.47333026,0.23876493,-0.1220931
511,1778428681280,1.040474,0.11589429,0.5985884322222222,0.4007751888888889,0.2598052144444444,-0.09847367
512,1778428681290,1.049024725,0.107658715,0.60835865625,0.3140518499999999,0.28557108875,-0.075057857375
513,1778428681300,1.046433,0.124919645,0.61985324375,0.24624780375,0.2788517662499999,-0.04558447675
514,1778428681310,1.0321639,0.1508319787499999,0.6102185337499999,0.17065546,0.24685864375,0.025350162375
515,1778428681320,1.0174373,0.16619872,0.62793297,0.08299887,0.18378867,0.12530005
516,1778428681330,1.0490685888888889,0.1675538155555555,0.66883304,0.030058776,0.1103512533333333,0.2052531722222222
517,1778428681340,1.092114,0.15430016,0.708219645,0.005421269825,0.03472284825,0.2567849275
518,1778428681350,1.126095477777778,0.1323180155555555,0.7410086844444445,-0.0161620001333333,-0.0899472613333333,0.27516123
519,1778428681360,1.1516220625,0.101713245,0.73736007625,-0.0634517575,-0.2223484124999999,0.2722088025
520,1778428681370,1.0912967333333332,0.0922614822222222,0.6961686555555556,-0.136091675,-0.32919578,0.2723106155555556
521,1778428681380,1.04069714375,0.097566673125,0.663876425,-0.1550024874999999,-0.35749836125,0.2834331375
522,1778428681390,0.9856164522222222,0.1108804613333333,0.6082299111111111,-0.14484715,-0.30618718,0.30427828
523,1778428681400,0.973014085,0.114092026,0.6143346325,-0.112166825,-0.171800792,0.27770643
524,1778428681410,0.9675937755555556,0.098000298,0.65455379,-0.1001195577777777,-0.1088835264444444,0.2665415066666666
525,1778428681420,0.9913154725,0.06167281,0.6993167250000001,-0.098270055,-0.07543963775,0.2663294137499999
526,1778428681430,1.035186175,0.0182594487499999,0.7714245750000001,-0.09055811,-0.07719582475,0.25586864875
527,1778428681440,1.0911307,-0.03320316,0.8585562,-0.05260922,-0.18035266,0.1906607
528,1778428681450,1.0826126875,-0.09098091875,0.8886379987499999,0.0689493855,-0.3633014049999999,0.09689564375
529,1778428681460,1.007566415,-0.081700653125,0.8281047575,0.2460950925,-0.5503733575,0.0197761802499999
530,1778428681470,0.936883935,-0.053962753125,0.74985702375,0.353451495,-0.5964923325,-0.0058794045
531,1778428681480,0.8959872,-0.0219525,0.6755170666666667,0.3995534977777778,-0.5648470777777779,-0.0124120772222222
532,1778428681490,0.8961498,-0.008781,0.6442754,0.39819607,-0.54991525,-0.01885991
533,1778428681500,0.9020648,-0.004939312425,0.632986625,0.3856737,-0.5322006749999999,-0.047875155
534,1778428681510,0.9403216475,0.0126226883249999,0.5533631000000001,0.3499391149999999,-0.46409121,-0.13618076
535,1778428681520,0.9488663525,0.0150618548749999,0.5447536125000001,0.3122192875,-0.38009971375,-0.2263952699999999
536,1778428681530,0.92469190125,0.0206795605,0.6402050425,0.223951875,-0.20112146875,-0.3907895275
537,1778428681540,0.8516384311111111,0.0348021653333333,0.7559756877777777,0.1594226555555555,-0.1741763144444444,-0.4275251977777777
538,1778428681550,0.7609437725,0.04033771675,0.81072565,0.1378224125,-0.1882936725,-0.3684936
539,1778428681560,0.6916731544444444,0.0388403405555555,0.8274906666666667,0.1600335033333333,-0.1912121611111111,-0.2699860166666666
540,1778428681570,0.65537739375,0.048817634375,0.8198648749999999,0.20608460125,-0.1023073675,-0.094070478
541,1778428681580,0.69090415,0.1065001133333333,0.8152711333333333,0.295370091111111,0.0775012455555555,0.1406390935555555
542,1778428681590,0.7596251025,0.148026925,0.7942193875000001,0.331690065,0.11491563875,0.25212720125
543,1778428681600,0.85123867,0.18132155,0.7470253,0.3365005,0.13736428,0.29755896
544,1778428681610,0.9240952777777776,0.1904819733333333,0.7188901744444444,0.3148493466666666,0.1886754466666666,0.3033280722222222
545,1778428681620,0.9583791,0.19546872,0.70260197,0.29435202,0.23571068,0.30977592
546,1778428681630,0.98051455,0.2119559725,0.6489784125,0.281829655,0.29832252,0.285494735
547,1778428681640,0.97203845,0.2265376125,0.6280549125,0.2474694875,0.3345915625,0.2773246425
548,1778428681650,0.95747459,0.1976029933333333,0.6125560666666666,0.1924084022222222,0.2964560466666666,0.2835773644444444
549,1778428681660,0.94151837,0.16717438,0.5939981,0.13064496,0.25464696,0.277401
550,1778428681670,0.9288347025,0.1353966225,0.6016890625,-0.0249683807499999,0.2045574725,0.2477749149999999
551,1778428681680,0.93151769375,0.100550841875,0.60902942375,-0.19761862875,0.22143213125,0.2214321275
552,1778428681690,0.9260702666666668,0.0811836,0.63793356,-0.38111778,0.3220437666666667,0.23016215
553,1778428681700,0.9107238,0.092383435,0.646470675,-0.460273405,0.3722350375,0.2420482175
554,1778428681710,0.8871249,0.10884781,0.6369579,-0.5041017,0.4299601,0.22547899
555,1778428681720,0.8456251888888889,0.0661556203688888,0.6311581311111111,-0.4618174999999999,0.4617920555555556,0.1983980977777777
556,1778428681730,0.8197429,-0.00048783334,0.64086056,-0.4497363,0.4708869,0.1906607
557,1778428681740,0.8309835,-0.0620361381488888,0.6023623844444445,-0.1274125566666666,0.1892184273333333,0.0561385600444444
558,1778428681750,0.82081013125,-0.072107860625,0.5210936700000001,-0.0229831285,0.026944091375,-7.635582500000035e-05
559,1778428681760,0.80524347,-0.0256891677777777,0.4045629177777778,0.0092220967777777,-0.08499261,-0.02279648
560,1778428681770,0.7945890437500001,0.03571473875,0.2786519349999999,0.003283303875,-0.092772430625,-0.020768807375
561,1778428681780,0.79169255,0.061497495,0.21306121,-0.007406523,-0.09544489,-0.015805673
562,1778428681790,0.7975465,0.035642326,0.19473697,-0.026953636,-0.18707198,-0.010918895
563,1778428681800,0.8086665042857143,-0.0063679658571428,0.1844576228571428,0.0010580739714285,-0.2653477,-0.0473079402857142
564,1778428681810,0.8426474188888888,-0.0223048232222222,0.1921690688888888,0.0477733439999999,-0.2651925577777778,-0.1147714166666666
565,1778428681820,0.8662395475,0.0001219585,0.214585685,0.125605465,-0.1395786,-0.2090624724999999
566,1778428681830,0.8562961250000001,0.01609849975,0.20928049625,0.14790139625,-0.08406785125,-0.2372378025
567,1778428681840,0.8299341625,0.0011586042499999,0.21464667,0.13415732625,-0.04428642325,-0.172850684
568,1778428681850,0.84440905,-0.018049834,0.2230617899999999,0.115373775,0.015729317,-0.090329036
569,1778428681860,0.862032025,-0.0122568126249999,0.230074395,0.160500119375,0.066553720125,-0.0474933735
570,1778428681870,0.8878604999999999,0.02207827,0.205979995,0.245636955,0.06657280875,-0.023441264
571,1778428681880,0.8983451,0.06393666,0.12567806,0.27236152,-0.0697893,-0.08116633
572,1778428681890,0.8983451,0.06393666,0.12567806,0.27236152,-0.0697893,-0.08116633
573,1778428681900,0.9085353888888889,0.0429191705555555,0.0100446231111111,0.1734042611111111,-0.10623652,-0.2114888977777777
574,1778428681910,0.9237125,0.0248795,-0.013415418,0.115373775,-0.059404895,-0.26510772
575,1778428681920,0.9237125,0.0248795,-0.013415418,0.115373775,-0.059404895,-0.26510772
576,1778428681930,0.9434218357142858,0.0318703242857142,-0.0423587444285714,-0.2956937071428571,0.5392799585714286,-0.2921595199999999
577,1778428681940,0.95545214,0.10079856,0.11153089,-0.5594851711111111,0.6793893666666667,-0.3046091822222222
578,1778428681950,0.95682416625,0.0973189375,0.1415478875,-0.55846709125,0.525242705,-0.316189825
579,1778428681960,0.96718722,0.063069398,0.2089078477777778,-0.4602564311111111,-0.1846964588888889,-0.4100142444444444
580,1778428681970,0.9715506,0.048082076,0.15936905,-0.39231664,-0.3837648,-0.4874561
581,1778428681980,0.9715506,0.048082076,0.15936905,-0.39231664,-0.3837648,-0.4874560999999999
582,1778428681990,0.9390525125,0.000339197125,0.034807669375,-0.1825860598749999,-0.59664505,-0.60870928125
583,1778428682000,0.8751426,-0.04466724,-0.08540133,-0.012904149,-0.6329905,-0.6206208
584,1778428682010,0.8751426,-0.04466724,-0.08540133,-0.012904149,-0.6329905,-0.6206208
585,1778428682020,0.84442810875,-0.0249862139374999,-0.1053910625,0.0762031928749999,-0.4546230775,-0.37556606875
586,1778428682030,0.85489744,0.0026830835,-0.10811607,0.17584765,-0.25426516,-0.10315683
587,1778428682040,0.8807932577777778,0.0122297108888888,-0.0937453121111111,0.1985168722222222,-0.2490390233333333,-0.0926366828888888
588,1778428682050,1.0879598,0.08860273,0.021220751,0.37987065,-0.20722993,-0.008475506
589,1778428682060,1.1492134,0.1086039,0.040520657,0.4394282625,-0.2732014375,-0.0611610815
590,1778428682070,1.1492134,0.1086039,0.040520657,0.4592807999999999,-0.29519194,-0.07872294
591,1778428682080,1.0953536,0.0936563775,-0.04686249225,0.6009973,-0.4445440874999999,-0.293970235
592,1778428682090,1.0193888,0.07149807,-0.07979124,0.6009973,-0.4344651,-0.27427042
593,1778428682100,1.0193888,0.07149807,-0.07979124,0.6009973,-0.4344651,-0.27427042
594,1778428682110,0.943180025,0.07053003,-0.0962175065,0.6411605499999999,-0.20921518625,-0.1413538735
595,1778428682120,0.8981012,0.1027499,-0.112750486,0.62985985625,-0.017170535625,-0.05719057575
596,1778428682130,0.8981012,0.1027499,-0.112750486,0.56251395,0.09460497,-0.034741938
597,1778428682140,0.93027151,0.1443872355,-0.093202849625,0.51379888875,0.1168245399999999,-0.0022143213062499
598,1778428682150,0.94691503,0.107628234,-0.072229825,0.44462046,0.11354123,0.051387526
599,1778428682160,0.94691503,0.107628234,-0.072229825,0.44462046,0.1135412299999999,0.051387526
600,1778428682170,0.94529523625,0.054793593,0.02898415975,0.3200076,-0.0253310725,0.1947839215
601,1778428682180,0.9456954,0.04320374,0.054423906,0.27846998,-0.07162184,0.24258272
602,1778428682190,0.9456954,0.04320374,0.054423906,0.27846998,-0.07162184,0.24258272
603,1778428682200,1.0274037375,0.0942661675,0.0007050713749999,-0.0439905475,-0.510973735,0.51860933625
604,1778428682210,1.080018988888889,0.1083803155555555,-0.0505212397777777,-0.4168862822222222,-0.5417706,0.5721008666666667
605,1778428682220,1.0855206,0.08540133,-0.036861908,-0.567019,-0.414918,0.517464
606,1778428682230,1.0837319333333333,0.0402394754444444,-0.025018398,-0.72909708,-0.1622054035555555,0.4252939233333334
607,1778428682240,1.060538225,-0.00445147975,-0.0013910867499999,-0.879925455,0.1369061395,0.3267269325
608,1778428682250,1.024991215,-0.02244033425,0.0499190715,-0.94994382875,0.3429907375,0.2773246675
609,1778428682260,0.9909555022222224,-0.0219796024444444,0.122974655,-0.9654271233333334,0.4670181866666667,0.2735323133333333
610,1778428682270,0.9875576625,-0.0084761045,0.2013875125,-0.92550997,0.4274403825,0.2935121225
611,1778428682280,0.99036269375,-0.021407498625,0.24361178625,-0.88221616,0.32000762,0.30366746
612,1778428682290,0.9947328666666668,-0.0835414566666666,0.2367211233333333,-0.7421285333333334,-0.0516674973333333,0.3040746733333333
613,1778428682300,1.001880075,-0.1118967725,0.2038457375,-0.655133725,-0.23349637,0.2853420175
614,1778428682310,0.9969484,-0.099396045,0.17659567375,-0.55358035875,-0.333522625,0.27488126375
615,1778428682320,0.9869174,-0.10665256,0.15375897,-0.36200336125,-0.3471139775,0.27671382125
616,1778428682330,0.9643414666666666,-0.1060834222222222,0.1430164733333333,-0.1990598513333333,-0.2581338733333334,0.2460441866666666
617,1778428682340,0.9425549357142856,-0.0826049934285714,0.1365149314285714,-0.0908308062857142,-0.1597583742857143,0.2056700857142857
618,1778428682350,0.9059776833333336,-0.0353069382333333,0.1403232233333333,-0.0122933017777777,-0.0460850355555555,0.1590323964444444
619,1778428682360,0.87968550625,-0.0023172083625,0.14134590125,0.05696150725,0.0503185424999999,0.11514470975
620,1778428682370,0.88246,0.008781,0.12445848,0.092772424,0.06956023,0.10392039
621,1778428682380,0.9191593133333332,-0.0043091946666666,0.1107178453333333,0.1429976488888889,0.1308485711111111,0.0789435253333333
622,1778428682390,0.9513630733333334,-0.0030083058888888,0.1020994568888888,0.1705536399999999,0.1636307099999999,0.039577811
623,1778428682400,0.988815305,0.02043564325,0.0934200825,0.16767757125,0.18982078125,-0.013438639125
624,1778428682410,1.0190906444444443,0.0476755453333333,0.0965435688888888,0.1521603611111111,0.2365930222222222,-0.0652842995555555
625,1778428682420,1.03213345,0.0644854675,0.1071404,0.14354911125,0.26243526875,-0.09048174975
626,1778428682430,1.032614477777778,0.0598713808888888,0.1208810355555555,0.1290160333333333,0.2929267244444444,-0.1191067315555555
627,1778428682440,1.0284137,0.052960407,0.122507155,0.12125318,0.2900761,-0.1193442815
628,1778428682450,1.0036798,0.0345040454444444,0.1103926211111111,0.13105219,0.2209146066666666,-0.0914828633333333
629,1778428682460,0.9978363875,0.031953083625,0.1042134025,0.13843326,0.17706935,-0.0762795525
630,1778428682470,1.0042659125,0.045277029125,0.09588593,0.14477080125,0.123696566875,-0.05818320375
631,1778428682480,1.0214213555555556,0.0591938327777777,0.0829079566666666,0.1569113966666666,0.071800002,-0.0272081546666666
632,1778428682490,1.0279258,0.06271707,0.07979124,0.16301987,0.048180576,-0.013362284
633,1778428682500,1.0402842,0.0707663233333333,0.0732868,0.1674994166666666,0.0041317024444444,-0.0022312893088888
634,1778428682510,1.057321525,0.06658925325,0.05634093925,0.18661384375,-0.06818582625,-0.00160347407875
635,1778428682520,1.071769925,0.031004094875,0.0085637622499999,0.211505855,-0.16408885125,-0.0146603345
636,1778428682530,1.0659971666666666,0.0059353058,-0.05344824,0.2176567477777777,-0.2680431844444444,-0.0248326386666666
637,1778428682540,1.0557323,-0.0031709166,-0.08564524,0.21982865,-0.36849362,-0.033520244
638,1778428682550,1.0322079444444443,0.0033335279555555,-0.1248141933333333,0.2022498288888888,-0.4174292633333333,-0.0372531992222222
639,1778428682560,1.00755119,0.020435644,-0.1540638725,0.13889139425,-0.417666815,-0.0448209185
640,1778428682570,0.98824528,0.0446672411111111,-0.1739227522222222,0.0144482343333333,-0.3849864733333333,-0.051234815
641,1778428682580,0.9907399625,0.0544848885,-0.17638224,-0.1210431974999999,-0.37857259,-0.04772244275
642,1778428682590,1.0028024,0.048082076,-0.17668714,-0.26953635,-0.3849865,-0.037185326
643,1778428682600,1.0133721333333332,0.0069109709999999,-0.1809150266666666,-0.3959817333333333,-0.4018865866666666,-0.0177060870555555
644,1778428682610,1.0149067875000002,-0.0182975615,-0.18931364125,-0.49196110125,-0.404839025,0.0121405896875
645,1778428682620,1.0199578666666669,-0.042228073,-0.21688259,-0.5617928333333333,-0.4152573688888888,0.0265464042222222
646,1778428682630,1.014415195,-0.03798620975,-0.24642063625,-0.62008635,-0.4532486525,0.019088978
647,1778428682640,0.9818763966666668,-0.003170917,-0.31172552,-0.7119934,-0.5169294533333333,-0.0023670326666666
648,1778428682650,0.9486148025,0.006219874825,-0.332458435,-0.75454905,-0.5005893075000001,-0.0258846525
649,1778428682660,0.8944322666666665,-0.0044718054666666,-0.3179148866666666,-0.7494586833333333,-0.4075878333333333,-0.0357600183333333
650,1778428682670,0.8744717125,-0.024220163125,-0.29047426125,-0.70285609375,-0.27930991,-0.019318045
651,1778428682680,0.8924681999999999,-0.0252682425,-0.2807785925,-0.673459075,-0.18218519,-0.005879405125
652,1778428682690,0.9309825,-0.0065315462222222,-0.2853181577777778,-0.6817225277777778,-0.1312133822222222,0.0207094184444444
653,1778428682700,0.968654085,0.005091760625,-0.2747721325,-0.73271129375,-0.1747023174999999,0.1459161375
654,1778428682710,0.9794914822222224,-0.0052882492222222,-0.2547167755555555,-0.726517968888889,-0.2491747733333333,0.2263613277777777
655,1778428682720,1.017422195,-0.0381424715,-0.2258668425,-0.6620056950000001,-0.4199574875,0.3273377724999999
656,1778428682730,1.0545500577777778,-0.0535837496666666,-0.2325745433333333,-0.5677655444444444,-0.6282394444444445,0.3787337866666667
657,1778428682740,0.91357848625,-0.10279182125,-0.2260383375,-0.41911757375,-0.6395570687500001,0.4374429999999999
658,1778428682750,0.86718476625,-0.14529430375,-0.19641389875,-0.22667206125,-0.48631076875,0.48272204375
659,1778428682760,0.86611766,-0.16375956,-0.19839573,-0.10636378,-0.40270105,0.47165045
660,1778428682770,0.8679063666666667,-0.0977800943333333,-0.2199721933333333,0.0427508242222222,-0.1963534537777777,0.4516282222222222
661,1778428682780,0.8743307375,-0.0250205141125,-0.16351183625,0.1062110705,0.15691139225,0.4992912625
662,1778428682790,0.920674875,0.0254397466875,-0.01923511875,0.13553174,0.49959671,0.55106056
663,1778428682800,0.9811785333333334,0.0572153966666666,0.1259626377777777,0.1964128555555555,0.8496800655555555,0.6148601777777778
664,1778428682810,1.0498784,0.06271707,0.24818522,0.2577012,0.8777112,0.6286382
665,1778428682820,1.093562275,0.031610076,0.28205152,0.35971267375,0.6297835125,0.5826719250000001
666,1778428682830,1.106605877777778,-0.0214443404444444,0.2857517666666667,0.47638452,0.3792598,0.5150206
667,1778428682840,1.074719625,-0.0454599702499999,0.2582010375,0.5594597375,0.255563215,0.4628695025
668,1778428682850,1.00182291875,-0.0517103365,0.1890925925,0.663456505,0.05710467275,0.38009970375
669,1778428682860,0.956807147777778,-0.0369703128888888,0.1058598391111111,0.6529872333333333,-0.0480024155555555,0.3393001944444445
670,1778428682870,0.9956792625,-0.04985047,0.03511256625,0.5872532625,-0.0253310749999999,0.310997615
671,1778428682880,1.0440243,-0.07637641,0.002927,0.46538925,0.10987615,0.26884916
672,1778428682890,1.0440243,-0.07637641,0.002927,0.46538925,0.10987615,0.26884916
673,1778428682900,1.03451155,-0.06555260675,0.0633878442499999,0.2916032075,0.4014793725,0.18523943625
674,1778428682910,1.0276209125,-0.048082073125,0.19569357625,0.10453124,0.668190575,0.08528954675
675,1778428682920,1.046280575,-0.05564349,0.2591157275,0.081166331,0.558085335,0.00817008275
676,1778428682930,1.0464635,-0.04905774,0.3153233,0.086663954,0.39269844,-0.06100837
677,1778428682940,1.0097159,-0.0427159087499999,0.390964125,0.10720369325,0.0460998787499999,-0.12684625375
678,1778428682950,0.92469828,-0.046374659,0.4013648733333333,0.108247224,-0.4314108666666667,-0.1873264933333333
679,1778428682960,0.85440964,-0.055155657,0.34654462,0.08177718,-0.61099994,-0.19424942
680,1778428682970,0.8497142025,-0.06774785875,0.20742825625,0.036039988125,-0.5168531375,-0.164623335
681,1778428682980,0.87075204,-0.06637583,0.1378739,0.01885991,-0.3965926,-0.15393351
682,1778428682990,0.8755761777777777,-0.0564023413333333,0.0374242721111111,-0.0525413466666666,-0.1110299777777777,-0.0978713032222222
683,1778428683000,0.87880135,-0.05564349,0.0078053335,-0.12713258,0.0640626,-0.037796173
684,1778428683010,0.8837580085714285,-0.06045213,0.1389715207142857,-0.2896943171428571,0.2471422542857143,0.0588049571428571
685,1778428683020,0.89354807,-0.0681442166666666,0.2649477077777777,-0.35994174,0.2721579133333333,0.0849841266666666
686,1778428683030,0.90151596,-0.08713923,0.3697167,-0.36849362,0.2436517,0.06299362
687,1778428683040,0.8651385711111111,-0.08041458,0.3992577288888889,-0.3427701444444444,0.1737436266666666,-0.0268687957777777
688,1778428683050,0.81882824,-0.05918028425,0.35898437,-0.3087832825,0.203946635,-0.0906344625
689,1778428683060,0.80876666,-0.044911157,0.3377636,-0.29641363,0.2717507,-0.11903886
690,1778428683070,0.8334099,-0.0168912291749999,0.325567785,-0.312448365,0.41827765875,-0.1304158855
691,1778428683080,0.8822262666666667,0.0124397505333333,0.3354870533333333,-0.4185830933333333,0.5102525755555555,-0.1178850364444444
692,1778428683090,0.9022478,0.027562585,0.3582526,-0.5169295,0.48982313,-0.09460497
693,1778428683100,0.9236040444444444,0.0278844181111111,0.4406727266666667,-0.595117938888889,0.4315890388888889,-0.0736325477777777
694,1778428683110,0.926700425,0.0069516252499999,0.526837155,-0.6329904749999999,0.3812450475,-0.079028364
695,1778428683120,0.9202976,-0.01683025,0.5961933,-0.6128325,0.33772218,-0.100102596
696,1778428683130,0.9185901875,-0.037727050625,0.6076993125,-0.564041075,0.3289412499999999,-0.1144575055
697,1778428683140,0.923468515,-0.0834576175,0.6375143249999999,-0.4474456125,0.3277959125,-0.143167325
698,1778428683150,0.94103056,-0.09957898,0.6604044,-0.41675055,0.34383065,-0.13675343
699,1778428683160,0.94103056,-0.09957898,0.6604044,-0.41675055,0.34383065,-0.13675343
700,1778428683170,0.9669728114285714,-0.1125414085714285,0.6849354514285714,-0.3928402342857143,0.2248899711428571,-0.13614258
701,1778428683180,1.0557018555555555,-0.1230491922222222,0.6585343622222222,-0.3832218177777778,0.0779763464444444,-0.1780195588888888
702,1778428683190,0.997760175,-0.1117443275,0.642598475,-0.33566057125,0.0699420087499999,-0.26144262375
703,1778428683200,0.9722823,-0.11494574,0.645495,-0.29519194,0.07872294,-0.29198498
704,1778428683210,0.956058055,-0.102227768,0.64381805,-0.2071822087499999,0.1032331875,-0.3324536225
705,1778428683220,0.92737114,-0.07857166,0.6096392,-0.08803836,0.1336992,-0.38422292
706,1778428683230,0.92737114,-0.07857166,0.6096392,-0.05993939,0.12026055,-0.40682426
707,1778428683240,0.9000897288888888,-0.0631236022222222,0.5778792222222222,-0.0407316363333333,0.1299662355555555,-0.3876165155555555
708,1778428683250,0.88197213,-0.06222924,0.5744847,-0.025731942,0.13614258,-0.37567106
709,1778428683260,0.9691114400000002,-0.09884723,0.5383546,0.03840702,0.25892287,-0.36650836
710,1778428683270,1.01928589,-0.1097929875,0.5398828875,0.0704001475,0.30572904875,-0.469512495
711,1778428683280,1.0496345,-0.11153089,0.5368911,0.08605311,0.32917032,-0.5436541
712,1778428683290,1.0496345,-0.11153089,0.5368911,0.08605311,0.32917032,-0.5436541
713,1778428683300,1.0421819142857145,-0.0357294328571428,0.5928133328571429,0.0752323862857142,0.3870262771428571,-0.5619794928571429
714,1778428683310,1.021462025,0.0551556575,0.65144045,0.070094726,0.344517835,-0.5113555187500001
715,1778428683320,1.0086564,0.08564524,0.6552517,0.078112096,0.26014456,-0.4666873
716,1778428683330,0.9774045666666668,0.08981215,0.6126475333333333,0.0931796573333333,0.2162314422222222,-0.3970507133333333
717,1778428683340,0.9956238111111112,0.0689776011111111,0.62310884,0.1143556988888889,0.2143310322222222,-0.2678904466666666
718,1778428683350,1.0608850125,0.04573437525,0.6232032987499999,0.094452254,0.12667445,-0.1873773925
719,1778428683360,1.0711296,0.037837572,0.59351027,0.090329036,0.05612159,-0.16676131
720,1778428683370,1.0523175,0.024635585,0.5383546,0.10132429,0.07994463,-0.167983
721,1778428683380,1.0461585625,0.032940183375,0.552517025,0.0866639545,0.065026597375,-0.1628671512499999
722,1778428683390,1.0355955777777777,0.0572729855555555,0.5667607555555556,0.0482484484444444,0.0289643424311111,-0.1568519977777777
723,1778428683400,1.018474025,0.1059513,0.5677198999999999,0.007864659,0.00045813544,-0.1563769
724,1778428683410,0.9962878333333332,0.1470715933333333,0.6270487666666668,-0.0847126355555555,-0.0725041776666666,-0.1332919633333333
725,1778428683420,0.9852099,0.16741832,0.6594287,-0.09659022,-0.14186928,-0.09765921
726,1778428683430,0.9888957311111112,0.2062010611111111,0.6059669111111111,-0.0480617994444444,-0.2252159877777778,-0.0440403903333333
727,1778428683440,0.98560624,0.21449423,0.5728078212500001,-0.037108969875,-0.2271588225,-0.0299315155624999
728,1778428683450,0.9593547,0.2040363,0.55594707,-0.044057358,-0.22555535,0.0080173705
729,1778428683460,0.9632574266666668,0.1587084433333333,0.5709073,-0.0915676955555555,-0.2700114611111111,0.0969295855555555
730,1778428683470,0.9839631922222222,0.1175983238888888,0.5924837555555555,-0.1375848555555555,-0.3056442111111111,0.1610685466666666
731,1778428683480,0.98472209125,0.058498077875,0.632445465,-0.126063604,-0.3194731,0.20929154
732,1778428683490,1.00018024,0.0091875273333333,0.6568879266666667,-0.091703444,-0.2970244833333333,0.22262838
733,1778428683500,1.0284174,-0.02070623875,0.6835497875000001,-0.0572669306625,-0.25495238125,0.20112146
734,1778428683510,1.0760892,-0.0451550753333333,0.7545968666666667,0.0232037114333333,-0.2353289133333333,0.1075854748888888
735,1778428683520,1.0662169874999998,-0.0387217702499999,0.7793404375,0.1033095425,-0.313822775,0.00068720275
736,1778428683530,1.0010002044444444,-0.034666654,0.7631779755555557,0.15752224,-0.3539011555555555,-0.0579541355555555
737,1778428683540,0.91511436,-0.05180180225,0.745500815,0.20455748,-0.34344888,-0.083609715
738,1778428683550,0.8877177866666667,-0.0686252777777777,0.7398399244444444,0.2908905555555555,-0.2856220022222222,-0.1100797644444444
739,1778428683560,0.855934105,-0.0773520799999999,0.709980425,0.4204919625,-0.2023431625,-0.13967404
740,1778428683570,0.8545451222222222,-0.0713354644444444,0.7025477444444443,0.5138497888888889,-0.1147883788888888,-0.1747701822222222
741,1778428683580,0.8580684,-0.06930282,0.70674855,0.5327860533333334,-0.0785447766666666,-0.18712287
742,1778428683590,0.8731912,-0.041496325,0.74385434,0.54296684,-0.04352287,-0.19608197
743,1778428683600,0.90720737,-0.0393823789999999,0.8058498666666667,0.553351271111111,-0.0169170762222222,-0.2116925066666666
744,1778428683610,0.9517729666666666,-0.0565378513333333,0.8614019333333334,0.5535549,-0.0190889773333333,-0.2634787866666667
745,1778428683620,0.980209625,-0.060399865,0.89356964875,0.5809921149999999,-0.049325915625,-0.3374931125
746,1778428683630,0.9831976625,-0.04332188725,0.8975485325,0.62741649,-0.09239064625,-0.382848515
747,1778428683640,0.9571595,-0.013415418,0.84416515,0.66819054,-0.1253764,-0.39521816
748,1778428683650,0.9107315,0.0179316855,0.73210446875,0.635815635,-0.01968073625,-0.3309264875
749,1778428683660,0.900973977777778,0.0470250992222222,0.6563966722222223,0.5365189955555556,0.1396719227777777,-0.2337508877777777
750,1778428683670,0.9385380325,0.0635098004999999,0.681388825,0.41514707,0.2518981375,-0.1722398425
751,1778428683680,0.99826328875,0.0774778424999999,0.7464231124999999,0.26762745375,0.34505233125,-0.1460020425
752,1778428683690,1.0179253,0.09201756,0.832701,0.18745375,0.42629504,-0.20646638
753,1778428683700,0.9231534333333332,0.1473121233333333,0.9155277377777776,0.19274776,0.5897306366666668,-0.3120071922222222
754,1778428683710,0.7883920600000001,0.19456166,0.9203586275,0.2425827225,0.654446485,-0.32252734
755,1778428683720,0.7381147050000001,0.22092752,0.8811413875,0.269307295,0.5652627625000001,-0.2397384574999999
756,1778428683730,0.7139847500000001,0.2338754233333333,0.8244790333333333,0.2703253566666667,0.3161389133333333,-0.0514384333333333
757,1778428683740,0.71479785,0.23452587,0.8114498,0.24670593,0.14958122,0.05932854
758,1778428683750,0.7538007555555555,0.159203056,0.7840735333333333,0.1851461033333333,-0.0195471122222222,0.1567247444444444
759,1778428683760,0.80779105,0.074181154,0.7699534,0.14347275,-0.11132691,0.2358634
760,1778428683770,0.870508175,-0.0250167035,0.6933331,0.250065595,-0.07406523,0.216927125
761,1778428683780,0.87639264875,-0.057289927875,0.62313846625,0.29374117,-0.06795676,0.19615832
762,1778428683790,0.8521872533333333,-0.0506499761111111,0.514471078888889,0.3279486188888889,-0.0576402266666666,0.1755252622222222
763,1778428683800,0.8266831499999999,-0.016982698,0.4336114525,0.3710133575,0.0397337075,0.18806459125
764,1778428683810,0.8170599,-0.0070735829999999,0.40828604,0.38170317,0.07566871,0.19799086
765,1778428683820,0.8527288725,0.017470531875,0.425573625,0.38170317,0.07566871,0.19799086
766,1778428683830,0.87639640625,0.0733998615,0.4316296225,0.53991261,0.04396191525,0.173709685
767,1778428683840,0.89294845125,0.17852033,0.4435281625,0.72622103125,-0.028709821625,0.17103723125
768,1778428683850,0.9046869,0.22550097,0.39974892,0.83739525,-0.08322794,0.16195089
769,1778428683860,0.90249162,0.2183664075,0.3188448,0.8657996175,-0.0534491375,0.1459161375
770,1778428683870,0.875054895,0.1591899225,0.25065866,0.85694236,-0.0206160955,0.169433755
771,1778428683880,0.8631906,0.1205024555,0.2164150575,0.8407549125,-0.02993151575,0.239986625
772,1778428683890,0.88442659,0.095722047,0.1588812185,0.816321025,-0.1015533565,0.30519457
773,1778428683900,0.91712666,0.08564524,0.077595994,0.7315441314285714,-0.3015622028571428,0.38691719
774,1778428683910,0.91712666,0.08564524,0.077595994,0.66086036,-0.49005222,0.34398335
775,1778428683920,0.91712666,0.08564524,0.077595994,0.66086036,-0.49005222,0.34398335
776,1778428683930,0.9255553466666666,-0.0109660862222222,-0.0665757002222222,0.4674932777777778,-0.7727387266666667,0.2128548077777777
777,1778428683940,0.9110288,-0.042959824,-0.1408009,0.30779067,-0.9585721,0.11186141
778,1778428683950,0.8671618999999999,-0.01006918475,-0.17424035,0.1935622267499999,-0.857018725,0.0838387885
779,1778428683960,0.8012865977777779,0.0448027515555555,-0.1780625633333333,-0.060550234,-0.4303927833333333,0.0937396016666666
780,1778428683970,0.78535074,0.06320491,-0.10177423,-0.14973393,-0.22555535,0.113693945
781,1778428683980,0.78535074,0.06320491,-0.10177423,-0.14973393,-0.22555535,0.113693945
782,1778428683990,0.8584685625,0.004276165,-0.060773363875,-0.2895225074999999,0.06221098,0.09307785125
783,1778428684000,0.9112727,-0.02853825,-0.0612535769999999,-0.3837648,0.20577917,0.042224817
784,1778428684010,0.9112727,-0.02853825,-0.061253577,-0.3837648,0.20577917,0.042224817
785,1778428684020,0.95382469875,-0.009398414125,-0.1221412688749999,-0.33115557,0.078751574,-0.016874657375
786,1778428684030,0.99545443,0.023659917,-0.18180938,-0.3025221,-0.024586603,-0.02741177
787,1778428684040,0.99545443,0.023659917,-0.18180938,-0.3025221,-0.024586603,-0.02741177
788,1778428684050,1.01537554375,0.035867183375,-0.1686607474999999,-0.3132882825,-0.041079478375,-0.0148130455624999
789,1778428684060,1.0471952,0.062473156,-0.13909347,-0.2970245,-0.09972081,0.022677705
790,1778428684070,1.024639688888889,0.0501621397777777,-0.13177597,-0.2595422288888889,-0.12659809,0.0156190254444444
791,1778428684080,0.929642625,-0.00433714375,-0.11751447,-0.0933832744999999,-0.197456375,-0.0086282175
792,1778428684090,0.8814843,-0.038569324,-0.15156372,0.011529742,-0.12781979,-0.007253811
793,1778428684100,0.875874265,-0.032943996,-0.1718088,0.093383271,0.01118614,0.008322794
794,1778428684110,0.930698325,0.0062198750999999,-0.24870733125,0.28824356,0.54052347,0.05505261
795,1778428684120,1.0000888,0.020732917,-0.27626613,0.2680856,0.86854845,0.036116343
796,1778428684130,1.01970505,0.015122833625,-0.26415414125,0.2398339132499999,0.88343785625,0.014278553875
797,1778428684140,1.1570188,-0.02414775,-0.17937022,0.042072106,0.9876637,-0.13858597
798,1778428684150,1.165068,0.052472573,-0.050277323,-0.058717694,0.8264,-0.19852535
799,1778428684160,1.165068,0.052472573,-0.050277323,-0.058717694,0.8264,-0.19852535
800,1778428684170,1.183163525,0.042826431,-0.02227264054125,-0.1609200845,0.5732038075,-0.230747545
801,1778428684180,1.1941246,0.04783816,0.00024391667,-0.2970245,0.24120831,-0.27488127
802,1778428684190,1.1618971,0.110555224,-0.01097625,-0.3245126,0.16790664,-0.2858765
803,1778428684200,1.0977166,0.08933448,0.00804925,-0.34467056,0.16179816,-0.29687178
804,1778428684210,1.0289663624999998,0.064977118125,0.054816464375,-0.3810923375,0.2292204325,-0.2622061774999999
805,1778428684220,0.9517934,0.04198416,0.13909347,-0.39720342,0.2772483,-0.2284568699999999
806,1778428684230,0.9372840625,0.02886982425,0.15854583125,-0.41598698,0.2673220349999999,-0.16994916
807,1778428684240,0.9573221,0.0035774441666666,0.1481387233333333,-0.4613423933333334,0.2139238011111111,-0.0618907045333333
808,1778428684250,0.9747215,-0.0034148335,0.13884957,-0.486998,0.20822255,-0.0029778804
809,1778428684260,0.9875043,0.0251119821875,0.15097298625,-0.50280364,0.16508147,0.02809897385
810,1778428684270,1.0082295875,0.05994251875,0.17077216,-0.524412345,0.0393042045,0.04665345925
811,1778428684280,0.9967756166666668,0.0667823533333333,0.2024711599999999,-0.5483541666666666,-0.0884540787777777,0.0315010538888888
812,1778428684290,0.95165994375,0.05847902125,0.2487149675,-0.5618267625,-0.2598391625,0.052914644375
813,1778428684300,0.9172079888888888,0.0321597348888888,0.2602624755555556,-0.5510690888888888,-0.3893302955555555,0.0776539577777777
814,1778428684310,0.907370025,0.020671937,0.238855405,-0.533422375,-0.49249561,0.1025459849999999
815,1778428684320,0.89294466875,0.02686513425,0.208971795,-0.50417804625,-0.50601063125,0.1313321687499999
816,1778428684330,0.881979855,0.03673232675,0.1924807425,-0.43148721875,-0.45210332875,0.1682884224999999
817,1778428684340,0.8907836699999999,0.024635585,0.18278505,-0.36788276,-0.40025768,0.16134003
818,1778428684350,0.8846726799999999,0.0239865911428571,0.141550066,-0.3155244285714285,-0.34423424,0.1424910385714285
819,1778428684360,0.8786386566666666,0.0309266009999999,0.1112869793333333,-0.1825160733333333,-0.1382041966666666,0.1517700933333333
820,1778428684370,0.8888704525,0.0311832212499999,0.1150067075,-0.15904935,-0.0697893017499999,0.1894390075
821,1778428684380,0.8977353,0.02289767675,0.12568187875,-0.15950748,-0.047798797,0.21692713
822,1778428684390,0.9036299888888888,0.0301440364444444,0.1668491722222222,-0.1865883777777778,-0.1580227888888888,0.2863600955555555
823,1778428684400,0.90977865,0.043965979875,0.17390877375,-0.199527525,-0.21791976,0.300918625
824,1778428684410,0.9020749866666667,0.0885010986666666,0.1350282033333333,-0.2440843933333333,-0.29885702,0.3008168266666666
825,1778428684420,0.87983790875,0.0965871915,0.12927583125,-0.24593284875,-0.28350949875,0.2956500749999999
826,1778428684430,0.8744107666666667,0.07353071,0.0747604596666666,-0.17511803,-0.137253986,0.2802516311111111
827,1778428684440,0.867642075,0.04630605525,0.0023705667499999,-0.1290414775,-0.0096113002499999,0.26113721375
828,1778428684450,0.8600197333333334,0.0111388618,-0.0936233466666666,-0.050369445,0.3305956266666666,0.21468736
829,1778428684460,0.85745855,-0.0044514792,-0.1394669775,-0.0041995745,0.562055835,0.208527985
830,1778428684470,0.8614832,-0.008293167,-0.16327173,0.043904647,0.74210304,0.22181392
831,1778428684480,0.9048355725,-0.027417758375,-0.1861693925,0.130721309625,0.9152018925,0.229983995
832,1778428684490,0.9474299466666668,-0.0404393525555555,-0.1873923622222222,0.2215933266666666,0.9785009555555556,0.2112258911111111
833,1778428684500,0.984966,-0.031983573,-0.17937022,0.2796917,0.8807654,0.16072918
834,1778428684510,1.0295761,-0.04149250925,-0.1703757925,0.313440995,0.7291989175,0.1087308125
835,1778428684520,1.071129611111111,-0.0243645655555555,-0.1371387566666666,0.3964992722222222,0.4142816977777778,0.0320440295555555
836,1778428684530,1.086191475,-0.01646437575,-0.10903075,0.39873056125,0.24013934375,-0.05726692875
837,1778428684540,1.0821972625,-0.0094517708375,-0.084482822,0.36047625125,0.18882815625,-0.1183611975
838,1778428684550,1.05862125,0.003902666725,-0.047350323,0.25739578625,0.2053973874999999,-0.172258935
839,1778428684560,1.05390675,0.01262268775,-0.0320712316249999,0.1399603785,0.2626643187499999,-0.19180603875
840,1778428684570,1.065925977777778,0.0157461756666666,-0.0294122867777777,-0.0198270846666666,0.34505235,-0.1667358533333333
841,1778428684580,1.07018435,0.003841687375,-0.0303866834999999,-0.13736427625,0.4025483425,-0.13377555375
842,1778428684590,1.0621046,-0.006829667,-0.021220751,-0.19615832,0.42507333,-0.1196497099999999
843,1778428684600,1.05671555,-0.012569331,-0.02775314375,-0.2105704975,0.3575747175,-0.1231620775
844,1778428684610,1.053781,-0.029788323,-0.048813824,-0.2239518775,0.2410556049999999,-0.13884367
845,1778428684620,1.0695034777777777,-0.033846828,-0.0731309533333333,-0.24326992,0.168110258,-0.1551552066666666
846,1778428684630,1.076434775,-0.02390383375,-0.08517645625,-0.3057290575,0.068691684125,-0.15787538875
847,1778428684640,1.0701501625,-0.0166168215,-0.081986485,-0.35688752,-0.014202199,-0.15019207
848,1778428684650,1.0490246,-0.006524771075,-0.0912019725,-0.42041563,-0.2270824649999999,-0.1110978475
849,1778428684660,1.012551375,-0.001646437475,-0.11214069125,-0.451263425,-0.3527642875,-0.08819107375
850,1778428684670,0.9767812,0.0018971297777777,-0.1198240661111111,-0.4871337111111111,-0.4436278055555556,-0.0680670514444444
851,1778428684680,0.9466405375,0.02119407225,-0.10649631,-0.5576271875000001,-0.52975726875,-0.0221432144999999
852,1778428684690,0.9481346,0.03808149,-0.08491349,-0.6329905,-0.5853444,0.044668205
853,1778428684700,1.008069445,0.03372148125,-0.0034834349999999,-0.6509341275,-0.6513922525,0.085671328125
854,1778428684710,1.07515415,0.02997126075,0.073761925,-0.60718217125,-0.7974610950000001,0.11002885825
855,1778428684720,1.1083675,0.0269324656666666,0.0803807066666666,-0.4510258566666666,-1.043479831111111,0.1175626457777777
856,1778428684730,1.0964969,0.025504537,0.0392858305,-0.23232240375,-1.2102411125,0.13354648
857,1778428684740,1.0658777499999998,0.03112986475,0.00786631325,-0.07513421125,-1.2191747875,0.14309097625
858,1778428684750,1.0182979333333335,0.0320038997777777,-0.0073988055555555,0.10173152,-1.121939788888889,0.1567247377777777
859,1778428684760,0.99011873125,0.021068302625,0.0142119575,0.179894515,-1.0363787875,0.15561333625
860,1778428684770,1.0360285,0.0263849229999999,0.04381353375,0.19043163375,-0.9762866625,0.10903623525
861,1778428684780,1.11217625,0.0372887605,0.0373421175,0.1897444275,-0.92100496,0.05505260975
862,1778428684790,1.1548235,0.046618573,0.008781,0.19111884,-0.89260054,0.011071607
863,1778428684800,1.1548235,0.046618573,0.008781,0.19111884,-0.8926005399999999,0.011071607
864,1778428684810,1.1548235000000002,0.046618573,0.008781,0.1911188399999999,-0.89260054,0.011071607
865,1778428684820,0.9417216055555556,0.0323833260666666,-0.1712193355555555,0.151753128,-0.7964939177777777,-0.0584292372222222
866,1778428684830,0.8478238,-0.0017074167,-0.18180938,0.053067356,-0.58106846,-0.037796173
867,1778428684840,0.8734769825,-0.00204280215,-0.123482808,0.030924143,-0.49478628375,-0.0471115935
868,1778428684850,1.0174907875,-0.009116385375,0.12983608125,-0.036116343,-0.17050274,-0.10354815275
869,1778428684860,1.0599095,-0.0141471659999999,0.1542468,-0.031840414,-0.1143811499999999,-0.19608197
870,1778428684870,1.0599095,-0.014147166,0.1542468,-0.031840414,-0.11438115,-0.19608197
871,1778428684880,1.0599095,-0.0141471659999999,0.1542468,-0.031840414,-0.1143811499999999,-0.19608197
872,1778428684890,1.021475608888889,-0.0233448575555555,0.1706976255555555,-0.0257319409199999,0.0024688411111111,-0.3803542311111111
873,1778428684900,0.94298184,-0.018537667,0.19424914,-0.00068720314,0.16851749,-0.5405998
874,1778428684910,0.9280148422222224,-0.005549104,0.2077289244444444,0.0097650722088888,0.1911188377777777,-0.4940990555555555
875,1778428684920,0.8186262875,0.09185368475,0.33084248,0.104149459375,0.3290939625,-0.0407740575
876,1778428684930,0.835872,0.081010826,0.35630128,0.1220931,0.2577012,0.09475768
877,1778428684940,0.8553624575,0.0670694635,0.35395358,0.11796988,0.2370087475,0.1264453824999999
878,1778428684950,1.012479025,-0.0416792625,0.34346515125,0.0935359849999999,0.1210241125,0.3276432
879,1778428684960,1.0469513,-0.06027791,0.35337427,0.10682192,0.20761171,0.2657949
880,1778428684970,1.0353086428571427,-0.0574205999999999,0.3576297485714285,0.0917252655142857,0.2357979457142857,0.2331582052857142
881,1778428684980,0.9614852375,-0.03749837675,0.38068915,-0.0144312665499999,0.40628977,0.0290915995
882,1778428684990,0.933713,-0.018049834,0.36337486,-0.0823371211111111,0.4486927555555555,0.0141258434444444
883,1778428685000,0.927859,-0.00856376225,0.374175795,-0.101400646875,0.50219279375,0.036039989125
884,1778428685010,0.880363,0.0665113355555555,0.4817761,0.0003987461111111,0.4825608666666666,0.1354129588888889
885,1778428685020,0.8666664000000001,0.07918145375,0.5229268874999999,0.088496495,0.3462740325,0.2005869675
886,1778428685030,0.8500191,0.084669575,0.52640265,0.16546325,0.15935478,0.27801186
887,1778428685040,0.864109135,0.09534092425,0.49914116875,0.17638214675,-0.07444701,0.35894912
888,1778428685050,0.9134679375,0.125746663,0.4126307875,0.124536484,-0.29519194,0.41239825
889,1778428685060,0.91932195,0.14717323,0.3363001,0.031687703,-0.35444412,0.42644775
890,1778428685070,0.88574949,0.1203220611111111,0.2995838711111111,-0.0986263834444444,-0.2634957555555555,0.45441097
891,1778428685080,0.86465406,0.08909056,0.2818762,-0.20104511,-0.17790927,0.4777589
892,1778428685090,0.86465406,0.08909056,0.2818762,-0.20104511,-0.17790927,0.4777588999999999
893,1778428685100,0.86465406,0.08909056,0.2818762,-0.20104511,-0.17790927,0.4777589
894,1778428685110,0.86465406,0.08909056,0.2818762,-0.20104511,-0.17790927,0.4777588999999999
895,1778428685120,0.86465406,0.08909056,0.2818762,-0.20104511,-0.17790927,0.4777589
896,1778428685130,0.86465406,0.08909056,0.2818762,-0.20104511,-0.17790927,0.4777588999999999
897,1778428685140,0.86465406,0.08909056,0.2818762,-0.20104511,-0.17790927,0.4777589
898,1778428685150,0.8617541644444445,0.0835312931111111,0.28450508,-0.2078407866666666,-0.1552400488888889,0.4816276044444444
899,1778428685160,0.98140886,-0.1081160666666666,0.6949863366666666,-0.0670744228666666,0.6021511877777778,0.3125586722222222
900,1778428685170,0.98953942,-0.108055085,0.770692825,0.0005344914,0.57473093,0.2230356
901,1778428685180,1.000017733333333,-0.1543890933333333,0.8014492,0.1560969279333333,0.5125602477777778,0.1297795866666666
902,1778428685190,1.0210962,-0.1944117533333333,0.7896599,0.3153244333333334,0.39982499,0.0041486713333333
903,1778428685200,1.0235354,-0.1996153,0.7836433,0.3951418,0.35665843,-0.074447006
904,1778428685210,1.0235354,-0.1996153,0.7836433,0.4475983149999999,0.33879115,-0.11776944125
905,1778428685220,1.00742672,-0.1877446866666666,0.7889281466666667,0.53502584,0.30901235,-0.1899735
906,1778428685230,0.951164485,-0.11897416,0.7630971037500001,0.61382514,0.17279342,-0.26205346
907,1778428685240,0.940748485,-0.04521605275,0.57740415,0.47233764125,-0.03968598375,-0.376052845
908,1778428685250,0.90934796875,0.0307982925,0.59272129375,0.25953373,0.0768904,-0.4666873
909,1778428685260,0.8719716,0.073937245,0.61451757,0.1056002186666666,0.1873180055555555,-0.5099217333333333
910,1778428685270,0.85785491,0.13096419875,0.6948690625,-0.10033166125,0.2268533999999999,-0.4861580762499999
911,1778428685280,0.865629795,0.150953925,0.73568319,-0.1686701975,0.195776545,-0.44546037125
912,1778428685290,0.8634955575,0.1644303275,0.705856745,-0.2022763475,0.090481747,-0.36582114875
913,1778428685300,0.86806893,0.16644263,0.6635753,-0.28786176,0.053067356,-0.24983653
914,1778428685310,0.89861565125,0.17696154,0.64511385,-0.384146565,0.13514996075,-0.0892696017625
915,1778428685320,0.92990559125,0.1486328999999999,0.65847975,-0.42896748,0.20028155,-0.0041995747
916,1778428685330,0.98655531375,0.07569801375,0.65098315,-0.44431502625,0.12438377125,0.0005344919999999
917,1778428685340,1.0177626666666666,-0.0200113316666666,0.6086533666666667,-0.3707334,0.1579294666666666,-0.1215077006666666
918,1778428685350,1.0135348,-0.051252995,0.5837535,-0.33917296,0.2425827125,-0.1853921475
919,1778428685360,0.997550585,-0.0025611254999999,0.645075755,-0.30527091,0.2903815175,-0.176057634
920,1778428685370,0.9894212975,0.02689562375,0.6868997875,-0.25853154875,0.28694550625,-0.105600222375
921,1778428685380,1.0492888777777778,0.0410288164444444,0.6845521333333333,-0.1783080166666666,0.2644205177777778,-0.0219141458888888
922,1778428685390,1.1002098666666666,0.0163424171111111,0.6533714555555555,-0.1108433255555555,0.2413440555555556,0.0214560107777777
923,1778428685400,1.1130832,0.0078053335,0.6442754,-0.09659022,0.23387815,0.027564483
924,1778428685410,1.1130832,0.0078053335,0.6442754,-0.09659022,0.23387815,0.027564483
925,1778428685420,1.0608851,-0.025123417,0.7443422,-0.09597938,0.23265645,0.0086282175
926,1778428685430,1.06142625,-0.0794939675,0.702236115,-0.10514208375,0.1926459525,0.0124460131249999
927,1778428685440,1.0575549444444443,-0.1015032133333333,0.6942343022222223,-0.1181056233333333,0.1317309122222222,0.0299400004444444
928,1778428685450,1.065671925,-0.11616531,0.7426690874999999,-0.07521057,0.04756973,0.019623468
929,1778428685460,1.0973099,-0.1375486733333333,0.8107180533333334,-0.0041486717777777,-0.2713010233333333,-0.1095707277777777
930,1778428685470,1.1003995,-0.1290929,0.82681656,0.018249061,-0.36360684,-0.15576605
931,1778428685480,1.084545,-0.13714215,0.8427016,0.1973630522222222,-0.5201194666666668,-0.2846548188888889
932,1778428685490,1.0268587125,-0.15348075875,0.781596725,0.42644773875,-0.5596888,-0.39827240375
933,1778428685500,1.0036154666666668,-0.1223343753333333,0.7332033333333334,0.5464283333333334,-0.4240807266666666,-0.4565065133333333
934,1778428685510,1.015303125,-0.07283961775,0.72739,0.6126034250000001,-0.2620534775,-0.498756775
935,1778428685520,1.0528053,-0.048325993,0.7606846,0.6364265,-0.15347537,-0.5326588
936,1778428685530,1.108875675,-0.031732037,0.8686253925,0.6130615625,-0.21410197,-0.60947285
937,1778428685540,1.06574815,-0.01426912565,0.961046935,0.53746922,-0.43782479,-0.734543825
938,1778428685550,1.0242671,-0.0012195833,0.9830147,0.5008184,-0.54563934,-0.76844585
939,1778428685560,1.0242671,-0.0012195833,0.9830147,0.5008184,-0.54563934,-0.76844585
940,1778428685570,1.0242671,-0.0012195833,0.9830147,0.5008184,-0.54563934,-0.76844585
941,1778428685580,0.741956425,0.070827301675,0.70876847,0.3560476025,-0.6858287475,-0.5004366125
942,1778428685590,0.6410778375,0.13918875625,0.5729640775,0.09544488625,-0.51005745625,-0.166465422125
943,1778428685600,0.717168375,0.15536348125,0.6747078375,-0.1210241124999999,-0.28434940375,0.042148458125
944,1778428685610,0.809323115,0.11780413,0.831771125,-0.2020377374999999,-0.11796987125,0.15431528375
945,1778428685620,0.8689362133333334,0.0560974437777777,0.9369923555555556,-0.17776504,-0.1262587355555555,0.2328091622222222
946,1778428685630,0.87578280125,0.029029896125,0.922702425,-0.10979979375,-0.25907559375,0.29687175625
947,1778428685640,0.86660546,0.037593655,0.8319693,-0.07887565,-0.2793099,0.33237725
948,1778428685650,0.86660546,0.037593655,0.8319693,-0.07887565,-0.2793099,0.33237725
949,1778428685660,0.86660546,0.037593655,0.8319693,-0.07887565,-0.2793099,0.33237725
950,1778428685670,0.86660546,0.037593655,0.8319693,-0.07887565,-0.2793099,0.33237725
951,1778428685680,0.86660546,0.037593655,0.8319693,-0.07887565,-0.2793099,0.33237725
952,1778428685690,0.9192876275,0.083046006875,0.70591393,-0.3563339275,-0.0300269575,0.34024191625
953,1778428685700,0.9095652,0.07027849,0.66479486,-0.4121352466666667,0.004471064,0.3235539177777777
954,1778428685710,0.9095652,0.07027849,0.66479486,-0.3440597,-0.039246935,0.3122193
955,1778428685720,0.9095652,0.07027849,0.66479486,-0.3440597,-0.039246935,0.3122193
956,1778428685730,0.9095652,0.07027849,0.66479486,-0.3440597,-0.039246935,0.3122193
957,1778428685740,0.9095652,0.07027849,0.66479486,-0.3440597,-0.039246935,0.3122193
958,1778428685750,0.8389644285714286,0.0535179301428571,0.45388972,0.1857739285714285,0.2508727842857143,0.1470287539999999
959,1778428685760,0.851909475,0.11525062625,0.354654835,0.32840676,0.3355842149999999,0.03779617475
960,1778428685770,0.85961319,0.1171409866666666,0.35784608,0.2169780366666666,0.070552856,0.02817533
961,1778428685780,0.85343397,0.10738432,0.3536182,0.20028155,-0.028862532,0.02817533
962,1778428685790,0.85343397,0.10738432,0.3536182,0.20028155,-0.028862532,0.02817533
963,1778428685800,0.85343397,0.10738432,0.3536182,0.20028155,-0.028862532,0.02817533
964,1778428685810,0.85343397,0.10738432,0.3536182,0.20028155,-0.028862532,0.02817533
965,1778428685820,0.7165531414285714,0.0675692754285714,0.21956856,0.6553627385714286,-0.0120969567142857,0.1041821825714285
966,1778428685830,0.7661880175,0.06009496925,0.0763764089999999,0.8551098025,-0.117435387,0.28167694
967,1778428685840,0.88587487,0.050033405,0.054423906,0.7323295,-0.2053974,0.27251422
968,1778428685850,0.88587487,0.050033405,0.054423906,0.7323295,-0.2053974,0.27251422
969,1778428685860,0.88587487,0.050033405,0.054423906,0.7323295,-0.2053974,0.27251422
970,1778428685870,0.88587487,0.050033405,0.054423906,0.7323295,-0.2053974,0.27251422
971,1778428685880,0.88587487,0.050033405,0.054423906,0.7323295,-0.2053974,0.27251422
972,1778428685890,0.8570621625,-0.050147747,-0.15909083375,0.03703261575,0.0456512824999999,0.09361234
973,1778428685900,0.859044,-0.074912906,-0.20525588,-0.0229831284999999,0.440344525,0.0724617575
974,1778428685910,0.859044,-0.074912906,-0.20525588,-0.0458899,0.5961106,0.06421532
975,1778428685920,0.859044,-0.074912906,-0.20525588,-0.0458899,0.5961106,0.06421532
976,1778428685930,0.859044,-0.074912906,-0.20525588,-0.0458899,0.5961106,0.06421532
977,1778428685940,0.859044,-0.074912906,-0.20525588,-0.0458899,0.5961106,0.06421532
978,1778428685950,0.859044,-0.074912906,-0.20525588,-0.0458899,0.5961106,0.06421532
979,1778428685960,1.0101097444444445,-0.0429022315555555,0.0359065666666666,-0.3413872566666667,0.1061686577777777,0.0674731711111111
980,1778428685970,1.065267875,-0.02030606275,-0.02129697525,-0.37628190125,-0.3135937225,-0.04191939175
981,1778428685980,1.0169495,-0.01243975,-0.1042134,-0.28236416,-0.23838314,-0.12697987
982,1778428685990,1.0169495,-0.01243975,-0.1042134,-0.28236416,-0.2383831399999999,-0.12697987
983,1778428686000,0.93973086875,-0.0220744587499999,-0.21726115875,-0.2025149575,0.35672525375,-0.1906511575
984,1778428686010,0.9863584,-0.0174806944333333,-0.1963732566666666,-0.1828639122222222,0.7226238133333334,-0.2306287755555555
985,1778428686020,1.0497640625,0.0014330104875,-0.1072242516749999,-0.2333436425,0.793108825,-0.2609081325
986,1778428686030,1.1223825,0.020001167,0.0031709166,-0.27052896625,0.596492345,-0.285571095
987,1778428686040,1.185377875,0.049149208125,0.13419227625,-0.26892552,0.34260896,-0.3048128
988,1778428686050,1.2235808666666663,0.0839174953333333,0.2303522055555555,-0.0977440466666666,-0.3387657233333333,-0.4184303733333332
989,1778428686060,1.163587142857143,0.0888422921428571,0.1916575164285714,0.1509774385714286,-0.5212054428571429,-0.5201800742857142
990,1778428686070,1.0230915555555553,0.0825014244444444,0.0696754722222222,0.40328644,-0.2621807266666666,-0.55709269
991,1778428686080,0.8380672,0.07881558,-0.07783991,0.5527404,0.08483142,-0.54976255
992,1778428686090,0.7096958666666667,0.0797099333333333,-0.13567865,0.6465394,0.5862691466666666,-0.4646511511111111
993,1778428686100,0.6984554,0.07271766,-0.13714215,0.674299,1.0530243,-0.32252735
994,1778428686110,0.7648922022222222,0.074425075,-0.0940705338888888,0.6004543822222222,1.189582611111111,-0.23834921
995,1778428686120,0.980026675,0.0400328232499999,0.06002636875,0.40903859,1.15671559,-0.066505995125
996,1778428686130,1.1741004874999998,0.0612268938749999,0.162875355,0.2912978,0.99316126,0.0104607595
997,1778428686140,1.2825748,0.10359978875,0.18018962375,0.11964971,0.66880137,0.07276718
998,1778428686150,1.239618411111111,0.0572425031111111,0.1185502733333333,-0.1153228733333333,0.2748049166666667,0.2203886
999,1778428686160,1.15727025,0.029597764,0.08896860625,-0.226261645,0.1303204467499999,0.2488439025
1000,1778428686170,1.01916384375,0.018873053125,0.0941823212499999,-0.338562095,-0.04138490225,0.29038152
