id,timestamp,acc_x,acc_y,acc_z,gyro_x,gyro_y,gyro_z
0,1778428717040,0.94254886,0.0127324504,0.3253238559999999,0.32917031,0.23314513,-0.241529004
1,1778428717050,0.9700871,0.015854584,0.3594722,0.27785915,0.34749573,-0.2131857
2,1778428717060,0.9927578111111112,0.0301779122222222,0.3994406511111111,0.2293985966666666,0.2841033644444444,-0.1672788283333333
3,1778428717070,1.0345116,0.059302237,0.480028,0.15507884,0.15385716,-0.093383275
4,1778428717080,1.0325602555555555,0.0568088703333333,0.4489387888888889,0.1538571533333333,-0.0685421466666666,-0.0644698363333333
5,1778428717090,1.0026364166666666,0.0387285471111111,0.3734838666666666,0.1030210864444444,-0.5123820688888889,-0.0563252077777777
6,1778428717100,0.9501469071428572,0.0223009537142857,0.2912974857142857,0.0347419371428571,-0.7012308,-0.0622300648571428
7,1778428717110,0.9333065,0.019757251,0.2010889599999999,-0.0279038427777777,-0.8018557888888889,-0.0585649798888888
8,1778428717120,0.9310299,0.025123417,0.14202048,-0.113693945,-0.8040277,-0.053678203
9,1778428717130,0.9351765125,0.031644377125,0.14544674875,-0.161807705625,-0.7304206,-0.049860408125
10,1778428717140,0.9532670088888888,0.0317396573333333,0.1630820144444444,-0.2291525711111111,-0.612085911111111,-0.0318234451111111
11,1778428717150,0.9683525766666666,0.0308181946666666,0.1656566977777777,-0.2539936866666667,-0.5521549922222222,-0.0242896633333333
12,1778428717160,0.9957668975,0.03430078375,0.145092305,-0.3053472875,-0.44019180625,-0.031000499
13,1778428717170,1.0088088125,0.040947510625,0.1107381662499999,-0.3446705625,-0.3384093849999999,-0.04787515325
14,1778428717180,1.016732711111111,0.0413337133333333,0.0995518788888888,-0.3689008444444444,-0.3007574288888889,-0.0485878073333333
15,1778428717190,1.03146265,0.03548987775,0.0907027025,-0.4051444425,-0.3321481974999999,-0.0457371875
16,1778428717200,1.030310788888889,0.0318683904444444,0.0778399033333333,-0.43751934,-0.3857330855555555,-0.0310768534444444
17,1778428717210,1.0235354,0.021647604,0.054362925,-0.50707956875,-0.49394636875,0.034054735125
18,1778428717220,1.025059825,0.01670829075,0.034476097,-0.53601845625,-0.5748836187499999,0.0642153185
19,1778428717230,1.0228849000000002,0.010407112,0.0070735843333333,-0.5499831333333334,-0.7196628988888888,0.0877668753333333
20,1778428717240,1.0137787,0.0043905,-0.012927583,-0.5352549,-0.82418567,0.09536853
21,1778428717250,0.98366512,-0.0018700278,-0.0539360746666666,-0.4536050066666666,-0.9675311666666668,0.1024950793333333
22,1778428717260,0.978746135,0.0042075625,-0.082596284,-0.36482853,-0.99140511,0.0970483595
23,1778428717270,0.98935646,0.0102445,-0.074912906,-0.28786176,-0.97995174,0.09292514
24,1778428717280,1.0268688377777777,-0.0202044307411111,-0.0748045015555555,-0.2375517044444444,-1.0159238733333331,0.0927893955555555
25,1778428717290,1.0667391,-0.05564349,-0.07735208,-0.16500512,-1.0740222,0.07215633
26,1778428717300,1.0689614777777778,0.0165355177777777,-0.0759427777777777,-0.1323587222222222,-1.1461700444444445,0.0803009633333333
27,1778428717310,1.0624807777777778,0.0461815556222222,-0.0902559433333333,-0.0652333998,-1.211055633333333,0.15156647
28,1778428717320,1.046273777777778,-0.0087843881333333,-0.1286321711111111,0.0041995749777777,-1.1750834555555556,0.2059318766666666
29,1778428717330,1.033048,-0.045886826,-0.14055698,0.06772769,-1.0795199,0.24991289
30,1778428717340,1.005893225,-0.050917606625,-0.15200963,0.0913980212499999,-1.055467775,0.26480229625
31,1778428717350,0.9386760333333332,-0.0317057816666666,-0.1871281288888889,0.1021387522222222,-1.0478236222222224,0.2843918211111111
32,1778428717360,0.90395516,0.0102445,-0.20623155,0.0884965,-1.0654703,0.29878068
33,1778428717370,0.90395516,0.0102445,-0.20623155,0.0884965,-1.0654703,0.29878068
34,1778428717380,0.8834492277777778,0.0152312407777777,-0.2034298922222222,-0.0058454663333333,-1.2063724222222223,0.3087578444444444
35,1778428717390,0.85197043,0.009268833,-0.20428021,-0.15400986,-1.3415732,0.25602135
36,1778428717400,0.85197043,0.009268833,-0.20428021,-0.15400986,-1.3415732,0.25602135
37,1778428717410,0.9098663325,0.0010938136875,-0.2469884937499999,-0.236073375,-1.08501743,0.3288648975
38,1778428717420,0.9503298,-0.03295924,-0.26041153,-0.27197975,-0.77653956,0.36169794
39,1778428717430,0.96520874375,-0.04338667625,-0.2575035875,-0.24043521375,-0.5576176417500001,0.3116084625
40,1778428717440,0.9818764133333332,-0.0291277133333333,-0.2324119466666666,-0.0707310219999999,0.184806744,0.1261145033333333
41,1778428717450,0.96886754,0.0,-0.20720722,0.017638214,0.3419981,0.08742751
42,1778428717460,0.95274192,0.0377765943333333,-0.1506253177777777,0.0694244877777777,0.4317926533333333,0.08742751
43,1778428717470,0.94128965,0.0651562415,-0.0195285794999999,0.003970506,0.35810920625,0.1243837749999999
44,1778428717480,0.9334148444444446,0.0489696612222222,0.0270815263333333,-0.0774503464444444,0.2090370177777777,0.1635119299999999
45,1778428717490,0.9246881,0.01536675,0.04759424,-0.1259109,0.09216158,0.18821731
46,1778428717500,0.942444485,-0.011890938,0.06800320625,-0.1292705525,0.1051420875,0.1729461275
47,1778428717510,0.95999509375,-0.02893842775,0.10525385625,-0.08681667,0.18562122,0.13934954
48,1778428717520,0.95593995,-0.036861908,0.1483928,-0.08681667,0.18562122,0.13934954
49,1778428717530,0.94870250625,-0.042715907375,0.15763115,-0.02657185875,0.15836215875,0.0965138723749999
50,1778428717540,0.9240647777777776,-0.0418418722222222,0.1689089055555555,0.10098493,0.1101476388888889,-0.0654200437777777
51,1778428717550,0.91450455,-0.01933039725,0.17956078,0.1074327625,0.20089239375,-0.1295759725
52,1778428717560,0.904443,0.006097917,0.20720722,0.09827005,0.2528144,-0.14102936
53,1778428717570,0.936800025,0.033168857375,0.220439695,0.07421794125,0.2075353525,-0.1088071687499999
54,1778428717580,0.9546931711111112,0.0281588254111111,0.2235496355555555,0.06345176,0.13614258,-0.07383616
55,1778428717590,0.95057374,0.0073175007,0.21379296,0.06345176,0.13614258,-0.07383616
56,1778428717600,0.9359158975,-0.027829367325,0.20106736875,0.072614465,0.190049855,-0.0171800779999999
57,1778428717610,0.9208396177777778,-0.0485970084444444,0.20514747,0.0836097166666666,0.2845784722222222,0.0152117947222222
58,1778428717620,0.88810056,-0.0566191559999999,0.21208555,0.10804361,0.40186113,0.0092390645
59,1778428717630,0.88810056,-0.0566191559999999,0.21208555,0.10804361,0.40186113,0.0092390645
60,1778428717640,0.86191764375,-0.05232012525,0.23459828875,0.13942588625,0.54548660625,-0.0111479621875
61,1778428717650,0.8108806055555555,-0.033850216,0.3611558977777778,0.262791571111111,0.8900638644444443,-0.0734968044444444
62,1778428717660,0.8341949766666668,-0.0203873682222222,0.4185914888888888,0.3141027444444444,0.8468973,-0.0740397766666666
63,1778428717670,0.8566048,-0.030276157,0.44270876,0.3340571,0.7775322,-0.051234815
64,1778428717680,0.8695324,-0.04466724,0.44026962,0.31267744,0.71583664,0.025731942
65,1778428717690,0.8695324,-0.04466724,0.44026962,0.31267744,0.71583664,0.025731942
66,1778428717700,0.8695324,-0.04466724,0.44026962,0.31267744,0.71583664,0.025731942
67,1778428717710,0.8695324,-0.04466724,0.44026962,0.31267744,0.71583664,0.025731942
68,1778428717720,0.8695324,-0.04466724,0.44026962,0.31267744,0.71583664,0.025731942
69,1778428717730,0.8792623900000001,0.005762530875,0.40185271625,0.01198787775,0.6679614975,0.18989714125
70,1778428717740,0.8790180666666667,0.0074259072222222,0.4122157777777777,-0.0086282166666666,0.6609961444444444,0.2047780633333333
71,1778428717750,0.8761182,-0.0034148335,0.45368502,-0.06581879375,0.6478034875,0.247164065
72,1778428717760,0.8640850066666668,-0.0004065278666666,0.46149034,-0.1118614033333333,0.6547518866666667,0.2694599933333333
73,1778428717770,0.8636784500000001,-0.01836235175,0.47363283,-0.1431673275,0.67620793375,0.2658712575
74,1778428717780,0.8746547,-0.046374656,0.4954252199999999,-0.16561596,0.72377765,0.26640576
75,1778428717790,0.9060589875,-0.08617500125,0.57192363125,-0.1585148737499999,0.71675288125,0.2664821137499999
76,1778428717800,0.917614472222222,-0.1019910505555555,0.5913691844444444,-0.1519737155555555,0.6718555844444444,0.2611796244444444
77,1778428717810,0.91371185,-0.088114895,0.56643546,-0.1463742725,0.61374877375,0.22815145375
78,1778428717820,0.9036570911111113,-0.067107574,0.5369181677777778,-0.1602540888888889,0.5801606655555555,0.1735569722222222
79,1778428717830,0.8937373875,-0.059881543875,0.51710332625,-0.18600299125,0.5784723625,0.1215586062499999
80,1778428717840,0.8928196733333333,-0.0736187888888889,0.5231030111111111,-0.18265182,0.6590278222222222,0.0847805122222222
81,1778428717850,0.9214561425,-0.09000525375,0.5568617375,-0.1802763,0.7146149,0.07765396
82,1778428717860,0.9473189975,-0.09293225,0.617246375,-0.18546850375,0.67429905,0.06597150875
83,1778428717870,0.9698432,-0.09274931,0.6716246,-0.18760647,0.5887804,0.07398888
84,1778428717880,0.964477005,-0.09037112625,0.681869075,-0.1921878175,0.5209763575,0.0901763224999999
85,1778428717890,0.956102522222222,-0.0937520822222222,0.6714890555555555,-0.2088079533333333,0.5189401866666666,0.1016806166666666
86,1778428717900,0.9520373,-0.095920235,0.670405,-0.21822518,0.5258631,0.09353599
87,1778428717910,0.9667807244444444,-0.107411415,0.7059761777777778,-0.2035478822222222,0.5820610777777778,0.0883777184444444
88,1778428717920,0.9902788475,-0.1261659,0.798468825,-0.1607291874999999,0.574578225,0.0854422575
89,1778428717930,1.0275531777777778,-0.14685138,0.8857461333333334,-0.1020199755555555,0.4807962044444445,0.0817941477777777
90,1778428717940,1.0689343,-0.17571147,0.9356643,-0.05688515,0.35299337,0.06421532
91,1778428717950,1.0982044,-0.1893708,0.94029874,-0.045279052,0.2100551,0.01901262
92,1778428717960,1.112431575,-0.19180996375,0.92200504,-0.04627167875,0.15095563,-0.0095444885
93,1778428717970,1.116494688888889,-0.1785300722222222,0.9197555533333333,-0.0481975458888888,0.0795967879777777,-0.0435652877777777
94,1778428717980,1.091496575,-0.16735732,0.953904705,-0.04344650975,-0.02031067115,-0.0399341405
95,1778428717990,1.0598755444444443,-0.1806168977777777,0.9932388111111112,-0.0232206793333333,-0.1075260844444444,-0.0180454456
96,1778428718000,1.03817035,-0.1980374575,1.01774225,0.01550024925,-0.1695101124999999,-0.0103080474
97,1778428718010,1.03158455,-0.197320955,1.00145325,0.034741938,-0.19012621,-0.03413109
98,1778428718020,1.0293893,-0.18522422,0.984966,0.042072106,-0.19073705,-0.10376768
99,1778428718030,1.0283052333333331,-0.1470851466666666,0.9707375555555556,0.0701032015555555,-0.1972527577777777,-0.1573271111111111
100,1778428718040,1.024511,-0.11348223,0.9593547,0.1240783504999999,-0.260679065,-0.2174616225
101,1778428718050,1.0196288125,-0.1197325912499999,0.97292261625,0.1450762225,-0.315731655,-0.2428881425
102,1778428718060,0.9780448666666668,-0.14853509,0.9936656533333332,0.1739472355555555,-0.36577873,-0.2295343444444444
103,1778428718070,0.9428903875,-0.17107705375,0.9929542625,0.17829104,-0.40270105,-0.13553174
104,1778428718080,0.9466508,-0.1801019733333333,0.9835838433333332,0.1595583911111111,-0.3566839044444445,-0.0064393444444444
105,1778428718090,0.9713676625,-0.17808966,0.979233965,0.161187325,-0.25426517,0.1318666574999999
106,1778428718100,0.9916940388888889,-0.1615846288888889,0.9801689655555555,0.1687211044444444,-0.2133383955555555,0.1960225866666666
107,1778428718110,1.0032902,-0.133544375,0.9929009,0.15439164875,-0.226395265,0.22929679125
108,1778428718120,1.0032902,-0.12860507,1.0174373,0.14530529,-0.2493784,0.23036577
109,1778428718130,0.99859110625,-0.1256170825,1.0363104125,0.1550788475,-0.3148917625,0.21532365625
110,1778428718140,0.97432519875,-0.1216229495,1.03951185,0.17790926375,-0.3878116375,0.19020256625
111,1778428718150,0.9361725433333332,-0.1199866773333333,1.00604451,0.23611792,-0.3676791333333333,0.1619508866666666
112,1778428718160,0.892422525,-0.12967600875,0.97691298125,0.28114245,-0.3437542925,0.1446180975
113,1778428718170,0.81852335,-0.15766165,0.94273794,0.34260896,-0.31596074,0.13446276
114,1778428718180,0.7722935075,-0.1874804475,0.9041914875,0.4185067125,-0.3022930312499999,0.17470231625
115,1778428718190,0.7775834775,-0.1935174,0.84347909,0.50463619375,-0.3308501562499999,0.24685864
116,1778428718200,0.8105693775,-0.17775428375,0.7564084775,0.52838287125,-0.4012502875,0.22211933125
117,1778428718210,0.8490163444444444,-0.1552156966666666,0.6310971333333333,0.5235554855555555,-0.4088774033333333,0.1692810516666666
118,1778428718220,0.8600806599999999,-0.1358615899999999,0.5349550325,0.5247941625,-0.3193203974999999,0.0442100712499999
119,1778428718230,0.85081183,-0.12122657875,0.4639218975,0.5191438275,-0.21677441875,-0.07430384375
120,1778428718240,0.8378233,-0.112994395,0.4243845,0.473601771111111,-0.1583621555555555,-0.2339544999999999
121,1778428718250,0.8227309325000001,-0.1079331259999999,0.3903505175,0.43713758,-0.1039967487499999,-0.3196258275
122,1778428718260,0.81050462625,-0.0968044285,0.35996002875,0.39399648625,0.053687748125,-0.422782655
123,1778428718270,0.7994437177777778,-0.0865633144444444,0.3195714888888889,0.3853682588888889,0.2625879655555556,-0.4825014677777777
124,1778428718280,0.7951886822222222,-0.0710339497777777,0.28583308,0.3643958566666667,0.4246661066666666,-0.5072747000000001
125,1778428718290,0.7899851,-0.024391668,0.28626668,0.33344623,0.558238,-0.4850127
126,1778428718300,0.7843479444444444,0.0333081764444444,0.3020941822222222,0.3383330211111111,0.5772421777777779,-0.4165978377777777
127,1778428718310,0.7836433,0.040520657,0.30407262,0.33894387,0.5796177,-0.40804598
128,1778428718320,0.7836433,0.040520657,0.30407262,0.33894387,0.5796177,-0.40804598
129,1778428718330,0.7836433,0.040520657,0.30407262,0.33894387,0.5796177,-0.40804598
130,1778428718340,0.8679736650000001,-0.0389275755,0.22443763625,0.26144260875,0.2840439775,-0.33482066
131,1778428718350,0.84395168,-0.024212540375,0.18614271,0.187530115,0.41117654375,-0.3891097
132,1778428718360,0.7997451799999999,0.0094314448888888,0.1755759566666666,0.17951274,0.4714977000000001,-0.3891097
133,1778428718370,0.79486346,0.0131715005,0.1747358,0.17951274,0.4714977,-0.3891097
134,1778428718380,0.79486346,0.0131715005,0.1747358,0.17951274,0.4714977000000001,-0.3891097
135,1778428718390,0.79486346,0.0131715005,0.1747358,0.17951274,0.4714977,-0.3891097
136,1778428718400,0.79336947,0.0148484276875,0.172174675,0.17951274,0.4714977,-0.3891097
137,1778428718410,0.84096372125,0.14957426875,0.1949732575,-0.0003817808749999,-0.046109418,-0.06613376
138,1778428718420,0.8653960466666666,0.0783379009999999,0.1638306913333333,-0.1425480022222222,-0.3323857288888889,0.0877668766666666
139,1778428718430,0.8888324,0.021708583,0.118604474,-0.28053162,-0.42469156,0.14912309
140,1778428718440,0.8888324,0.021708583,0.118604474,-0.28053162,-0.42469156,0.14912309
141,1778428718450,0.8888324,0.021708583,0.118604474,-0.28053162,-0.42469156,0.14912309
142,1778428718460,0.8888324,0.021708583,0.118604474,-0.28053162,-0.42469156,0.14912309
143,1778428718470,0.9034407125,0.021556136,0.095786834125,-0.3670428612499999,-0.3878116575,0.131408519875
144,1778428718480,0.9690301333333332,0.0867936833333333,0.0748417666666666,-0.6967222133333333,-0.2204649466666666,0.0118860703333333
145,1778428718490,0.97999242125,0.1035731095,0.09506651875,-0.7156839325000001,-0.2407501675,-0.017561858375
146,1778428718500,0.92810297,0.088846646,0.1112869799999999,-0.76859856,-0.26587126,-0.021303298
147,1778428718510,0.92810297,0.088846646,0.1112869799999999,-0.76859856,-0.26587126,-0.021303298
148,1778428718520,0.92810297,0.088846646,0.11128698,-0.76859856,-0.26587126,-0.021303298
149,1778428718530,0.92810297,0.088846646,0.1112869799999999,-0.76859856,-0.26587126,-0.021303298
150,1778428718540,0.8722231687499999,0.05769391425,0.095329495,-0.677582325,-0.0144026212499999,0.1085017425
151,1778428718550,0.7838871775,0.01433772725,0.0563676199999999,-0.35077905,0.55823805,0.359712675
152,1778428718560,0.7977904,0.039057158,0.02268425,-0.2170035,0.5838936,0.401403
153,1778428718570,0.7977904,0.039057158,0.02268425,-0.2170035,0.5838936,0.401403
154,1778428718580,0.7977904,0.039057158,0.02268425,-0.2170035,0.5838936,0.401403
155,1778428718590,0.7977904,0.039057158,0.02268425,-0.2170035,0.5838936,0.401403
156,1778428718600,0.7977904,0.039057158,0.02268425,-0.2170035,0.5838936,0.401403
157,1778428718610,0.8042885,0.036766627875,0.0197267604125,-0.20302082375,0.5781669125,0.4108711325
158,1778428718620,1.0913000888888889,-0.0817561196666666,0.1426370588888889,0.5787353611111111,-0.2461120644444444,0.2296870555555555
159,1778428718630,1.1282365,-0.15839338,0.094212815,0.77020204,-0.750884,0.16256173
160,1778428718640,1.1577505,-0.14570972,0.039301075,0.78608406,-0.97873,0.18455222
161,1778428718650,1.1577505,-0.14570972,0.039301075,0.78608406,-0.97873,0.18455222
162,1778428718660,1.1577505,-0.14570972,0.039301075,0.78608406,-0.97873,0.18455222
163,1778428718670,1.134208725,-0.10940043825,-0.0169293408325,0.79555219375,-0.71354594625,0.1233911425
164,1778428718680,1.0171359333333334,-0.0718537853333333,0.0063181193022222,0.8819192266666667,-0.1743799233333333,0.0099856563333333
165,1778428718690,0.9973752375,-0.11271999625,0.051009073625,0.9340618,-0.1998997675,-0.0232121949999999
166,1778428718700,0.9988693,-0.11933623,0.03734974,0.9607864,-0.23410721,-0.057954133
167,1778428718710,1.0106344125,-0.10515857875,-0.02216973875,0.9379559375,-0.27442313625,-0.085060480375
168,1778428718720,1.060400577777778,-0.1020723511111111,-0.1035426277777777,0.8134364244444445,-0.3790816377777777,-0.1123195388888889
169,1778428718730,1.090399,-0.11079915,-0.14473405,0.68040746,-0.45034716,-0.1208714
170,1778428718740,1.1389384444444444,-0.1501239322222222,-0.1753049477777777,0.3886261099999999,-0.50165831,-0.17999632
171,1778428718750,1.1087728125,-0.18467540125,-0.20520633,0.19234053125,-0.5670189725,-0.2203631449999999
172,1778428718760,1.081618,-0.19107822,-0.22794013,0.071392775,-0.6458183,-0.24372806
173,1778428718770,1.0149678,-0.1904277866666666,-0.2407931811111111,0.0049461660222222,-0.7047311066666667,-0.2596100922222222
174,1778428718780,0.9859417,-0.18302898,-0.25943586,0.012140589,-0.70140535,-0.28404397
175,1778428718790,0.9590499,-0.14649483,-0.279559,0.046806170125,-0.54686099375,-0.30618718875
176,1778428718800,0.9581622444444444,-0.1272499711111111,-0.2650663044444444,0.0671168413333333,-0.3813892777777778,-0.3244277655555556
177,1778428718810,0.9775265,-0.1326906625,-0.234647845,0.0555107435,-0.22158484625,-0.3558185375
178,1778428718820,0.99893785,-0.135739635,-0.2210494875,0.0211505865,-0.06732682325,-0.382237675
179,1778428718830,1.0049977,-0.13006857,-0.21647604,-0.015958386,0.051845662,-0.3927748
180,1778428718840,1.0049977,-0.13006857,-0.21647604,-0.015958386,0.051845662,-0.3927748
181,1778428718850,0.996924688888889,-0.1065441588888888,-0.1358006022222222,-0.0718848468888889,0.1524318448888889,-0.3371876888888889
182,1778428718860,0.99942575,-0.08463146125,-0.0926807175,-0.15189099,0.1717244375,-0.30236938
183,1778428718870,1.0050587,-0.058661961625,-0.08436849125,-0.25082915875,0.19035527875,-0.27854633875
184,1778428718880,1.034349,-0.0393823786666666,-0.08777951,-0.4029046733333333,0.28152424,-0.2400629733333333
185,1778428718890,1.0498173,-0.0346056775,-0.079608305,-0.504101705,0.33940201,-0.2094442475
186,1778428718900,1.053618411111111,-0.0430174144444444,-0.0614161844444444,-0.6024481,0.35116082,-0.17470232
187,1778428718910,1.0490932,-0.07187919075,-0.0796235475,-0.7350783249999999,0.3566584375,-0.142527846875
188,1778428718920,1.077277075,-0.0411113924999999,-0.14432625375,-0.8668686125,0.5293754875000001,-0.1346441006249999
189,1778428718930,1.0468767666666667,-0.0739101394444444,-0.10226206,-0.9090934144444446,0.7121715277777778,-0.1720553177777777
190,1778428718940,1.063995025,-0.079486345,-0.1090917275,-0.8980981825000001,0.8657996525,-0.220515855
191,1778428718950,1.0725931,-0.07857166,-0.09884723,-0.92375374,0.91619456,-0.23884128
192,1778428718960,1.063934,-0.06314393075,-0.03356140775,-0.99293221,0.828843365,-0.23731416
193,1778428718970,1.060553077777778,-0.0619311234444444,0.030387952,-1.0552894999999998,0.6643218666666667,-0.2363978866666666
194,1778428718980,1.0576837,-0.07369333,0.08125474,-1.047526625,0.5541148300000001,-0.23112933125
195,1778428718990,1.0415852,-0.10738432,0.14692931,-0.9903361,0.36704284,-0.21135315
196,1778428719000,1.0247549,-0.063448824,0.15156372,-0.8950439700000001,-0.021532366,-0.1655396
197,1778428719010,1.0128029625,-0.069607716125,0.12443180375,-0.7397360000000001,-0.50280366125,-0.0602448089999999
198,1778428719020,1.0134738250000002,-0.0844866364999999,0.1173239175,-0.650094225,-0.9429954625,0.02397575525
199,1778428719030,1.045007625,-0.0814376795,0.1075672524999999,-0.59282725,-1.336228375,0.115221065
200,1778428719040,1.0956507750000002,-0.08504307,0.08286307075,-0.56900425,-1.5703355875,0.17019732125
201,1778428719050,1.125553425,-0.0937249775,0.0214799112499999,-0.549915285,-1.618592575,0.15324630875
202,1778428719060,1.1080117666666665,-0.0910351211111111,-0.0536176277777777,-0.4950068777777778,-1.4243092222222222,0.0854592265555555
203,1778428719070,1.0594215,-0.06369274,-0.098603316,-0.37925978125,-1.0634851374999998,0.040468631125
204,1778428719080,1.0145104,-0.05905832,-0.10445731,-0.2074165788888889,-0.9036636888888888,0.02641066
205,1778428719090,0.9747558,-0.04292171125,-0.13736319875,-0.07689039825,-0.935359875,0.0248156699999999
206,1778428719100,0.9516036333333332,-0.0222777234444444,-0.1362173002222222,-0.0395099392222222,-0.9464908555555556,0.0529485805555555
207,1778428719110,0.9483785,-0.006341833,-0.104701236,-0.080860907,-0.946966,0.1260636025
208,1778428719120,0.9898443,0.00804925,-0.07271766,-0.16928105,-0.946966,0.19432579
209,1778428719130,1.0361140111111111,0.0108678428155555,-0.0928001244444444,-0.2632836544444444,-0.8537099733333333,0.2369493522222222
210,1778428719140,1.0705464375,-0.0026525937887499,-0.12498061125,-0.3352024225,-0.63757182875,0.24556061375
211,1778428719150,1.0217941222222222,-0.0239580376666666,-0.17086024,-0.2848075233333333,-0.3302138466666666,0.1994161766666666
212,1778428719160,0.95267375375,-0.025550272375,-0.1837912149999999,-0.22485859625,-0.18837003175,0.17493138
213,1778428719170,0.8939546300000001,-0.011464084,-0.1601008,-0.12163496,-0.116213694,0.16317257
214,1778428719180,0.873679,-0.022196416,-0.10445731,0.04573719,-0.17852011,0.15584241
215,1778428719190,0.889015275,-0.030512452,-0.035390784125,0.15065019875,-0.27236153375,0.10414945825
216,1778428719200,0.90688219,-0.0035977712499999,0.015984164375,0.02893889,-0.2951919349999999,0.0942995445
217,1778428719210,0.9574644066666668,0.02367008,0.0381627953333333,-0.1382126766666666,-0.2710295322222222,0.1123365088888889
218,1778428719220,0.9961670625,0.032105531,0.025752263625,-0.286869145,-0.1083204,0.10880716375
219,1778428719230,0.9991969425,0.0298416795,0.0217771854999999,-0.3006895725,0.112777675,0.09659022
220,1778428719240,0.97667277,0.017562,0.048325993,-0.23105298,0.3212293,0.09659022
221,1778428719250,0.96123362125,0.00759190615,0.075050110625,-0.147490982,0.33031565625,0.1209477575
222,1778428719260,0.9432359,-0.0223590283333333,0.1710770466666666,0.1060074526666666,0.163223481,0.2226283766666666
223,1778428719270,0.9613061,-0.020732917,0.19595654,0.12514733,0.048791423,0.23647425
224,1778428719280,0.9613061,-0.020732917,0.19595654,0.12514733,0.048791423,0.23647425
225,1778428719290,0.9687978328571428,0.0001393804714285,0.2602155314285714,0.08587858,-0.0158383984285714,0.0937977785714285
226,1778428719300,0.97959983,-0.0024391667,0.2523318,0.1043785235555555,0.0908635281111111,-0.1131340011111111
227,1778428719310,0.97959983,-0.0024391667,0.2523318,0.108654454,0.10743276,-0.13186665
228,1778428719320,0.9127294066666668,-0.062473159,0.1938832577777777,0.28844717,0.7968757,-0.2809897466666666
229,1778428719330,0.88197213,-0.07613249,0.26089936,0.32306185,0.9235247,-0.26022094
230,1778428719340,0.88197213,-0.07613249,0.26089936,0.32306185,0.9235247,-0.26022094
231,1778428719350,0.88197213,-0.07613249,0.26089936,0.32306185,0.9235247,-0.26022094
232,1778428719360,0.84201938625,-0.040806496125,0.4548778875,0.3746784475,0.668343265,-0.05279056675
233,1778428719370,0.8063274999999999,-0.022440333,0.5744847,0.39941776,0.39941776,0.12774344
234,1778428719380,0.8102843666666666,-0.0088826314444444,0.5393403777777777,0.3916803622222222,0.3797349022222222,0.14552588
235,1778428719390,0.8241334,0.038569324,0.41633525,0.36459947,0.3108449,0.20776442
236,1778428719400,0.8527800666666666,0.0420383604444444,0.3352194277777778,0.33419283,0.4813391222222222,0.2403429355555555
237,1778428719410,0.8583122333333333,0.0346632686666666,0.3383124255555556,0.3177678244444444,0.5266096888888889,0.2501164911111111
238,1778428719420,0.8737602999999999,-0.0431834163333333,0.4894797533333333,0.1894899133333333,0.6846834100000001,0.3162916133333333
239,1778428719430,0.8734351,-0.073937245,0.5800948,0.1349209,0.61749023,0.357422
240,1778428719440,0.8748173011111111,-0.0724195405555555,0.5945468666666667,0.1162561198888889,0.5775815422222222,0.3735076433333333
241,1778428719450,0.8767686666666666,-0.0440981043333333,0.6281769,0.0534067141111111,0.4062049588888888,0.4478952577777778
242,1778428719460,0.8722155,-0.029788323,0.6101271,0.065284304,0.35299337,0.4673745
243,1778428719470,0.87075201,-0.0260381043333333,0.6007667833333333,0.067116844,0.3216365366666667,0.4789806000000001
244,1778428719480,0.89614981125,-0.0022562291375,0.51197725,0.033214818,0.239986615,0.5590016124999999
245,1778428719490,0.9470178375,-0.0138117815,0.4452279375,-0.049936764375,0.24044475625,0.57732701875
246,1778428719500,0.9720384,-0.020976834,0.411213,-0.107585475,0.2320456,0.57121855
247,1778428719510,1.009628225,-0.04832217825,0.405663925,-0.233257748125,0.20425205625,0.5102865425
248,1778428719520,1.0192261666666669,-0.0701971883333333,0.4437657266666666,-0.3064586755555555,0.1953268922222222,0.38898245
249,1778428719530,1.005294875,-0.07338843125,0.4764988475,-0.3116848125,0.1970745975,0.2512872975
250,1778428719540,0.9852709125,-0.06991261375,0.4992059775,-0.293359405,0.210665945,0.164394271
251,1778428719550,0.9787461875,-0.06460742475,0.51402392,-0.2764083925,0.2120403525,0.104073103
252,1778428719560,0.9827708,-0.065156244,0.5090846,-0.27503398,0.20516832,0.06604786
253,1778428719570,0.95108823375,-0.0765593443749999,0.4753631125,-0.2733541625,0.228533225,-0.031076855125
254,1778428719580,0.92566377,-0.084669575,0.4751497,-0.2701472,0.28946525,-0.078112096
255,1778428719590,0.92566377,-0.084669575,0.4751497,-0.2701472,0.28946525,-0.078112096
256,1778428719600,0.9684,-0.1585763266666666,0.5482704866666667,-0.28277137,0.3305956333333333,-0.19547112
257,1778428719610,0.9861856,-0.1791263,0.5781435,-0.27625567,0.29313034,-0.23945212
258,1778428719620,0.9900408222222222,-0.1733807088888889,0.5886115888888889,-0.2450176211111111,0.2868861244444444,-0.268908531111111
259,1778428719630,1.00249365,-0.15290526375,0.63086379625,-0.128201570625,0.2611372174999999,-0.37574740875
260,1778428719640,0.999042,-0.1553037733333333,0.6760963600000001,-0.0495549832,0.2320456066666666,-0.4084531933333333
261,1778428719650,1.002120175,-0.16577186875,0.68650343875,0.0316113465,0.22952586,-0.424920625
262,1778428719660,0.9861856166666668,-0.1619708299999999,0.68260078,0.0847635433333333,0.2203037644444444,-0.4268464733333333
263,1778428719670,0.9641111375,-0.1526003675,0.68101535,0.1002553075,0.1642415575,-0.40270104
264,1778428719680,0.9440083555555556,-0.1508319666666666,0.6842269333333334,0.08971819,0.1129303899999999,-0.37017342
265,1778428719690,0.93008473875,-0.1357586825,0.70197311,0.08330429275,0.13606622875,-0.335584215
266,1778428719700,0.9260906525,-0.117201965,0.744647095,0.1013242855,0.18378867,-0.316724315
267,1778428719710,0.9206634875,-0.1011034625,0.77504899125,0.1339282574999999,0.23326730125,-0.3235963375
268,1778428719720,0.9226554333333332,-0.0926138066666666,0.8178525788888888,0.1924762722222222,0.2341496344444444,-0.3381378977777777
269,1778428719730,0.91505333125,-0.10387801125,0.83885992,0.22715883,0.19234054,-0.33291176
270,1778428719740,0.918254775,-0.10542916875,0.8548974825,0.2758738925,0.18546849625,-0.3071798075
271,1778428719750,0.9207311777777778,-0.0788426755555555,0.8715379377777778,0.3277450133333333,0.17829104,-0.2834331266666667
272,1778428719760,0.9156631875,-0.05198474125,0.877947535,0.34451784875,0.1514901175,-0.26968906125
273,1778428719770,0.92238446,-0.0344193522222222,0.8653317,0.3245550322222222,0.1161882355555555,-0.25899923
274,1778428719780,0.92932254,-0.02853825,0.8609953,0.31267744,0.110487,-0.25899923
275,1778428719790,0.919321925,-0.011586042125,0.861239275,0.298017115,0.068319445,-0.23991026
276,1778428719800,0.9031421566666668,0.0061792223333333,0.8634345466666666,0.26028032,0.0175618584444444,-0.1953184055555555
277,1778428719810,0.8822961062500001,0.0060369374375,0.87844684875,0.2012741725,-0.0302369381249999,-0.118046235
278,1778428719820,0.8717886425,-0.0070773948125,0.89279600875,0.1743205325,-0.05268557375,-0.0623827805
279,1778428719830,0.86880064,-0.032715324,0.90346736,0.17706935,-0.030695075,-0.022524992
280,1778428719840,0.8758132875,-0.02809996325,0.8776121825000001,0.18600299125,0.0125223683749999,0.026419144875
281,1778428719850,0.8836491057142857,-0.0251626178571428,0.8661524457142857,0.17645851,0.016340164,0.048944138
282,1778428719860,0.8956077822222223,-0.0382983045555555,0.8652774177777778,0.1176135466666666,-0.0006278154333333,0.10174849
283,1778428719870,0.92119323125,-0.0548202722499999,0.89131340625,0.061619216,-0.0451263415,0.15309359875
284,1778428719880,0.9456954,-0.0578387425555555,0.9110050666666668,0.037185326,-0.084449634,0.17294613
285,1778428719890,0.95255555,-0.052015230875,0.95276898125,0.0080173706875,-0.1608055512499999,0.1569113925
286,1778428719900,0.9444758,-0.048813824,0.96740395,-0.0080173705,-0.20356485,0.13446276
287,1778428719910,0.9207583333333332,-0.0407916748888888,0.9647751444444445,-0.0249853501111111,-0.2394691022222222,0.1448471522222222
288,1778428719920,0.8818731,-0.0300322399999999,0.9556959575,-0.0385597335,-0.2614426425,0.1966164625
289,1778428719930,0.856238925,-0.035581345,0.9388581225,-0.063146335,-0.3063399075,0.2926722
290,1778428719940,0.8480372374999999,-0.049179701875,0.92151720875,-0.0915507295,-0.3731513174999999,0.40094487
291,1778428719950,0.8603178288888889,-0.0765153077777777,0.9230077622222222,-0.1189879558888888,-0.5162507777777778,0.5203824933333334
292,1778428719960,0.8684347825000001,-0.1019571649999999,0.9165779,-0.09643751125,-0.63803,0.535636705
293,1778428719970,0.8884020944444444,-0.1195530433333333,0.9048766555555556,-0.0379488836666666,-0.7121970133333334,0.4869216166666666
294,1778428719980,0.9258161625,-0.13633035875,0.9041686125,0.053372780625,-0.68666866125,0.4032355575
295,1778428719990,0.930725025,-0.143140975,0.870767285,0.1433200425,-0.6140541975,0.3158843975
296,1778428720000,0.9093213,-0.13470298,0.81584024,0.20700087,-0.5279247,0.22792238
297,1778428720010,0.8700202699999999,-0.0964080666666666,0.6312665433333333,0.1218216097222222,-0.35322242,0.1853666888888888
298,1778428720020,0.84172595,-0.0910419,0.53591543,-0.0086282175,-0.16752486,0.1662268
299,1778428720030,0.8233000444444445,-0.1110159622222222,0.4342733111111111,-0.1959716866666666,0.0249768655444444,0.1539419911111111
300,1778428720040,0.8419698687499999,-0.12104365,0.41185327875,-0.29114509,0.1415638525,0.12239852625
301,1778428720050,0.8874679625,-0.1259829625,0.4051760725,-0.29710084,0.190278925,0.033978378
302,1778428720060,0.911055877777778,-0.1216940944444444,0.3999115555555555,-0.2271588266666666,0.1764585,-0.061415598
303,1778428720070,0.90755293375,-0.10939663,0.40737133375,-0.14950487,0.153169955,-0.1447803375
304,1778428720080,0.87333218125,-0.12959217125,0.3709553475,-0.0747524325,0.13049224875,-0.1916533325
305,1778428720090,0.82607335625,-0.16497913625,0.29789086625,-0.0161110964999999,0.128201566875,-0.2234937425
306,1778428720100,0.7856183333333333,-0.1839504266666666,0.2359046833333333,0.0193350131111111,0.1603049833333333,-0.2390448888888888
307,1778428720110,0.7711832333333333,-0.1810776333333333,0.14854525,0.0630445291111111,0.2961845588888889,-0.2436601733333333
308,1778428720120,0.7965709,-0.1644913,0.12348281,0.100102596,0.4714977,-0.21990502
309,1778428720130,0.8306616555555555,-0.1467091016666666,0.1263285066666666,0.1268441297777778,0.6024905266666667,-0.1844758777777777
310,1778428720140,0.92420789,-0.0887780462499999,0.1391620825,0.17951273875,0.70835375,-0.15018253125
311,1778428720150,0.9848101244444444,-0.0870613111111111,0.1458994355555555,0.25994096,0.6478289666666668,-0.1440835933333333
312,1778428720160,1.024876825,-0.090119585,0.143750765,0.3030565975,0.5107446825,-0.149600305
313,1778428720170,1.0545127,-0.08442566,0.1378739,0.33466795,0.32794863,-0.17348062
314,1778428720180,1.0342677,-0.0566191559999999,0.105920814,0.3952775755555555,0.0016204439444444,-0.1679066433333333
315,1778428720190,1.0240232,-0.049545575,0.0690589,0.43545774,-0.29946786,-0.11476293
316,1778428720200,1.0138599888888888,-0.0608741496666666,0.0141742685111111,0.3652781755555556,-0.5713627822222223,-0.041189768
317,1778428720210,1.014876325,-0.0654611329999999,-0.002378187525,0.2512872875,-0.6920899549999999,0.01611109675
318,1778428720220,1.044455075,-0.0860149225,-0.026560238125,0.04031592,-0.7529455875,0.09254336125
319,1778428720230,1.1409168555555556,-0.0960150828888888,-0.0329185861111111,-0.16095825,-0.5943035000000001,0.1436254666666666
320,1778428720240,1.18037375,-0.07832774075,-0.01081999125,-0.2413610175,-0.459204425,0.16172181125
321,1778428720250,1.1887545874999998,-0.037498378,0.0602817155,-0.24158055125,-0.38964419,0.20226680375
322,1778428720260,1.1554739333333337,-0.0302558303333333,0.0955035413333333,-0.1401639933333333,-0.4888305266666667,0.2757720866666667
323,1778428720270,1.129944,-0.037593655,0.046374656,-0.10636378,-0.55358034,0.31160846
324,1778428720280,1.052401325,-0.0297197225,-0.080164735,-0.1483690775,-0.5281538112499999,0.38292488625
325,1778428720290,1.0120170444444443,-0.0287076383333333,-0.1194446388888888,-0.2248087511111111,-0.4279493988888889,0.4568543677777777
326,1778428720300,1.0135348,-0.031007906,-0.11982407,-0.24571331,-0.36666107,0.46920705
327,1778428720310,1.02027295,-0.035093510375,-0.11308586875,-0.25632678375,-0.31725879375,0.4278985
328,1778428720320,1.0257305,-0.038569324,-0.10396948,-0.30038412375,-0.24991289125,0.328024985
329,1778428720330,1.0049977,-0.055399574,-0.07296158,-0.3324536,-0.22372282,0.28045526
330,1778428720340,0.9941509875,-0.07530926925,-0.074973884375,-0.33428615,-0.18661384,0.255257795
331,1778428720350,0.98258779,-0.07558367575,-0.06424155325,-0.3061871975,-0.1117850475,0.193104095
332,1778428720360,0.97764856,-0.064424485,-0.048325993,-0.2933594,-0.1241547,0.16928105
333,1778428720370,0.97764856,-0.064424485,-0.048325993,-0.2933594,-0.1241547,0.16928105
334,1778428720380,0.94116009,-0.05405803225,-0.01275226925,-0.15815217475,-0.2455605925,0.0168746566499999
335,1778428720390,0.9151754,-0.060033992,-0.018781584,-0.023899399,-0.32634515,-0.08971819
336,1778428720400,0.9151754,-0.060033992,-0.018781584,-0.023899399,-0.32634515,-0.08971819
337,1778428720410,0.9095652833333332,-0.1035561773333333,-0.0567207897777777,0.059515186,-0.4054838088888888,-0.1526269766666666
338,1778428720420,0.90322345,-0.118360564,-0.05808266,0.092772424,-0.4472929,-0.16676131
339,1778428720430,0.90322345,-0.118360564,-0.05808266,0.092772424,-0.4472929,-0.16676131
340,1778428720440,0.9057236125,-0.099148317375,-0.0535397125,0.10712733675,-0.6316160625,-0.16279080125
341,1778428720450,0.90273565,-0.080279075,-0.06271707,0.1196497099999999,-0.727061,-0.1899735
342,1778428720460,0.8968545000000001,-0.0859535244444444,-0.0757090222222222,0.1632913533333333,-0.7816299888888889,-0.2738631866666667
343,1778428720470,0.8807106625000001,-0.09509701,-0.0812737975,0.2216612,-0.8247965,-0.38422292
344,1778428720480,0.8614832,-0.09494456,-0.07271766,0.31695336,-0.6720847,-0.4715741
345,1778428720490,0.85663535125,-0.0902758425,-0.06591848175,0.3610107262499999,-0.54617380875,-0.48814332375
346,1778428720500,0.8461164,-0.07515682,-0.065887995,0.43301436,-0.28236416,-0.5015056
347,1778428720510,0.8448969,-0.0585704929999999,-0.08738314,0.41896486,-0.15286453,-0.45263782
348,1778428720520,0.8485861375,-0.057716783875,-0.0891210475,0.4107947775,-0.15011571625,-0.437595705
349,1778428720530,0.93335475,-0.041862199,-0.06436351225,0.276179305,-0.2457133075,-0.2014937
350,1778428720540,0.958623,-0.045155074,-0.040764574,0.21310934,-0.40392274,-0.10682192
351,1778428720550,0.95294049,-0.063643193125,-0.06611285125,0.20188502375,-0.5379273625,-0.047951513
352,1778428720560,0.9386217975,-0.095279944375,-0.11125649,0.18035266125,-0.76859856875,0.04848600175
353,1778428720570,0.9046869,-0.10104248,-0.13153206,0.16057648,-0.81990975,0.03672719
354,1778428720580,0.9046869,-0.10104248,-0.13153206,0.16057648,-0.81990975,0.03672719
355,1778428720590,0.8796625874999999,-0.055102299875,-0.158934585,0.022677706,-0.7933378875,0.006490251725
356,1778428720600,0.893687825,-0.0406426155,-0.1846754125,-0.085976752,-0.6035934775,-0.00160347403
357,1778428720610,0.9156632,-0.04686249,-0.19912747,-0.106974624,-0.43324342,-0.0096972
358,1778428720620,0.9255723125,-0.064363513125,-0.2595692725,-0.04665345775,-0.2735068575,-0.0856140625
359,1778428720630,0.9223098875,-0.0705224075,-0.29340128,0.02786990675,-0.11728267625,-0.16492876
360,1778428720640,0.92761505,-0.07344941,-0.30016994,0.071392775,-0.030695075,-0.20341213
361,1778428720650,0.95313486,-0.1022010865,-0.2835226275,0.2048629,0.10552386125,-0.28686913625
362,1778428720660,0.97069688,-0.1035426245,-0.2945598675,0.25220355,0.11354123,-0.31397548
363,1778428720670,0.98237442875,-0.099243592,-0.31313183875,0.30664531125,0.12056598,-0.34375429125
364,1778428720680,0.9681086388888888,-0.1044573177777777,-0.3385766711111111,0.3754589588888889,0.15283908,-0.3753995777777777
365,1778428720690,0.9519152625,-0.11659217,-0.35075217,0.38903335,0.24250636125,-0.3818559
366,1778428720700,0.9546593075,-0.1353813649999999,-0.3562402925,0.3746784425,0.4043045125,-0.373838525
367,1778428720710,0.99424502,-0.1505880533333333,-0.3458128666666666,0.3055509,0.5787353377777777,-0.3453323155555556
368,1778428720720,1.0358608,-0.1529662474999999,-0.31714503,0.162561725,0.7100335875,-0.28839627
369,1778428720730,1.0713736,-0.14692931,-0.28382754,0.07627955,0.7451573,-0.25289077
370,1778428720740,1.0899924333333333,-0.1223445366666666,-0.2456647533333333,-0.084984128,0.6688014,-0.16673585
371,1778428720750,1.089209875,-0.09421281125,-0.22504361625,-0.221527585,0.53380416,-0.076890402
372,1778428720760,1.08350835,-0.0887513668749999,-0.22153731375,-0.286334665,0.43026552625,-0.0242811785
373,1778428720770,1.0612814000000002,-0.0814986566666666,-0.2200534866666666,-0.37243018,0.2182675944444444,0.0607538517777777
374,1778428720780,1.0518296,-0.07515682,-0.22135438,-0.41186377,0.08238802,0.10208785
375,1778428720790,1.04121925,-0.07299206,-0.231271115,-0.41071843125,0.0092104295,0.11201412
376,1778428720800,1.0083439125,-0.0723517799999999,-0.26394832,-0.3713951275,-0.27228516,0.13385191
377,1778428720810,0.98807599375,-0.0769557117499999,-0.28269941875,-0.32069482375,-0.345892255,0.146450625
378,1778428720820,0.976185,-0.081102294,-0.2925272333333333,-0.2553511311111111,-0.3698510399999999,0.1559102788888889
379,1778428720830,0.9874052,-0.091529734,-0.3006578,-0.2249445,-0.37887803,0.14973393
380,1778428720840,1.031218675,-0.0811670835,-0.3029140125,-0.3203130375,-0.3364241225,0.131943015
381,1778428720850,1.0754387333333333,-0.0466998786666666,-0.2545473733333333,-0.41308546,-0.3287885299999999,0.1287615166666667
382,1778428720860,1.089972025,-0.02896129275,-0.2170515375,-0.48249297375,-0.34749572375,0.1322484325
383,1778428720870,1.06904865,-0.005305187325,-0.1566783514999999,-0.53724016375,-0.407435125,0.147901395
384,1778428720880,1.0536997,0.0092688339666666,-0.0846085993333333,-0.4901201155555555,-0.5216126711111111,0.19127155
385,1778428720890,1.0443291875,0.0107933129375,-0.057716784,-0.37963203,-0.57137124875,0.2143310387499999
386,1778428720900,1.01000814,-0.0084320636666666,-0.0410084894444444,-0.1391459187777778,-0.6122895166666668,0.26063664
387,1778428720910,0.973197045,-0.03241042725,-0.07498150375,0.03672719075,-0.6189409875,0.3019876075
388,1778428720920,0.96374524,-0.029048951,-0.1203195175,0.0984227625,-0.5751127,0.3073325375
389,1778428720930,0.9751822911111112,0.0088352031111111,-0.1677469177777777,0.0533388431111111,-0.5011832266666667,0.2653198222222222
390,1778428720940,0.951942015,-0.009146875,-0.2293464725,-0.0935550719999999,-0.3888042849999999,0.2086806925
391,1778428720950,0.9286517175,-0.000487833325,-0.306580395,-0.28572379625,-0.23280917375,0.238612205
392,1778428720960,0.9336520525,0.0032014063625,-0.3193745675,-0.41995749625,-0.0572573857499999,0.30985226625
393,1778428720970,0.9447197666666668,0.0057184913333333,-0.2719501422222222,-0.4713195666666666,0.0783157093333333,0.3928511466666666
394,1778428720980,0.9724043375,-0.03513543625,-0.129435897,-0.4259132475,0.092161579,0.42835664375
395,1778428720990,0.979630325,-0.0691846825,-0.0560665345,-0.3330644674999999,0.03426471275,0.4125509725
396,1778428721000,0.9838819388888888,-0.0945109366666666,-0.0294630995555555,-0.2053804255555555,-0.0335456956666666,0.34330464
397,1778428721010,0.98319377375,-0.09664816875,-0.0408865317499999,-0.119649707,-0.034656036625,0.2118112795
398,1778428721020,0.92620493,-0.068875969,-0.0570460105,-0.097201068,0.093230562,-0.075076948
399,1778428721030,0.8651961555555556,-0.0216509915555555,-0.0551556533333333,-0.1269289708888888,0.2230186366666666,-0.2161720688888889
400,1778428721040,0.827936985,0.0192770395,-0.0098328885,-0.1104870024999999,0.2720561025,-0.26426781125
401,1778428721050,0.81291324,0.036130156,0.054423906,-0.0385597325,0.1928654815,-0.23716144375
402,1778428721060,0.8923929133333333,-0.0103664579444444,0.078588598,0.1316630399999999,-0.0963272217777777,-0.1338943213333333
403,1778428721070,0.954331635,-0.033012596,0.0440498265,0.2286859375,-0.3746020875,-0.02741177075
404,1778428721080,0.9829536875,-0.0341635785,0.0032852514999999,0.2453315225,-0.5202891375,0.07001836625
405,1778428721090,0.96271534,-0.1085835724444444,-0.0710373424444444,0.1658704866666666,-0.4922919566666667,0.11369394
406,1778428721100,0.97959983,-0.14351447,-0.068571076,0.0884965,-0.39781427,0.0782648
407,1778428721110,0.9623494977777778,-0.1358039933333333,-0.0476348944444444,0.1360068422222222,-0.0798682744444444,-0.0651146222222222
408,1778428721120,0.94005483,-0.12592198,-0.027318668,0.19539477,0.31756422,-0.2443389
409,1778428721130,0.9356372266666668,-0.1214467866666666,-0.026939242,0.2044896066666666,0.3574050344444444,-0.2615104944444444
410,1778428721140,0.8783210175,-6.09792249999996e-05,0.0150694761249999,0.3453577599999999,0.972697875,-0.474781035
411,1778428721150,0.89078367,-0.011951917,0.070522405,0.2777064275,0.90703185,-0.458135445
412,1778428721160,0.8907836699999999,-0.011951917,0.070522405,0.16546325,0.7732563,-0.4343124
413,1778428721170,0.90234303625,-0.0199744886249999,0.075008185625,0.14759596775,0.7705838375,-0.4343887575
414,1778428721180,0.9839369425,-0.04069597175,0.1759630125,-0.0104607595,0.8503757125,-0.47249034
415,1778428721190,0.93907917,-0.005610083,0.27382696,-0.02145601,0.88320875,-0.4850127
416,1778428721200,0.848243075,0.040863664,0.3475279149999999,-0.0140494870625,1.1448041375,-0.5632775062500001
417,1778428721210,0.7717929666666666,0.0791679,0.4093429888888888,-0.03917058,1.1031138,-0.48684525
418,1778428721220,0.7533671,0.08125474,0.42584804,-0.03917058,1.1031138,-0.48684525
419,1778428721230,0.7547391625,0.0693638025,0.42081724,-0.0923142925,1.03340085,-0.3240544675
420,1778428721240,0.73897606,0.06613191,0.4544167499999999,-0.1753216533333333,1.0423684666666666,-0.063935346
421,1778428721250,0.73897606,0.06613191,0.45441675,-0.18333054,1.0444725,-0.037796173
422,1778428721260,0.8043495175,0.08480677875,0.46417343,-0.2743086025,0.8677085499999999,0.14599249475
423,1778428721270,0.91444355,0.10835998,0.47295445,-0.41797224,0.622377,0.39773792
424,1778428721280,0.91444355,0.10835998,0.4729544499999999,-0.41797224,0.622377,0.39773792
425,1778428721290,0.9696525875,0.020984455875,0.5168213125,-0.4199574875,0.4775298525,0.37170055
426,1778428721300,0.9839903,-0.033934906,0.5344519,-0.39476004,0.43790114,0.32077116
427,1778428721310,0.93956697,-0.05198474,0.5478978,-0.3672719,0.5527404,0.23830679
428,1778428721320,0.91276665875,-0.031575774875,0.6115257725,-0.33902022625,0.65589725,0.21448375
429,1778428721330,0.8988329375,-0.010518905875,0.6412874024999999,-0.2772482962499999,0.6977402875,0.24708772
430,1778428721340,0.9022478,-0.019269416,0.642568,-0.22433366,0.6736882,0.2914505
431,1778428721350,0.93027204,-0.0809890434285714,0.6623078171428572,-0.2248572457142857,0.5680988628571428,0.3624833171428571
432,1778428721360,0.96862364,-0.15912513,0.72287756,-0.2408265299999999,0.44828552,0.4166742
433,1778428721370,0.96862364,-0.15912513,0.72287756,-0.2408265299999999,0.44828552,0.4166742
434,1778428721380,0.96862364,-0.15912513,0.72287756,-0.24082653,0.44828552,0.4166742
435,1778428721390,0.98158550125,-0.159578665,0.72549967375,-0.21752844,0.36269054875,0.44164258
436,1778428721400,0.98862475,-0.1207997299999999,0.61842024,0.014583978,0.14713784,0.4325562
437,1778428721410,0.96434745,-0.1363570425,0.5611303049999999,0.0745997215,0.2575484675,0.3624614925
438,1778428721420,0.93802219,-0.1579326577777778,0.5493918111111111,0.1094010488888889,0.4006394455555556,0.2910432744444444
439,1778428721430,0.9317616,-0.17424797,0.5871684,0.10560022,0.4647784,0.25968644
440,1778428721440,0.9433095975,-0.1760773474999999,0.641729475,0.096895645,0.4739411125,0.2376959375
441,1778428721450,0.9547203325,-0.160645805,0.66311794375,0.08276980375,0.4609606075,0.210055095
442,1778428721460,0.9503298,-0.12640981,0.6928453,0.1752368,0.4067479,0.17416783
443,1778428721470,0.9417148333333336,-0.1423253777777778,0.6699103588888888,0.2277696722222222,0.4238516333333333,0.1773578033333333
444,1778428721480,0.9346276625,-0.16427788,0.652115035,0.25174541875,0.48883051875,0.18684289875
445,1778428721490,0.9376157,-0.17985806,0.6625996,0.24426255,0.56740075,0.18577392
446,1778428721500,0.9379968,-0.187480455,0.66888048,0.221050355,0.6477271575,0.168212055
447,1778428721510,0.9179194,-0.186234195,0.6955017462499999,0.20272494,0.6756734125,0.16179816
448,1778428721520,0.9200537,-0.2086707,0.73970777,0.16973919,0.64131325,0.18333054
449,1778428721530,0.95849345,-0.2061896212499999,0.83863124375,0.109418015,0.53502582875,0.235939755
450,1778428721540,0.995096175,-0.195468725,0.925793375,0.080860905,0.3798706425,0.3161898075
451,1778428721550,1.0311305777777775,-0.1790991966666666,0.9547745066666666,0.0758723155555555,0.25946585,0.3605441133333333
452,1778428721560,1.061129,-0.16790615,0.94471973,0.0361163445,0.116137335,0.33375168
453,1778428721570,1.0600618333333334,-0.158556,0.9392621133333334,-0.0011623064444444,0.034860718,0.2798444133333333
454,1778428721580,1.0460976875,-0.15424680375,0.9253283475,-0.0616192155,-0.0930014959999999,0.1605001175
455,1778428721590,1.0050619777777776,-0.1495581899999999,0.8956993,-0.11349033,-0.16915379,0.0458899023333333
456,1778428721600,0.9847830375,-0.1490026025,0.8831308,-0.16050011875,-0.2136438325,-0.0310768543749999
457,1778428721610,0.96301347,-0.15449072,0.8822161,-0.1906607,-0.23349637,-0.06772769
458,1778428721620,0.9246610511111112,-0.1668762644444444,0.8826226733333333,-0.2355155533333333,-0.2216866533333333,-0.0860531083333333
459,1778428721630,0.8968816399999999,-0.1547346425,0.87794757,-0.30007872,-0.208298915,-0.06390989625
460,1778428721640,0.8927960025,-0.1483623075,0.87447557875,-0.32199286375,-0.19127155625,-0.034589228
461,1778428721650,0.9167201466666668,-0.1529459133333333,0.90964661,-0.3288564,-0.1356250622222222,0.0162977447777777
462,1778428721660,0.92956644,-0.16936964,0.94151837,-0.2854184,-0.10521844,0.038559735
463,1778428721670,0.9680781844444444,-0.2134101555555555,0.9716827744444444,-0.1891081344444444,-0.1035216455555555,0.0359806017777777
464,1778428721680,0.9986592555555556,-0.2464235933333333,0.9752906666666666,-0.1163409533333333,-0.1384078133333333,0.023899399
465,1778428721690,1.0064306625,-0.24574605,0.92164673125,-0.0817771725,-0.1907370625,0.00679567575
466,1778428721700,1.0014570125,-0.2298304725,0.8607781250000001,-0.0742179395,-0.2179961175,-0.01809635025
467,1778428721710,0.9800335222222222,-0.1986904533333333,0.8116666000000001,-0.0972010693333333,-0.1779092566666666,-0.04512634
468,1778428721720,0.9433511055555556,-0.1892894966666666,0.8014492444444444,-0.1319514911111111,-0.1384078033333333,-0.0615513462222222
469,1778428721730,0.92761505,-0.19985923,0.8026688,-0.15400986,-0.12110047,-0.065284304
470,1778428721740,0.9399532022222225,-0.2297017633333333,0.825956,-0.1833984055555555,-0.0657848588888889,-0.0844920513333333
471,1778428721750,0.9506271225,-0.235501545,0.8498361750000001,-0.16729579375,-0.0529146445,-0.12584408375
472,1778428721760,0.937707165,-0.22077507375,0.8503849875,-0.081319045,-0.0923906479999999,-0.19088977
473,1778428721770,0.9275541475,-0.1999163924999999,0.83163010375,-0.01649287625,-0.1171299574999999,-0.21746162
474,1778428721780,0.9120857844444444,-0.1836252188888888,0.7948871877777778,0.1275228488888888,-0.1852394244444444,-0.2530265155555555
475,1778428721790,0.87571422,-0.18687065,0.7442735875000001,0.3000023575,-0.3035910874999999,-0.2625116
476,1778428721800,0.8329297499999999,-0.173272305,0.64721765,0.508453985,-0.4066715549999999,-0.252890775
477,1778428721810,0.8258172288888889,-0.1605310577777777,0.6074677111111111,0.5712694333333332,-0.3796245977777778,-0.2441352944444444
478,1778428721820,0.844530995,-0.11798707,0.5456339674999999,0.5759525999999999,-0.26296975,-0.2363978875
479,1778428721830,0.8836796,-0.07954732,0.53518367,0.5173113,-0.1681357,-0.24739315
480,1778428721840,0.8907493725,-0.056283771125,0.55249793375,0.46600010125,-0.1456870675,-0.26182439375
481,1778428721850,0.8804476625,-0.031343292125,0.5411862975,0.3951418,-0.21089502,-0.2987043
482,1778428721860,0.8706707288888889,-0.0485732945555555,0.4928166911111111,0.3739657866666667,-0.22630194,-0.32687113
483,1778428721870,0.84458436,-0.11897035375,0.42316492,0.362308785,-0.1136175865,-0.4107947775
484,1778428721880,0.82681656,-0.13689823,0.41145694,0.38109234,-0.021532366,-0.4263714
485,1778428721890,0.83072682,-0.06803750585,0.43549035,0.41942300625,0.14950487125,-0.408504095
486,1778428721900,0.8430152,0.0028224647142857,0.4577619,0.4516888328571428,0.1884136585714285,-0.3622324428571429
487,1778428721910,0.856665775,0.03074112375,0.4569778575,0.4355341025,0.101906502025,-0.3010713475
488,1778428721920,0.88567283875,0.045753431625,0.432086925,0.404915375,-0.02504473595,-0.22830417
489,1778428721930,0.8910275699999999,0.018293751,0.41194475,0.38292488,-0.1217113099999999,-0.1783674
490,1778428721940,0.87637352625,-0.0064028127499999,0.3686304999999999,0.3775799675,-0.16981554125,-0.148540875
491,1778428721950,0.8368984177777778,-0.0475095477777777,0.2260463777777777,0.34993914,-0.18585028,-0.06467345
492,1778428721960,0.8254750075,-0.0514283027499999,0.1289252025,0.2744994825,-0.0826170905,-0.0623827775
493,1778428721970,0.8172428375,-0.01451304075,0.0782057835,0.154697064125,0.0194802995,-0.08360972
494,1778428721980,0.81174792,0.0326103053333333,0.0622292386666666,0.0315519578888888,0.0992202544444444,-0.1135412299999999
495,1778428721990,0.8438449225,0.0660099525,0.076079135,-0.064673455,0.1783673975,-0.09590301875
496,1778428722000,0.90794929,0.042380519,0.1411362833333333,-0.0862058228888889,0.1818203888888888,-0.0586328564444444
497,1778428722010,0.9529519475,-0.026472581,0.2095015625,-0.0067956747499999,0.093364193675,-0.03031329475
498,1778428722020,0.9562981625,-0.08583580125,0.2323306425,0.1453816525,-0.0145839783875,-0.028709820375
499,1778428722030,0.88601584625,-0.08163967125,0.16983460875,0.27625568125,-0.121558605,-0.04062134375
500,1778428722040,0.82177048,-0.060277906,0.1037179365,0.292366775,-0.180352655,-0.065437015
501,1778428722050,0.7699534,-0.034666654,0.060521826,0.26625305,-0.19867808,-0.10437853
502,1778428722060,0.71479785,0.008293167,0.014635001,0.19234054,-0.14125843,-0.102545984
503,1778428722070,0.71479785,0.008293167,0.014635001,0.19234054,-0.14125843,-0.102545984
504,1778428722080,0.843395225,0.0547478599999999,0.017603923875,0.000687203,0.0084564165,0.10361496875
505,1778428722090,0.9100531,0.01097625,0.030276157,-0.031840414,-0.08872557,0.18516308
506,1778428722100,0.92426886,-0.002690705,0.0297197225,-0.04283566425,-0.1287360625,0.197532735
507,1778428722110,0.9836651,-0.0772707683333333,0.0057726946666666,-0.1116577927777777,-0.3626566244444444,0.2396642266666666
508,1778428722120,0.9839903,-0.072229825,-0.010000584,-0.14912309,-0.4185831,0.2114295
509,1778428722130,0.9839903,-0.072229825,-0.010000584,-0.14912309,-0.4185831,0.2114295
510,1778428722140,0.98862475,0.0073175007,-0.04564291,-0.3965926,-0.6213844,0.019623468
511,1778428722150,0.969843175,0.01597654285,-0.063448825,-0.4793623999999999,-0.714844025,-0.032603976
512,1778428722160,0.9515799125,0.027261500625,-0.0899823825,-0.5748836374999999,-0.8515210937500001,-0.08834379125
513,1778428722170,0.9536226675,0.034780995,-0.1550395299999999,-0.6641437,-1.1540432,-0.11293039
514,1778428722180,0.9420231388888888,-0.0269798939999999,-0.15575096,-0.66658705,-1.2401726,-0.102545984
515,1778428722190,0.935210825,-0.060796230125,-0.1485490575,-0.66330375125,-1.210775575,-0.10804360975
516,1778428722200,0.9742336944444444,-0.0151092822777777,-0.2465353788888888,-0.7231244044444445,-0.8692525944444445,-0.1570895511111111
517,1778428722210,0.99569833,0.0065857503,-0.28699845,-0.7893674,-0.76065755,-0.1655396
518,1778428722220,0.99569833,0.0065857503,-0.28699845,-0.7893674,-0.76065755,-0.1655396
519,1778428722230,1.019226188888889,-0.0330100560666666,-0.1969085,-1.0552895777777778,-0.7956115688888888,-0.18495097
520,1778428722240,1.0281698,-0.060521826,-0.16766222,-1.0489775,-0.94452256,-0.21440738
521,1778428722250,1.0281698,-0.060521826,-0.16766222,-1.0489775,-0.94452256,-0.21440738
522,1778428722260,0.9907691911111112,-0.1083294911111111,-0.1146984253333333,-0.7804761466666666,-0.4186509411111111,-0.20741658
523,1778428722270,0.96594054,-0.13153206,-0.046374656,-0.61099994,-0.16508147,-0.17103723
524,1778428722280,0.96594054,-0.13153206,-0.046374656,-0.61099994,-0.16508147,-0.17103723
525,1778428722290,0.91804519,-0.15018788,-0.002778363,-0.22520219875,0.1490944505,-0.03795843
526,1778428722300,0.90737003,-0.15400289,0.005366167,-0.07215633,0.26258796,0.01718008
527,1778428722310,0.90737003,-0.15400289,0.005366167,-0.07215633,0.26258796,0.01718008
528,1778428722320,1.00618293375,-0.164094945,-0.03484578575,0.4965424475,0.384986495,0.191424255
529,1778428722330,1.0437262111111112,-0.1451405844444444,-0.0619040216666666,0.6726022066666667,0.2267515955555555,0.2322661866666666
530,1778428722340,1.047927,-0.14299615,-0.065156244,0.7335512,0.10743276,0.22914408
531,1778428722350,1.0673069,-0.13348339625,-0.095329495625,0.74622628625,0.15065020625,0.1986017175
532,1778428722360,1.0775797666666669,-0.1216669875555555,-0.1196072479999999,0.7636863377777777,0.2349640966666666,0.1603898277777777
533,1778428722370,1.0899112,-0.107628234,-0.12738548,0.7750888,0.39025503,0.16256173
534,1778428722380,1.1263564,-0.0670025571111111,-0.0951817088888888,0.7955861533333333,0.5914274066666666,0.1592359988888888
535,1778428722390,1.100521575,-0.05076516,-0.0519504392499999,0.7942541325000001,0.64116055125,0.1808871375
536,1778428722400,1.0825937,-0.04564291,-0.026099084,0.77447796,0.5887804,0.21937053
537,1778428722410,1.0869299444444445,-0.0102207865111111,-0.0382474886666666,0.6865159511111111,0.3585588622222222,0.2742110366666666
538,1778428722420,1.1035705,0.0039026667,-0.07783991,0.5590015875,0.0865876005,0.29389388
539,1778428722430,1.1035705,0.0039026667,-0.07783991,0.542356,0.051845662,0.29572642
540,1778428722440,1.1035705,0.0039026666999999,-0.07783991,0.542356,0.051845662,0.29572642
541,1778428722450,1.1035705,0.0039026667,-0.07783991,0.542356,0.051845662,0.29572642
542,1778428722460,1.0891827444444444,-0.0050951482522222,-0.1792685866666666,0.1512780188888888,-0.0557907168888888,0.1496660626666666
543,1778428722470,1.0645438,-0.0102445,-0.20769504,-0.08742751,-0.003206948,0.061161082
544,1778428722480,1.0212524125,-0.0118985601874999,-0.1933687575,-0.21523775625,-0.0373380395,0.049707696
545,1778428722490,1.0054855,-0.032715324,-0.18888296,-0.32512346,-0.12965234,0.046500746
546,1778428722500,1.0054855,-0.032715324,-0.18888296,-0.32512346,-0.12965234,0.046500746
547,1778428722510,0.9944673125,-0.045094095,-0.18665722375,-0.3587200525,-0.22792239,0.023823042325
548,1778428722520,0.9676208044444444,-0.0644786977777777,-0.1860372744444444,-0.4071805955555556,-0.4228590133333333,-0.0307374944444444
549,1778428722530,0.94589748125,-0.06692464025,-0.18662674375,-0.373991245,-0.471268655,-0.0768904
550,1778428722540,0.936884,-0.067839324,-0.18571205,-0.33001024,-0.46256408,-0.10987615
551,1778428722550,0.933438625,-0.06405861225,-0.1688208275,-0.2439571224999999,-0.3759764949999999,-0.14408360125
552,1778428722560,0.9224928,-0.059546154,-0.14863673,-0.11247225,-0.20234315,-0.18142164
553,1778428722570,0.9203246333333333,-0.0560229151111111,-0.1448255244444444,-0.0942825744444444,-0.1909406699999999,-0.1838650266666666
554,1778428722580,0.92575519375,-0.049088229625,-0.1510949475,0.00175618875,-0.17821468875,-0.199517985
555,1778428722590,0.94445298,-0.0418621955,-0.1840732425,0.0849077655,-0.21135315375,-0.21494187375
556,1778428722600,0.9478026044444444,-0.04542609,-0.2064754666666667,0.1108263586666666,-0.2387224999999999,-0.1954711266666666
557,1778428722610,0.94151837,-0.05149691,-0.21501255,0.13980767,-0.26342788,-0.17409147
558,1778428722620,0.932357937777778,-0.07114914,-0.2310060299999999,0.1754404288888889,-0.2620025717777778,-0.1753131611111111
559,1778428722630,0.9042296,-0.1248243587499999,-0.28290141625,0.2992388025,-0.0011167049999999,-0.22028678625
560,1778428722640,0.9024002125,-0.121805895,-0.2421139575,0.3511608175,0.2212030625,-0.22326467
561,1778428722650,0.924881177777778,-0.10876312,-0.1674691211111111,0.39697435,0.37376216,-0.21501824
562,1778428722660,0.9617938588888888,-0.0661285187777777,-0.1245668788888889,0.3850288833333333,0.4948456622222222,-0.1889554222222222
563,1778428722670,0.97935593,-0.027074749,-0.09031015,0.2910262888888889,0.526677621111111,-0.136074711
564,1778428722680,1.0185350125,0.01134212470875,-0.0488748024999999,0.1228566575,0.3445942225,-0.0009926267499999
565,1778428722690,1.0335630222222223,-0.0028456946266666,-0.0688454788888888,0.0828631288888888,0.1804544712222222,0.0715454828888889
566,1778428722700,1.0185757333333332,-0.0405816366666666,-0.1388597233333333,0.1284051833333333,-0.0486132593333333,0.114304794
567,1778428722710,1.0076808,-0.06661974,-0.18473639,0.16301987,-0.13087402,0.10208785
568,1778428722720,0.9932354599999998,-0.0530688144444444,-0.1994865833333333,0.1544680055555555,-0.0780018004444444,0.0252568373333333
569,1778428722730,0.97408117375,-0.04274639325,-0.20982552125,0.11903886,0.014507622,-0.034741938
570,1778428722740,0.95425915,-0.0306077302499999,-0.19312102875,-0.037576651625,0.2110477312499999,-0.10338589875
571,1778428722750,0.9335537888888888,0.0130664804444444,-0.1472443682222222,-0.24001207,0.4207974133333333,-0.1074327572222222
572,1778428722760,0.9576473,0.053204324,-0.020976834,-0.47783527,0.4696652,-0.024357535
573,1778428722770,0.966798,0.0518018035,-0.0027364409999999,-0.49135026875,0.35725975875,-0.010078980625
574,1778428722780,1.02655005,0.037833765,0.1173505925,-0.57259297125,-0.47279577625,0.087732935
575,1778428722790,0.9666621,-0.0238428533333333,0.0428683522233333,-0.4338542588888889,-0.7994803,0.0639438306666666
576,1778428722800,0.9071261,-0.08909056,0.00024391667,-0.27564484,-0.8840487,0.033062108
577,1778428722810,0.8676387222222223,-0.1357057422222222,-0.0581063737033333,-0.1159422088888889,-0.6994370555555556,-0.0266651791111111
578,1778428722820,0.8603246,-0.14531716125,-0.07220314875,-0.082998875125,-0.61855918125,-0.043370155
579,1778428722830,0.8588001,-0.12884897,-0.09494456,-0.006795676,0.33100286,-0.175924
580,1778428722840,0.8719716,-0.06100966,-0.014391083,-0.011682454,0.67979664,-0.20341213
581,1778428722850,0.8899943022222223,-0.0273762591111111,0.1072962396666666,0.0105795353333333,0.6949999555555556,-0.1985253566666666
582,1778428722860,0.9198098,-0.039544992,0.14104481,0.05673244,0.52830654,-0.20280129
583,1778428722870,0.931151875,-0.086506570875,0.1088782975,0.174549605,0.5034908524999999,-0.26052635625
584,1778428722880,0.910266511111111,-0.1171951866666666,0.1000397088888888,0.2614341555555556,0.5752738833333333,-0.3038625744444444
585,1778428722890,0.87416686,-0.0945100875,0.137698585,0.28992339,0.68132375,-0.30481278
586,1778428722900,0.8601721375,-0.05707650375,0.184004635,0.286487365,0.76523890625,-0.28312771125
587,1778428722910,0.87212780875,-0.043142764375,0.1844314825,0.29534466,0.743324805,-0.2562504375
588,1778428722920,0.9113539522222224,-0.060359215,0.1430672955555555,0.33141008,0.63316866,-0.2333436499999999
589,1778428722930,0.93981093,-0.07174199,0.13031249,0.34688488,0.5924455,-0.23456535
590,1778428722940,0.9719841666666666,-0.0413066105555555,0.1187162833333333,0.32978117,0.6290963,-0.26694027
591,1778428722950,0.9551967375,-0.0591497918749999,0.16901519375,0.2664057825,0.81265595,-0.311073975
592,1778428722960,0.932676385,-0.063197282,0.2280087375,0.1914242625,0.966589425,-0.34115819
593,1778428722970,0.928712705,-0.016403397,0.3339066875,0.098270053,1.1099858,-0.3403946399999999
594,1778428722980,0.931490711111111,0.0170199623333333,0.4308686355555555,0.0305338785555555,1.1316199777777778,-0.3102425277777778
595,1778428722990,0.9215172,0.022440333,0.49640092,-0.012904149,0.9638406,-0.24128467
596,1778428723000,0.8988328875,0.02116739375,0.4695396225,-0.0532200664999999,0.6017608925,-0.08544226175
597,1778428723010,0.8928434066666667,0.052309963,0.4314310266666667,-0.0870881533333333,0.5038047377777778,-0.0238145591111111
598,1778428723020,0.9192685425,0.08925063625,0.4074933,-0.213433845,0.4299601025,0.0307714305
599,1778428723030,0.95295195375,0.11479328875,0.3906935375,-0.3723114012499999,0.41812494125,0.03069507505
600,1778428723040,0.9805483911111113,0.1005512648888888,0.3999386566666666,-0.5541911833333333,0.4357292422222222,-0.0014168263555555
601,1778428723050,0.979965725,0.04917207625,0.42695326,-0.68949382625,0.4329380175,-0.0123696571249999
602,1778428723060,0.9613061,0.006341833,0.44490403,-0.76859856,0.46661094,-0.022524992
603,1778428723070,0.8972512525,-0.03103458475,0.5213375812500001,-0.8017370325,0.538232805,0.020234316375
604,1778428723080,0.88810056,-0.036374073,0.53225666,-0.8064711,0.5484645,0.026342789
605,1778428723090,0.87263093125,-0.0299598268749999,0.593270125,-0.73897248,0.49593163125,0.094452258125
606,1778428723100,0.86910944875,-0.030584862125,0.7522694962500001,-0.473712045,0.28060796375,0.276026595
607,1778428723110,0.8917593399999999,-0.046618573,0.72580457,-0.32939938,0.21860696,0.26640576
608,1778428723120,0.919443835,-0.05088711675,0.6218350975,-0.23469897,0.2729723675,0.2155527325
609,1778428723130,0.9248236,-0.0431495375555555,0.5147150044444445,-0.1584215422222222,0.4064764366666666,0.1220421944444444
610,1778428723140,0.9346887,-0.05149691,0.44734317,-0.15889664,0.56373566,0.05077668
611,1778428723150,0.94206038,-0.0389216477777777,0.5048262188888889,-0.1773578044444444,0.6945927088888889,-0.00297788
612,1778428723160,0.9085591175,-0.05439341875,0.64419151875,-0.16256172875,0.71744012375,0.019088976875
613,1778428723170,0.8973694,-0.065887995,0.74970835,-0.14790139,0.686516,0.07032379
614,1778428723180,0.9113641375,-0.063906167875,0.8725890012499999,-0.10246963125,0.5817556625,0.15210096625
615,1778428723190,0.9254199,-0.0615584705,0.9285450125,-0.01595838525,0.346274045,0.2318928925
616,1778428723200,0.9312738,-0.05588741,0.88002086,0.015194826,0.2216612,0.24563695
617,1778428723210,0.9312738,-0.05588741,0.88002086,0.015194826,0.2216612,0.24563695
618,1778428723220,0.9351765155555556,-0.0580555544444444,0.7846291244444444,0.0518456583333333,0.1270477477777777,0.1962940711111111
619,1778428723230,0.9288347,-0.0690589,0.70260197,0.054899897,0.08788565,0.13751699
620,1778428723240,0.9288347,-0.0690589,0.70260197,0.054899897,0.08788565,0.13751699
621,1778428723250,0.8997916611111112,-0.0489493318888888,0.7255233699999999,0.0417327454444444,0.1664134577777777,0.105752932
622,1778428723260,0.88302030625,-0.044301366,0.7956866625,0.046958885,0.2117349349999999,0.088496493
623,1778428723270,0.8888324,-0.052228656,0.8238895,0.065284304,0.198449,0.08070819
624,1778428723280,0.88009492,-0.0454686802857142,0.84119894,0.0977464725714285,0.1805599071428571,0.0861185542857142
625,1778428723290,0.8753865,-0.032471407,0.85221434,0.12392564,0.16485241,0.09292514
626,1778428723300,0.89322287,-0.045155074,0.85221434,0.14225106,0.14713784,0.11186141
627,1778428723310,0.8932228700000001,-0.045155074,0.85221434,0.14225106,0.14713784,0.11186141
628,1778428723320,0.900540345,-0.057503359,0.84596397125,0.14912309125,0.1643179149999999,0.10957072875
629,1778428723330,0.9321004111111112,-0.0709018344444444,0.9062961222222222,0.1423868033333333,0.1361425873333333,0.1236032488888888
630,1778428723340,0.9459393,-0.06954674,0.9327374,0.12881242,0.102545984,0.13446276
631,1778428723350,0.9519017,-0.0492203506666666,0.957372922222222,0.0959624106666666,0.028633466,0.1164088288888888
632,1778428723360,0.94532952375,-0.04247198825,0.97133716875,0.08498412775,-0.028251686125,0.0843732775
633,1778428723370,0.94471973,-0.044911157,0.9742337,0.096437514,-0.055739813,0.06910209
634,1778428723380,0.94471973,-0.044911157,0.9742337,0.096437514,-0.055739813,0.06910209
635,1778428723390,0.94319907625,-0.084635275875,0.9735934625,0.12904148925,-0.188293665375,0.033291175
636,1778428723400,0.9373718,-0.09616415,0.94078666,0.14652699,-0.2585411,0.026953636
637,1778428723410,0.9373718,-0.09616415,0.94078666,0.14652699,-0.2585411,0.026953636
638,1778428723420,0.9257179755555556,-0.0786868422222222,0.9083999022222224,0.1617302933333333,-0.2820926533333334,0.0363878313333333
639,1778428723430,0.919352425,-0.0659184825,0.91923050625,0.163401635,-0.3213820175,0.0432174435
640,1778428723440,0.9127362,-0.06954674,0.91688275,0.15752223,-0.37643462,0.0458899
641,1778428723450,0.9086980033333334,-0.0832365638888888,0.9028711499999998,0.16838175,-0.3715478466666667,0.0388312226666666
642,1778428723460,0.90797979375,-0.0908284675,0.8997781275,0.2260898425,-0.3180987075,0.0071010997499999
643,1778428723470,0.9122484,-0.09738373,0.90785784,0.26136628,-0.29885703,-0.012140589
644,1778428723480,0.918102405,-0.10756725375,0.91749258,0.32329091,-0.27388864625,-0.0259610086249999
645,1778428723490,0.94298184,-0.117384896,0.9176145,0.37192962,-0.26403874,-0.042072106
646,1778428723500,0.9455531222222222,-0.10762823,0.910866211111111,0.3780381066666666,-0.2961421444444444,-0.06345176
647,1778428723510,0.9337739675,-0.0846314625,0.904443025,0.440955365,-0.2877854187499999,-0.055892525
648,1778428723520,0.9265310566666668,-0.0765661227777777,0.8988600222222222,0.4935560977777777,-0.2792420277777778,-0.0359636328888888
649,1778428723530,0.90801029375,-0.074425076875,0.91849873875,0.555031075,-0.28999975,0.0019088977499999
650,1778428723540,0.8980198888888888,-0.0797946337777777,0.9265310566666668,0.6040516,-0.3037438,0.038559735
651,1778428723550,0.899686625,-0.0951884805,0.9012644625,0.6605549275,-0.344670565,0.0718509115
652,1778428723560,0.905066388888889,-0.0914687513333333,0.84295906,0.6653399,-0.3737197511111111,0.0596679008888888
653,1778428723570,0.8959593,-0.05436293025,0.7561645025,0.6468109,-0.38559732,0.033062108
654,1778428723580,0.8817282555555556,-0.0357236312222222,0.6976422888888888,0.5907486844444444,-0.3517971222222222,-0.0182490624444444
655,1778428723590,0.8697763,-0.03515449,0.6606483,0.53930175,-0.27564484,-0.060397524
656,1778428723600,0.8308031025,-0.0442403855,0.662210895,0.493106435,-0.08977546275,-0.10498937675
657,1778428723610,0.8038884,-0.050277323,0.68674743,0.47821704,0.055510744,-0.12881242
658,1778428723620,0.7840430488888889,-0.0637198412222222,0.72758987,0.5463604422222221,0.2109374404444444,-0.1240613755555555
659,1778428723630,0.76117244,-0.0547288004999999,0.7233577375,0.5899257437500001,0.20256268275,-0.09865183375
660,1778428723640,0.73629296,-0.04027674,0.7013824,0.5851153,0.030389652,-0.06284091
661,1778428723650,0.7156438825,-0.0089372595625,0.62241055625,0.53273517,-0.2564031425,0.00755923525
662,1778428723660,0.70674855,0.0026830835,0.5447269,0.498375,-0.3397838,0.057496
663,1778428723670,0.70674855,0.0026830835,0.5447269,0.498375,-0.3397838,0.057496
664,1778428723680,0.70674855,0.0026830835,0.5447269,0.498375,-0.3397838,0.057496
665,1778428723690,0.73573270625,-0.0162204593125,0.4274182125,0.43576316875,-0.21456010625,0.0223722815
666,1778428723700,0.7436105000000001,-0.0566191573333333,0.2863480133333333,0.3080621544444444,0.1070170444444444,-0.0748542421777777
667,1778428723710,0.7411713,-0.06100966,0.2674851,0.18501036,0.3004605,-0.12331479
668,1778428723720,0.756850575,-0.016113745,0.308531745,0.084755056715,0.35749835875,-0.1301868225
669,1778428723730,0.7920990666666667,0.0583265733333333,0.3822784088888889,-0.0281074577444444,0.2289913671111111,-0.13858597
670,1778428723740,0.80730704375,0.0846124055,0.41093859875,-0.0554343885,0.0955116981249999,-0.1391968175
671,1778428723750,0.8361158855555555,0.0943957506666666,0.4161726555555555,0.0122084608888888,-0.0601514854444444,-0.1442872144444444
672,1778428723760,0.85319006,0.082230404,0.3934071,0.07872294,-0.103385895,-0.14713784
673,1778428723770,0.8474503262499999,0.045330389875,0.3196718625,0.150344785,-0.192035113125,-0.16560642
674,1778428723780,0.8241334,-0.00073175,0.2125734,0.20639002,-0.30068958,-0.17653486
675,1778428723790,0.7793544,-0.0301135444444444,0.1049112666666666,0.20971574,-0.2997393655555556,-0.1418438166666666
676,1778428723800,0.7716418,-0.0278865339999999,0.06808323875,0.12560546825,-0.1608055385,-0.067727689
677,1778428723810,0.7809602,-0.016586334,0.07662032,0.046958882,-0.072232686,-0.031076854
678,1778428723820,0.8155086875,0.039209604375,0.13708497,-0.08131904225,0.0063375408749999,0.0453554075
679,1778428723830,0.8583190933333333,0.0824201183333333,0.1972371211111111,-0.1607291844444444,-0.1381363245555555,0.1413856846666666
680,1778428723840,0.89825742875,0.0742726255,0.20064816,-0.19448804375,-0.33230092,0.1865374825
681,1778428723850,0.95398858,0.02597331475,0.1570175525,-0.23189288875,-0.5787014625,0.18508672375
682,1778428723860,0.978898615,-0.007408968875,0.1058865094999999,-0.24426254125,-0.6216897825000001,0.16179816375
683,1778428723870,0.9903897777777778,-0.0165863342222222,0.0484581108888888,-0.2224841466666666,-0.4974502311111111,0.1113863033333333
684,1778428723880,1.0282306375,-0.00097566675,-0.0047601862499999,-0.19791451875,-0.37254046375,0.0684912515
685,1778428723890,1.0529082375,0.015702135125,-0.04942361375,-0.2144360275,-0.270452615,0.014583978375
686,1778428723900,1.072593125,0.02403341425,-0.05399705,-0.2275406075,-0.231969245,-0.03199312325
687,1778428723910,1.0872281,0.033934906,-0.03661799,-0.21011237,-0.2115058675,-0.0855949675
688,1778428723920,1.0986650111111111,0.0392739723333333,-0.0479736677777777,-0.1574034577777777,-0.2075692988888889,-0.13371616
689,1778428723930,1.097472575,0.0354555744999999,-0.05238110475,-0.1178171675,-0.2050156075,-0.1770693525
690,1778428723940,1.0703063333333334,0.0152041384333333,-0.0143301053333333,-0.0436501286666666,-0.2005784866666666,-0.2006972655555555
691,1778428723950,1.0398778,0.0012195833,0.0160985,0.010308048,-0.20906247,-0.18814096
692,1778428723960,1.0398778,0.0012195833,0.0160985,0.010308048,-0.20906247,-0.18814096
693,1778428723970,0.99079333875,-0.0032928752125,0.0154925195,0.0845259865,-0.2633515225,-0.083342475125
694,1778428723980,0.92322457,-0.0012195833,0.007073583,0.15996562,-0.32634515,0.042224817
695,1778428723990,0.90419905875,0.0322236790875,-0.012992374125,0.15156647625,-0.36291962375,0.125070975125
696,1778428724000,0.9334691000000002,0.048082076,-0.037837572,0.15141377,-0.38559732,0.15889664
697,1778428724010,0.9334691,0.048082076,-0.037837572,0.15141377,-0.38559732,0.15889664
698,1778428724020,0.9989472111111112,0.0408153871111111,-0.0492508435555555,0.2910941811111111,-0.4404378533333333,0.0167728477777777
699,1778428724030,1.0015829,0.013415418,-0.08591965,0.33466795,-0.4729485,-0.059175827
700,1778428724040,0.984127575,-0.005007914,-0.0873831499999999,0.3516189625,-0.443322405,-0.07459972025
701,1778428724050,0.931456725,-0.050147745,-0.09281029625,0.408351405,-0.3436015799999999,-0.12316207625
702,1778428724060,0.9305421,-0.01975725,-0.095920235,0.44950724,-0.2677038,-0.13919681
703,1778428724070,0.93261920375,-0.021163582,-0.096469046875,0.4445441062499999,-0.2597627875,-0.12697986625
704,1778428724080,0.9454413633333332,-0.0148992429999999,-0.10087987,0.3959563,-0.1848322033333333,-0.0290406982333333
705,1778428724090,0.94200623,0.017318083,-0.10201815,0.36826456,-0.14614521,-0.0041995747
706,1778428724100,0.94200623,0.017318083,-0.10201815,0.36826456,-0.14614521,-0.0041995747
707,1778428724110,0.9785191,0.0638282497777777,-0.0663182348888889,0.1491061193333333,0.0086876055555555,0.1642585188888888
708,1778428724120,1.026767225,0.02221928375,-0.00206566925,0.012751437,0.05673244,0.23219831
709,1778428724130,1.027682,-0.006341833,0.037105825,0.012751437,0.05673244,0.23219831
710,1778428724140,1.0244195375,-0.087863355375,0.032559062125,-0.085671327625,-0.0045718103125,0.2983225325
711,1778428724150,1.0206083,-0.14153264,-0.02268425,-0.122856654,-0.032527618,0.2890071
712,1778428724160,1.0206083,-0.14153264,-0.02268425,-0.1228566539999999,-0.032527618,0.2890071
713,1778428724170,1.0502670749999998,-0.1388648075,-0.0575262225,-0.1087308135,0.07664224175,0.21333839875
714,1778428724180,1.0525817333333332,-0.1189297,-0.0577574366666666,-0.0379488858333333,0.1841958966666667,0.14036761
715,1778428724190,1.0403656,-0.10982348,-0.04247199,-0.0086282175,0.20944425,0.12530005
716,1778428724200,1.0203644,-0.11177482,-0.015854584,-0.037338037,0.2216612,0.1228566539999999
717,1778428724210,1.016339825,-0.129397795,-0.0073175007,-0.1378414995,0.1917296825,0.139654955
718,1778428724220,1.0240232,-0.13689823,-0.0073175007,-0.2560977,0.13675343,0.15889664
719,1778428724230,1.045,-0.12714157,-0.0160985,-0.38315395,0.042072106,0.17966545
720,1778428724240,1.0465244375,-0.1245499575,-0.0269413575,-0.46554196375,-0.04135626925,0.18562120875
721,1778428724250,1.0305276333333333,-0.1138887642222222,-0.0447214435555555,-0.5560237,-0.119267926,0.18699561
722,1778428724260,1.015124557142857,-0.0927710962857143,-0.0287647441428571,-0.5507878857142857,-0.0546053808571428,0.1817597785714285
723,1778428724270,0.9964300333333332,-0.0655356686666666,-0.0004607312222222,-0.5373589644444444,0.0365744797777777,0.1715208177777777
724,1778428724280,0.9930152,-0.063448824,0.017562,-0.48577628,0.07627955,0.145458
725,1778428724290,0.993746975,-0.06418056975,0.02837817975,-0.4427115575,0.0918561575,0.12896512875
726,1778428724300,1.0009082375,-0.056649645875,0.050978582875,-0.3685699625,0.07107780375,0.103920388125
727,1778428724310,1.006705,-0.05783874,0.07564466,-0.26526043,-0.01175881,0.08803836
728,1778428724320,1.014673,-0.0623918533333333,0.0758072693333333,-0.2024958766666666,-0.0622555166666666,0.0778575733333333
729,1778428724330,1.0372250875,-0.0778703975,0.0252644325,0.0115297405,-0.1495048625,0.0260373629999999
730,1778428724340,1.0437804,-0.08076691,-0.00219525,0.12697987,-0.12476555,-0.007864659
731,1778428724350,1.0437804,-0.08076691,-0.00219525,0.12697987,-0.12476555,-0.007864659
732,1778428724360,1.0630345625,-0.077992355,-0.0080797393749999,0.22914408125,-0.1134648775,-0.040774052875
733,1778428724370,1.0855206,-0.07515682,-0.016342416,0.34627405,-0.11010522,-0.07994463
734,1778428724380,1.0855206,-0.07515682,-0.016342416,0.34627405,-0.11010522,-0.07994463
735,1778428724390,1.096618925,-0.08006564875,-0.06993929675,0.4125509687499999,-0.23517618875,-0.11682454125
736,1778428724400,1.085032825,-0.0760105299999999,-0.1043277309999999,0.425226055,-0.253501615,-0.118428015
737,1778428724410,1.0806423,-0.07442507,-0.11323831,0.42629504,-0.25365433,-0.11720632
738,1778428724420,1.0357312,-0.043447655,-0.14275223,0.4000286,-0.21822518,-0.018249061
739,1778428724430,1.02329145,-0.0444538115,-0.15725383875,0.39521818125,-0.2410555975,0.017256435625
740,1778428724440,1.0044284666666663,-0.06556277,-0.2163134333333333,0.3848931555555556,-0.3135173533333333,0.0923821633333333
741,1778428724450,1.007467275,-0.082234218125,-0.242422675,0.37544199375,-0.3125247399999999,0.10957072875
742,1778428724460,1.0194497,-0.09598121125,-0.2431849125,0.3578801375,-0.2141019639999999,0.12621631875
743,1778428724470,1.03317005,-0.09976192,-0.21427317,0.316953375,-0.0928487824999999,0.1370588575
744,1778428724480,1.046219675,-0.08572908675,-0.1845534575,0.25182178,-0.0062516404999999,0.14484715
745,1778428724490,1.0491467,-0.057350907,-0.1744919,0.15507884,0.04512634,0.14484715
746,1778428724500,1.0491467,-0.0573509069999999,-0.1744919,0.15507884,0.04512634,0.14484715
747,1778428724510,1.0056722625,0.0364884095,-0.22150302,-0.19546158,-0.037252138375,0.16668495
748,1778428724520,0.9930762625,0.0472588549999999,-0.2201043175,-0.3411581975,-0.1433963945,0.1656159725
749,1778428724530,0.96772798625,0.02169715,-0.20946344375,-0.410642065,-0.277935505,0.1430146175
750,1778428724540,0.939404432222222,-0.009136712,-0.2116248177777777,-0.4143750222222222,-0.3239696355555556,0.1213634755555555
751,1778428724550,0.9217001375,-0.0571146135,-0.1785927375,-0.420186555,-0.22471543875,0.060168454375
752,1778428724560,0.951160725,-0.0738381489999999,-0.0785869065,-0.4372139225,-0.0421293725,-0.01046075875
753,1778428724570,1.0188018375,-0.01242831625,0.05786161125,-0.47302485625,0.15492614,-0.0491732025
754,1778428724580,1.0627551777777775,0.0335588666666666,0.1563438166666667,-0.5807969777777777,0.3279486222222222,-0.0436331588888888
755,1778428724590,1.0718614,0.0690589,0.22184221,-0.68674505,0.29374117,-0.02985516
756,1778428724600,1.0563218222222222,0.0763764066666666,0.2515085788888889,-0.7584177777777777,0.1268356442222222,-0.0071180674666666
757,1778428724610,1.04286565,0.05203809425,0.216956245,-0.8686248,-0.3083251475,0.05520532175
758,1778428724620,1.032533088888889,0.0035164654444444,0.1505270688888889,-0.8571714533333333,-0.5010474533333333,0.10595655
759,1778428724630,1.006758415,-0.05138257,0.078655503,-0.79837738,-0.5622848875,0.1388913974999999
760,1778428724640,0.97838026,-0.08909056,0.037837572,-0.70995724,-0.58473355,0.15584241
761,1778428724650,0.9694637222222222,-0.1078721433333333,0.0268105069999999,-0.6102533666666666,-0.6319724,0.1390101657777777
762,1778428724660,0.9670381725,-0.1435068425,0.02427733075,-0.505170705,-0.68231641,0.095826662
763,1778428724670,0.96280004875,-0.1342151475,0.044667240125,-0.44011547125,-0.64681091,0.055968879875
764,1778428724680,0.9604388333333334,-0.1408618833333333,0.0780296222222222,-0.3213226388888889,-0.4485824688888888,-0.0052176534444444
765,1778428724690,0.952829975,-0.16135088125,0.0806144575,-0.2052255949999999,-0.19379128425,-0.06956023125
766,1778428724700,0.936049275,-0.1686073975,0.08404072525,-0.059252188625,0.012627358125,-0.0855949725
767,1778428724710,0.9221676,-0.17110416,0.0928848268888889,0.0676598184444444,0.0436246747777777,-0.0707819314444444
768,1778428724720,0.938320775,-0.16485717,0.10515858,0.18126892875,-0.075515996125,-0.0284043987499999
769,1778428724730,0.9739898,-0.16058864,0.11518965,0.2619771,-0.31229568,-0.005421269
770,1778428724740,0.9880759425,-0.09816883625,0.1101893549999999,0.2236464575,-0.4778352575,-0.087904738
771,1778428724750,0.96075724,-0.0536311805,0.1104027825,0.19165332875,-0.46325127875,-0.18210884125
772,1778428724760,0.94810406375,-0.057076501,0.1336358475,0.18256697,-0.39964682,-0.25105822
773,1778428724770,0.975575225,-0.09791348625,0.109263234,0.1804290075,-0.19957525,-0.340547335
774,1778428724780,0.96975171,-0.12242584,0.0936233476666666,0.1810737977777777,0.1372285322222222,-0.3995619688888889
775,1778428724790,0.9278590075,-0.1226291025,0.13184457875,0.21120043875,0.3555131025,-0.38888064
776,1778428724800,0.8886121244444445,-0.10963038,0.1947403522222222,0.2519320688888889,0.3727440766666666,-0.3130931544444444
777,1778428724810,0.8614832,-0.07881558,0.24550213,0.27419406,0.23265645,-0.19852535
778,1778428724820,0.8440295866666667,-0.04823791,0.2933436588888888,0.2198965311111111,-0.0155511526666666,-0.0404516611111111
779,1778428724830,0.8390123375,-0.01173849,0.30107319875,0.136906145,-0.244033485,0.0466534584999999
780,1778428724840,0.838555,0.0,0.27651003,0.1111741975,-0.24968381825,0.0510057445
781,1778428724850,0.8941544666666668,-0.0369804774444444,0.2226823822222222,0.0780442215555555,-0.0076525588888888,0.0008908186666666
782,1778428724860,0.915358325,-0.04735032325,0.21293926,0.0506239662125,0.15958384375,-0.037567107625
783,1778428724870,0.8866574666666667,-0.0318412891111111,0.2309009911111111,-0.0062526998222222,0.3623596777777778,-0.0777048611111111
784,1778428724880,0.8438868925,-0.0047258855,0.27669678375,-0.0960557275,0.42728765625,-0.057877776375
785,1778428724890,0.80553478,0.02470418625,0.3442350325,-0.17676392875,0.3813214112499999,0.037796174125
786,1778428724900,0.7845884875,0.03808149,0.39755368625,-0.199670705,0.28809083,0.159812915
787,1778428724910,0.7961101222222222,0.0342567411444444,0.4174464422222222,-0.20342911,0.21738527,0.2392569977777777
788,1778428724920,0.82575322875,2.6250000046898475e-10,0.39447042,-0.22250111,0.18317783,0.2810661
789,1778428724930,0.85416573,-0.02561125,0.3626431,-0.2896943,0.18867545,0.26701662
790,1778428724940,0.8717277088888888,-0.0249574191666666,0.31236577,-0.3598738777777778,0.2645562444444444,0.2277187766666666
791,1778428724950,0.87904525,0.0078053335,0.24842913,-0.4961607,0.490434,0.14423631
792,1778428724960,0.8894658811111111,0.0159358897222222,0.2880249344444444,-0.6127646488888889,0.5743236888888889,0.1037846455555555
793,1778428724970,0.9087420225,0.034861028625,0.42576799375,-0.83960955,0.69292986,0.0319931255
794,1778428724980,0.90127206,0.046618573,0.4841746,-0.8803836,0.69934374,0.023288552
795,1778428724990,0.89889388,0.0350249089175,0.510166965,-0.884506825,0.6886539174999999,0.0442100715
796,1778428725000,0.8944424266666666,-0.0156208288866666,0.6009191833333333,-0.8966728666666667,0.614436,0.1654123533333333
797,1778428725010,0.8998086,-0.04735032,0.62646943,-0.8852704,0.5814502,0.20898612
798,1778428725020,0.8998085999999998,-0.04735032,0.62646943,-0.8852704,0.5814502,0.20898612
799,1778428725030,0.8998086,-0.04735032,0.62646943,-0.8852704,0.5814502,0.20898612
800,1778428725040,0.8998086,-0.04735032,0.62646943,-0.8852704,0.5814502,0.20898612
801,1778428725050,0.9117334177777776,-0.0769590933333333,0.6344915944444445,-0.8187559111111111,0.6151146755555555,0.2263613288888888
802,1778428725060,0.92663944,-0.11397006,0.6445193,-0.7356128,0.65719527,0.24808034
803,1778428725070,1.0020944266666667,-0.1577124522222222,0.7996876222222222,-0.4483788533333333,0.6351369322222222,0.1369740133333333
804,1778428725080,1.0145104,-0.17351623,0.8487996,-0.35872006,0.5533513,0.145458
805,1778428725090,1.0150253444444446,-0.1732181088888889,0.8409637666666667,-0.3313591922222222,0.5274242244444445,0.1495981888888889
806,1778428725100,1.0191449,-0.17083314,0.7782771,-0.103614965,0.3129065199999999,0.18378868
807,1778428725110,0.9974057,-0.17693105,0.72312146,-0.04161397,0.26319882,0.19127154
808,1778428725120,0.994051855,-0.17781525125,0.713052275,-0.028328041925,0.26289339375,0.1912715425
809,1778428725130,0.97417268,-0.180041,0.6767467899999999,0.03298575275,0.27434677625,0.1863084125
810,1778428725140,0.9571595,-0.1791263,0.68040556,0.06345176,0.2967954,0.19004986
811,1778428725150,0.95492994625,-0.1778762274999999,0.688915965,0.070629215,0.2965663349999999,0.190126215
812,1778428725160,0.9456954,-0.17254056,0.7640995,0.18669019,0.283967625,0.209902385
813,1778428725170,0.9654527,-0.16497913,0.7511719,0.21188764,0.2656422,0.21081866
814,1778428725180,0.9654527,-0.16497913,0.7511719,0.21188764,0.2656422,0.21081866
815,1778428725190,0.9654527,-0.16497913,0.7511719,0.21188764,0.2656422,0.21081866
816,1778428725200,0.88858837,-0.082230404,0.68064946,0.24853848,0.11415208,0.14973393
817,1778428725210,0.8933041233333332,-0.079303408,0.6678031866666667,0.24568786,0.1389932066666666,0.1464760766666666
818,1778428725220,0.904382025,-0.08912868,0.6740637125,0.2514400075,0.163630715,0.1343100375
819,1778428725230,0.93066405,-0.126226885,0.7173055625,0.280607965,0.200739685,0.0946049725
820,1778428725240,0.9310299,-0.13592257,0.73287815,0.30351472,0.20211409,0.07032379
821,1778428725250,0.9378596066666668,-0.13706085,0.73304075,0.3442378866666666,0.1988562366666666,0.048333288
822,1778428725260,0.9424406875,-0.12628786,0.7314146375,0.37315132,0.162409015,0.0104607581249999
823,1778428725270,0.93834746,-0.10006681,0.7236093,0.38658994,0.09521582,-0.042072106
824,1778428725280,0.93834746,-0.10006681,0.7236093,0.38658994,0.09521582,-0.042072106
825,1778428725290,0.9630668675,-0.09796303225,0.6768459,0.3687226775,0.0872748025,-0.109131679
826,1778428725300,0.98252684,-0.090554066,0.6628436,0.35177165,0.09155073,-0.16126367
827,1778428725310,0.9810328625,-0.078129559625,0.688214725,0.335126075,0.0707723803125,-0.1906607
828,1778428725320,0.9655611422222224,-0.056375243,0.7295988,0.2906869377777778,0.0092136125,-0.2469180388888889
829,1778428725330,0.95557408125,-0.0576862946249999,0.7186395125,0.25327254125,-0.006413896375,-0.23952848125
830,1778428725340,0.956305775,-0.0687540094999999,0.71659669,0.173175195,-0.021761433125,-0.201350525
831,1778428725350,0.962739125,-0.0761972775,0.7196761275000001,0.11842800875,-0.029702446125,-0.1765348625
832,1778428725360,0.9822829333333334,-0.0952697866666666,0.7520764166666667,0.0533388424444444,-0.0175279222222222,-0.1550194566666666
833,1778428725370,0.9978936,-0.1086039,0.78657025,0.011529742,-0.009926268,-0.15393351
834,1778428725380,0.9930457425,-0.1095795599999999,0.8158136,0.0012980501,-0.042606596,-0.180505365
835,1778428725390,0.93259506,-0.0981967866666666,0.8315526,-0.0197592123333333,-0.095444882,-0.2021225744444444
836,1778428725400,0.88864179,-0.09183462875,0.820291775,-0.04207210325,-0.10873081,-0.187682815
837,1778428725410,0.86099532,-0.09909114875,0.8179136250000001,-0.0608556564999999,-0.09239064625,-0.1525400049999999
838,1778428725420,0.85017154625,-0.11525062875,0.82541405,-0.07459972,-0.07773031,-0.11720632
839,1778428725430,0.8546535133333334,-0.1278733166666666,0.82650145,-0.08396605,-0.0583868166666666,-0.0496058898666666
840,1778428725440,0.8608598555555556,-0.1305835077777778,0.8312104499999999,-0.0837624333333333,-0.0459662566666666,0.0253247102666666
841,1778428725450,0.8563609466666667,-0.11941754,0.8290321666666667,-0.0805045733333333,-0.036599931,0.0874275166666666
842,1778428725460,0.8586375199999999,-0.1180082444444444,0.8215859333333333,-0.0642153144444444,-0.0056503369999999,0.1164766955555555
843,1778428725470,0.8631906,-0.12445848,0.8092545,-0.038559735,0.028557109,0.119802415
844,1778428725480,0.86408496,-0.1287676711111111,0.7794356977777778,-0.0110037351777777,0.0664975125555555,0.1206168838888889
845,1778428725490,0.871491355,-0.11421398625,0.747993355,0.0079410141125,0.08582403625,0.14706148625
846,1778428725500,0.89602788,-0.0883511925,0.69155715,0.019699823625,0.0658187905,0.17004461625
847,1778428725510,0.9095652777777776,-0.0909910842222222,0.6390176666666667,0.0438367733333333,0.1153059042222222,0.1561817677777777
848,1778428725520,0.91468745,-0.110555224,0.6018339,0.06284091,0.21555273,0.1338519
849,1778428725530,0.9205415111111112,-0.1339746186666666,0.5820529177777778,0.1080436066666666,0.4222905933333333,0.0833551981444444
850,1778428725540,0.898886275,-0.16193018,0.571557745,0.1967691725,0.78470966,-0.021608721525
851,1778428725550,0.8645423033333333,-0.1641931888888889,0.5848173288888888,0.3128131777777778,1.0259434133333334,-0.0768903975555555
852,1778428725560,0.8050393225,-0.177418885,0.7076708525000001,0.68010205,1.5432292,-0.1446944425
853,1778428725570,0.7069467,-0.1567393225,0.7440372975,0.91512555,1.71915325,-0.13492088625
854,1778428725580,0.6188809666666667,-0.0839005611111111,0.7507111244444444,1.0448118777777775,1.512924411111111,-0.0613477315555555
855,1778428725590,0.6008583,0.01536675,0.73629296,1.1843565,0.8380061,0.082540736
856,1778428725600,0.7683036400000001,0.0370448444444444,0.6392175444444445,1.3129737333333331,0.1356505166666667,0.1484443755555555
857,1778428725610,1.00400296875,0.02018410425,0.4615284737499999,1.372497425,-0.4456130775,0.10468395
858,1778428725620,1.0455489,0.0289727275,0.3703493525,1.3358465,-0.57434916,0.01901262
859,1778428725630,1.0079144833333331,0.0186392986666666,0.3110039233333333,1.2789699666666663,-0.4753918955555555,-0.1536705022222222
860,1778428725640,0.95423245,-0.016342416,0.25894803,1.2375002,-0.39109495,-0.25044736
861,1778428725650,0.9068211875,-0.0241553725,0.17772378,1.136710365,-0.3179460025,-0.29962059
862,1778428725660,0.8574280675,-0.03048958375,0.0682013870625,0.97353779375,-0.2686200875,-0.33970744625
863,1778428725670,0.8800310133333333,-0.0239241599999999,-0.0318819423333333,0.7945001744444444,-0.3311640711111111,-0.3511014211111111
864,1778428725680,0.914451245,0.0066543514999999,-0.078205785,0.58794048125,-0.29458108875,-0.35230616375
865,1778428725690,0.9474029,0.039788906,-0.07271766,0.4867689,-0.23044212,-0.34085277
866,1778428725700,0.9916203725,0.0871773425,-0.018674872,0.2668638885,-0.19745638,-0.30481278
867,1778428725710,1.0332412222222225,0.0987625395555555,0.0399007022222222,0.0790623024444444,-0.2721833688888889,-0.2883877844444444
868,1778428725720,1.069361225,0.0570993675,0.10665256625,-0.0749051475,-0.4525614825,-0.30824880875
869,1778428725730,1.047827875,0.023659918,0.11647021125,-0.19288456875,-0.62260609375,-0.3417690425
870,1778428725740,0.9928763555555556,0.0094856476666666,0.0885688551111111,-0.2930879244444445,-0.7117897488888888,-0.3439070188888888
871,1778428725750,0.9440413875,0.002561125125,0.0425863255825,-0.35971268,-0.6493305975,-0.3020639774999999
872,1778428725760,0.931355158888889,-0.002981204,-0.0110914329655555,-0.4071806133333333,-0.4643287511111111,-0.2416918966666666
873,1778428725770,0.92737114,-0.013415418,-0.04905774,-0.44423866,-0.3892624,-0.21746163
874,1778428725780,0.9568342533333332,0.0073988061333333,-0.1194988439999999,-0.63930255,-0.2094697066666666,-0.1388404866666666
875,1778428725790,0.987351775,0.0179888552499999,-0.0947463815,-0.724617545,-0.1043785285,-0.10269869375
876,1778428725800,1.007314825,0.01231779125,-0.00029727425,-0.78524415,-0.052227441,-0.06009209825
877,1778428725810,1.0106077,0.015610667,0.070522405,-0.80036265,-0.11865708,-0.031687703
878,1778428725820,1.004726611111111,0.0133341106666666,0.1293808433333333,-0.8131904,-0.4656182999999999,0.042835664
879,1778428725830,0.97084938,0.008140719375,0.171804995,-0.774707,-0.77592874,0.08926006
880,1778428725840,0.947578145,-0.00164643725,0.09120958915,-0.693693415,-0.941391965,0.09910997125
881,1778428725850,0.940306395,-0.028423915,-0.03813484505,-0.586413375,-1.122584525,0.0796392105
882,1778428725860,0.9454515,-0.04564291,-0.14668538,-0.5621322,-1.1418263,0.034283802
883,1778428725870,0.9809312677777778,-0.0455887027777777,-0.2645818422222222,-0.58106846,-1.034928,-0.05062397
884,1778428725880,1.017864325,-0.0448501765,-0.3068929,-0.5879405075,-0.6493306225,-0.177909265
885,1778428725890,1.0354331,-0.0632895973333333,-0.2417315877777778,-0.5479469766666667,-0.4297819444444444,-0.2523477866666666
886,1778428725900,1.0369507,-0.09518848,-0.14522189,-0.47355935,-0.2896943,-0.3310792
887,1778428725910,1.0369507,-0.09518848,-0.14522189,-0.47355935,-0.2896943,-0.3310792
888,1778428725920,1.0011322777777778,-0.1118832222222222,-0.0218339298888888,-0.22571655,-0.3755522822222222,-0.4350589933333333
889,1778428725930,0.95569605,-0.12787332,0.06661974,0.04940227,-0.4924956,-0.5271612
890,1778428725940,0.9452,-0.12659275625,0.0486842424999999,0.1173590274999999,-0.5209,-0.540447125
891,1778428725950,0.8443988366666667,-0.0667010456666666,-0.1527629766666666,0.6726700866666666,-0.5236488166666667,-0.6238786666666667
892,1778428725960,0.82828003,-0.040520657,-0.18595597,0.79402506,-0.40514445,-0.6181774
893,1778428725970,0.83620354,-0.031343292125,-0.17933973625,0.90947522,-0.2410556037499999,-0.57915954875
894,1778428725980,0.861517535,-0.030241854875,-0.1827888725,0.931083925,-0.1756949475,-0.54395947375
895,1778428725990,0.9173706,-0.028050419,-0.2040363,0.9058100999999998,-0.0581832,-0.4550812
896,1778428726000,0.9173706,-0.028050419,-0.2040363,0.9058101,-0.0581832,-0.4550812
897,1778428726010,0.922553825,0.004512458,-0.207573085,0.807769125,0.0782457185,-0.341310895
898,1778428726020,0.90983965,0.02875549,-0.21205505375,0.7744016,0.1225512335,-0.261060835
899,1778428726030,0.8963937000000001,0.037105825,-0.22037871,0.7695912,0.15141377,-0.20707722
900,1778428726040,0.9245775825,0.036557011375,-0.21187212,0.739354275,0.203183075,-0.1584576
901,1778428726050,0.972591115,0.032928750625,-0.20321307375,0.4866162137499999,0.347266655,0.01152974215
902,1778428726060,1.0310968,0.036130156,-0.21793956,0.20761171,0.39269844,0.1130831
903,1778428726070,1.0568401111111112,0.0536379547777777,-0.1812639633333333,-0.2263528644444444,0.429552891111111,0.2573787922222222
904,1778428726080,1.0621046,0.065887995,-0.13592257,-0.5706841,0.42873842,0.39285114
905,1778428726090,1.0618878,0.063719843,-0.0816917575555555,-0.5706841,0.42873842,0.39285114
906,1778428726100,1.0526948125,0.054728802875,-0.012195833375,-0.8321266625,0.26029728875,0.5526640525
907,1778428726110,1.0394203875,0.051710334375,0.0507994564999999,-1.039509275,0.097811918,0.6914027375
908,1778428726120,1.0293893,0.058326576,0.09713981,-1.0715789,0.046958882,0.72759545
909,1778428726130,1.027221211111111,0.053556648,0.1546228411111111,-1.0330275222222225,0.0088827371111111,0.7346541255555555
910,1778428726140,1.053632325,0.044728222125,0.23248688875,-0.9302439875,0.00167983002375,0.6968240274999999
911,1778428726150,1.0884477,0.038325407,0.2950477,-0.766766,-0.00015271181,0.6121453
912,1778428726160,1.0884477,0.038325407,0.2950477,-0.766766,-0.00015271181,0.6121453
913,1778428726170,1.119440325,0.03350043,0.28907174,-0.5503733675,0.025827385345,0.4605024725
914,1778428726180,1.1528721,0.030276157,0.27553436,-0.24510247,0.07383616,0.24502611
915,1778428726190,1.1409202125,0.012748457125,0.24498762,-0.07276718,0.10071344,0.119802415
916,1778428726200,1.1052372444444445,-0.0048241297777777,0.2021222299999999,0.0161450338888888,0.0918900955555555,0.0505730611111111
917,1778428726210,1.0470009125000002,-0.021159770875,0.1182462287499999,0.1646996849999999,0.034054736,-0.05383091375
918,1778428726220,1.0242671,-0.023903834,0.07125416,0.19356222,0.021226943,-0.065284304
919,1778428726230,1.0242671,-0.023903834,0.07125416,0.19356222,0.021226943,-0.065284304
920,1778428726240,1.0151681342857144,-0.020105703,0.0520849228571428,0.2010669171428571,0.011889706,-0.0595248864285714
921,1778428726250,0.98252684,-0.005366167,-0.0248795,0.22349374,-0.061848287,-0.01885991
922,1778428726260,0.98252684,-0.005366167,-0.0248795,0.22349374,-0.061848287,-0.01885991
923,1778428726270,1.00825241,-0.0499343154999999,-0.073758113,0.2689255,-0.199747053,0.022448637125
924,1778428726280,1.0193277125,-0.07040044525,-0.11680559625,0.2893125275,-0.3206948125,0.0678804014999999
925,1778428726290,1.0120102555555557,-0.0640450619999999,-0.1396693977777778,0.26964664,-0.3810499166666667,0.0917034435555555
926,1778428726300,0.9981375,-0.04393549,-0.15619814,0.24731678,-0.41430715,0.104531236
927,1778428726310,0.98868575,-0.02989122625,-0.165345015,0.22326467375,-0.43492324375,0.12552910725
928,1778428726320,0.9911994466666668,-0.0189170928888888,-0.1815383733333333,0.17191109,-0.5326079188888888,0.1574713344444444
929,1778428726330,0.9784717175,-0.0300970297499999,-0.18995391625,0.18394138125,-0.58473354,0.16408884125
930,1778428726340,0.9629220225,-0.053539713125,-0.21156721875,0.21853059875,-0.6049678375,0.16973918125
931,1778428726350,0.96455831,-0.0743437679999999,-0.24884582,0.2424300044444444,-0.5419063822222223,0.15801431
932,1778428726360,0.99482556875,-0.082565793125,-0.2797114275,0.2187596725,-0.405449865,0.1216349625
933,1778428726370,1.0256733875,-0.076467876875,-0.29675511,0.144007247125,-0.226242556375,0.07307260375
934,1778428726380,1.062646711111111,-0.0382915292444444,-0.2753921,-0.0083567312222222,0.0758808003333333,0.0217953696888888
935,1778428726390,1.05807245,0.0053661668,-0.1871298375,-0.153876245,0.3232145425,0.00481042245
936,1778428726400,1.02174326,0.0146350003333333,-0.1044810305555555,-0.2159175411111111,0.3194646211111112,0.0326548786666666
937,1778428726410,0.953249265,0.006280854425,-0.05192376275,-0.24296450125,0.1552220112499999,0.08490777375
938,1778428726420,0.9049274466666666,0.0041736852155555,-0.0506872408888888,-0.2493784,-0.08322794,0.16134003
939,1778428726430,0.8850858875000001,-0.0011281145775,-0.09305420625,-0.23670331,-0.38742987125,0.29725355375
940,1778428726440,0.910297,-0.01243975,-0.1207997299999999,-0.2249445,-0.4643966299999999,0.35925454
941,1778428726450,0.94311141,-0.0252529985,-0.10585221,-0.216392645,-0.3151971925,0.35696386
942,1778428726460,0.988232225,-0.029357657925,-0.053379638375,-0.2321983125,-0.0335107024999999,0.327261415
943,1778428726470,1.0247549,-0.0041465834,0.054667823,-0.282975,0.24181916,0.27862272
944,1778428726480,1.03466405,0.021045434825,0.153556970375,-0.35146623,0.36933352125,0.2405974649999999
945,1778428726490,1.04012165,0.049362637,0.24391666,-0.4214846024999999,0.3123720225,0.2216612
946,1778428726500,1.0363273666666666,0.0600339953333333,0.2432526633333333,-0.4095561066666666,0.0400189711111111,0.2163162888888888
947,1778428726510,1.0195988133333331,0.0344972705111111,0.1934326977777777,-0.3426344066666666,-0.3358472155555556,0.2290762077777777
948,1778428726520,0.98960036,0.0048783333,0.15717381,-0.2713689,-0.54869354,0.24380441
949,1778428726530,0.95213637,-0.057472865675,0.1355033325,-0.16823115075,-0.69346436,0.254799665
950,1778428726540,0.9397059733333334,-0.1434602655555555,0.1110667804444444,-0.0047595178888888,-0.7649335111111111,0.2136692722222222
951,1778428726550,0.9658185375,-0.1628448625,0.0887628004999999,0.07505786,-0.5981722,0.12957597
952,1778428726560,0.9803857566666668,-0.1382499322222222,0.1186925633333333,0.0870033151111111,-0.2826865422222222,0.0342838015555555
953,1778428726570,0.99423486,-0.092505395,0.17278448,0.06161922,0.10682192,-0.070781924
954,1778428726580,1.0169495666666668,-0.0494371684444444,0.2105678377777777,-0.0283789453333333,0.27073258,-0.093179658
955,1778428726590,1.017708,-0.042167094125,0.221903195,-0.0713927724999999,0.27740099875,-0.09025267975
956,1778428726600,0.9931779,-0.0440167969999999,0.23216803,-0.0629936217777777,0.1428449311111111,-0.0656915344444444
957,1778428726610,0.979386455,-0.051862781875,0.23595888375,-0.007406523,0.027335415,-0.04146126
958,1778428726620,0.965757605,-0.07778273825,0.24858538125,0.1092653025,-0.1093416575,0.0185544855
959,1778428726630,0.9671906275,-0.0996094709999999,0.28331301125,0.15339901,-0.15889664125,0.0405449865
960,1778428726640,0.9861856,-0.11177482,0.3155672,0.20577917,-0.22677705,0.050165832
961,1778428726650,1.0041096625,-0.11634825625,0.295173475,0.23784864625,-0.19791451875,0.02557922975
962,1778428726660,1.0108516,-0.1276294,0.2730952,0.2614341444444444,-0.1225257805555555,-0.0363029908888888
963,1778428726670,0.9962051875,-0.10740337375,0.2597293375,0.2841203399999999,-0.02197141025,-0.12867879
964,1778428726680,0.95961771375,-0.060430358875,0.2321477075,0.301071345,0.1070509825,-0.27556846125
965,1778428726690,0.93932307,-0.038325407,0.22330572,0.29190862,0.10437853,-0.29198498
966,1778428726700,0.9551776633333334,-0.0409813887777777,0.2113605644444444,0.2272945711111111,0.12351841,-0.2689085333333333
967,1778428726710,0.99161276875,-0.06619289125,0.24998790375,0.1434727499999999,0.2011978225,-0.2252499275
968,1778428726720,0.9913078,-0.07250084,0.3207538111111112,0.1440836,0.2356428144444444,-0.1903637588888888
969,1778428726730,0.9612374625,-0.058326575,0.4215871125,0.210360525,0.2464768725,-0.13698249375
970,1778428726740,0.9300813888888888,-0.0422280704444444,0.4573166633333334,0.2464344422222222,0.2175888811111111,-0.1313236722222222
971,1778428726750,0.9030329125,-0.0327763035,0.4860115825,0.2792335449999999,0.2128039125,-0.1283542775
972,1778428726760,0.8794110625,-0.027097619,0.4843194075,0.2784700049999999,0.2199813749999999,-0.1048366575
973,1778428726770,0.8803765333333333,0.0122771388888888,0.4384469877777778,0.2618413844444445,0.2206431266666666,-0.0553071302222222
974,1778428726780,0.89910733125,0.0278065,0.3662408825,0.22608983625,0.26495501125,-0.013514994875
975,1778428726790,0.91468745,0.02268425,0.35898435,0.15874393,0.3456632,0.019623468
976,1778428726800,0.92252331375,0.029087063,0.4151576,0.048791423,0.3531460825,0.042224818
977,1778428726810,0.922005015,0.0278293685,0.4369157449999999,-0.02687728,0.33191911375,0.054289049875
978,1778428726820,0.9194439125,0.0223793545,0.46588847,-0.1312748925,0.3085542175,0.0666587075
979,1778428726830,0.9222489125,0.02033655325,0.50673689125,-0.2491493225,0.26663482,0.07788302425
980,1778428726840,0.9311653955555556,0.0198250046666666,0.5429754388888889,-0.33896932,0.2324528333333333,0.0277680976666666
981,1778428726850,0.9162119875,0.040032824125,0.5668318475,-0.40522080875,0.2192941625,-0.028251686125
982,1778428726860,0.89680034,0.0590854266666666,0.5703110688888889,-0.4284923711111111,0.2246475555555555,-0.0549677691111111
983,1778428726870,0.8894611925,0.053966560125,0.56539885625,-0.450194435,0.2347944075,-0.0385597357999999
984,1778428726880,0.88206361875,0.030935491625,0.5704296375,-0.499825755,0.2372377975,0.0196234686
985,1778428726890,0.8879142644444444,0.0087267957777777,0.578170551111111,-0.5511369,0.19234054,0.085594974
986,1778428726900,0.90785784,-0.0102445,0.57058203,-0.5511369,0.19234054,0.085594974
987,1778428726910,0.94054264,-0.04369157,0.58960754,-0.6304707375,0.299086085,0.19447850125
988,1778428726920,0.974938388888889,-0.0695230288888889,0.6317848444444444,-0.6367913000000001,0.3018858155555555,0.1922217555555555
989,1778428726930,0.9864295,-0.10835998,0.6860156,-0.6232169,0.2644205,0.16561596
990,1778428726940,0.9781634666666668,-0.1051619611111111,0.7123010333333333,-0.5512726766666667,0.2336745255555555,0.1272004577777777
991,1778428726950,0.9795998625,-0.0984203725,0.724706895,-0.4404208775,0.2066954475,0.0550526079999999
992,1778428726960,0.996674,-0.09201756,0.73921996,-0.36849362,0.18562122,-0.023746688
993,1778428726970,1.0049400444444443,-0.0946193377777777,0.7348836400000001,-0.3395122977777778,0.1395361833333333,-0.0950122001111111
994,1778428726980,0.97298354375,-0.0899938175,0.69055858125,-0.2847311875,0.14209834625,-0.20310671375
995,1778428726990,0.95423245,-0.08540133,0.673332,-0.2622062,0.17951274,-0.21990502
996,1778428727000,0.94770011625,-0.0739067549999999,0.7012070975,-0.22515448625,0.2053210325,-0.2058555275
997,1778428727010,0.94029874,-0.070522405,0.72995114,-0.18577392,0.18501036,-0.17897825
998,1778428727020,0.9376157,-0.06759541,0.73360986,-0.122856654,0.15080291,-0.13919681
999,1778428727030,0.9194439,-0.07244325125,0.7279388075,-0.083457006,0.151337405,-0.093612340125
1000,1778428727040,0.904443,-0.082962155,0.7314146,-0.044057358,0.16118732,-0.034741938
