id,timestamp,acc_x,acc_y,acc_z,gyro_x,gyro_y,gyro_z
0,1778428923520,0.35581344,0.040520657,0.9366401,0.02443389,0.5098284,0.0092390645
1,1778428923530,0.3535267199999999,0.030481961625,0.946678775,0.017256435,0.5017346724999999,0.0116824535625
2,1778428923540,0.3666948533333333,-0.0771894606666666,1.0884171444444444,-0.0551798677777777,0.3439494344444445,0.0515232696666666
3,1778428923550,0.38218695,-0.08198649,1.1111319,-0.05070032,0.20684816,0.05932854
4,1778428923560,0.38218695,-0.08198649,1.1111319,-0.05070032,0.20684816,0.05932854
5,1778428923570,0.3335594433333333,-0.0279487853555555,1.0700081777777777,-0.0793422688888889,-0.27259907,0.0433786393333333
6,1778428923580,0.3064338777777778,-0.028351926,1.0342642777777775,-0.1246807111111111,-0.5717784777777778,0.0274966106666666
7,1778428923590,0.3233725,-0.034666654,0.9717945,-0.12522368,-0.6825455,0.01718008
8,1778428923600,0.3233725,-0.034666654,0.9717945,-0.12522368,-0.6825455,0.01718008
9,1778428923610,0.325537275,-0.03267339975,0.87976171375,-0.0600920965,-0.44454410625,-0.0010689822124999
10,1778428923620,0.3302022,-0.035886243,0.8016931,0.007941014,-0.14744325,-0.02741177
11,1778428923630,0.3302022,-0.035886243,0.8016931,0.007941014,-0.14744325,-0.02741177
12,1778428923640,0.36295562125,0.012443560875,0.85358638,0.01175881,0.1390441125,-0.0213032975
13,1778428923650,0.376089,0.03808149,0.9066383,0.004886778,0.28014982,-0.011529742
14,1778428923660,0.37743055,0.0413743649999999,0.9270206,-0.002290677,0.2625879675,-0.0119878775
15,1778428923670,0.380073,0.0410897966666666,0.9734206333333332,-0.01099525,0.20929155,-0.014583978
16,1778428923680,0.3809368625,0.03673994825,0.993045725,-0.0083227935,0.16760122125,-0.016721943375
17,1778428923690,0.37946954875,0.03271151175,0.9881674,-0.007177454975,0.1175881003749999,-0.018325417375
18,1778428923700,0.36898494,0.007073583,0.9474029,-0.007941014,-0.03993414,-0.022524992
19,1778428923710,0.3592282644444444,-0.0002981203777777,0.9345837,-0.0155426682222222,-0.0377622377777777,-0.0230679671111111
20,1778428923720,0.35800868,-0.0012195833,0.9329813,-0.016492875,-0.03749075,-0.023135839
21,1778428923730,0.3578189722222222,-0.0056371851333333,0.9321140388888888,-0.0227370914444444,-0.0074913626666666,-0.0269366667777777
22,1778428923740,0.35874045,-0.0102445,0.9327374,-0.03298575,0.037032615,-0.03657448
23,1778428923750,0.35874045,-0.0102445,0.9327374,-0.03298575,0.037032615,-0.03657448
24,1778428923760,0.3671013633333333,-0.0100818890222222,0.9508075266666668,-0.0530758388888888,-0.0218802105555555,-0.0501488635555555
25,1778428923770,0.36898494,-0.01683025,0.96520877,-0.07330167,-0.08025006,-0.06345176
26,1778428923780,0.36898494,-0.01683025,0.96520877,-0.07330167,-0.08025006,-0.06345176
27,1778428923790,0.3747703437499999,-9.146875250000018e-05,0.99207009125,-0.08025005875,-0.18577392375,-0.054823543
28,1778428923800,0.38340652,0.01097625,0.999601,-0.08192988625,-0.26274068375,-0.0514638845
29,1778428923810,0.3674604666666666,0.012033223,0.9622004333333334,-0.0830752266666666,-0.3082997066666666,-0.0571396706666666
30,1778428923820,0.3565452,0.008293167,0.9522812,-0.08528954675,-0.296031875,-0.055128965875
31,1778428923830,0.346544625,-0.0096956874749999,0.945733505,-0.1003316605,-0.2719034,-0.0393232924999999
32,1778428923840,0.3335289377777777,-0.0218169908888888,0.9602220333333334,-0.1345221422222222,-0.2537985533333333,-0.0193350125555555
33,1778428923850,0.31053641125,-0.012805625625,0.9979927125,-0.18279605,-0.228685945,0.00832279425
34,1778428923860,0.2891937,-0.006829667,1.0738126,-0.23361514,-0.2221023588888889,0.0298042566666666
35,1778428923870,0.272180505,0.0037807087749999,1.1331072249999998,-0.24617144,-0.22074492,0.03489465
36,1778428923880,0.2705476255555555,0.0330744238555555,1.2779133333333332,-0.2707410844444444,-0.0719696817777778,0.0274287386666666
37,1778428923890,0.295787075,0.06735911475,1.4322482,-0.32237464125,0.16103461,0.038177953
38,1778428923900,0.33386096,0.09372498,1.5733844,-0.37689275,0.16103461,0.06543701
39,1778428923910,0.4288664888888889,0.0851472466666666,1.741808888888889,-0.3904671388888889,-0.3249283322222223,0.0682876322222222
40,1778428923920,0.47466183,0.06540016,1.7871469,-0.36101073,-0.8236512,0.05077668
41,1778428923930,0.48761994,0.035642326,1.7366257,-0.2773925433333333,-1.214050488888889,0.02254196
42,1778428923940,0.48066828125,-0.0005488126249999,1.6164853875,-0.066353285,-1.75023015,-0.00236703325
43,1778428923950,0.4708201475,-0.02458222775,1.55891715,0.004581355,-1.88705985,-0.0122933015
44,1778428923960,0.4692414688888889,-0.0569985855555555,1.4940201000000002,0.0507681947777777,-1.9790432555555555,-0.0246290229999999
45,1778428923970,0.4844185,-0.08344999,1.4449929,0.046424393,-2.0148797,-0.031687703
46,1778428923980,0.5219613533333334,-0.0905777766666666,1.3755240555555557,0.0229407072888888,-2.062457833333333,-0.0531352303333333
47,1778428923990,0.5617197977777777,-0.0985491066666666,1.336334777777778,0.0066514478666666,-2.1586324666666665,-0.0947407127777777
48,1778428924000,0.5997986925000001,-0.07096450625,1.30711135,0.01672194325,-2.221651375,-0.121100468125
49,1778428924010,0.6271470100000001,-0.0161798065555555,1.2468072,0.0614919581111111,-2.306185888888889,-0.1639021977777777
50,1778428924020,0.6247349888888889,0.0136322324444444,1.1941787555555556,0.0993644872222222,-2.284466866666667,-0.1854854733333333
51,1778428924030,0.6297217444444444,0.0131443978888888,1.1925526,0.0928487849999999,-2.3343527666666666,-0.1856212066666666
52,1778428924040,0.6325674,0.008781,1.1921732,0.076966755,-2.4113195,-0.1868429
53,1778428924050,0.6198227555555555,-0.0055897571111111,1.1595290555555555,0.0471031086666666,-2.612152511111111,-0.1909152233333333
54,1778428924060,0.59399808125,-0.03161769825,1.0948466875,0.01969982425,-3.0007872,-0.1890572225
55,1778428924070,0.58204615,-0.041008487,1.0354873,0.029320668,-3.1632726,-0.18745375
56,1778428924080,0.557517275,-0.041252406,0.9775266,0.032985752,-3.24970745,-0.1981435799999999
57,1778428924090,0.5249391575,-0.03221986875,0.909740615,0.03130592225,-3.35370415,-0.210360525
58,1778428924100,0.5175132644444446,0.0345819633333333,0.8459978955555555,0.0266736633333333,-3.5279483444444444,-0.1952590244444444
59,1778428924110,0.5215785666666668,0.0516866194444444,0.8047285111111111,0.0559264587777777,-3.657244266666667,-0.1927477711111111
60,1778428924120,0.492677375,0.040516844,0.77805989375,0.088801918125,-3.7703018125,-0.2137965325
61,1778428924130,0.4735235566666667,0.015610667,0.725957,0.1368976566666666,-3.9394557888888886,-0.2410046911111111
62,1778428924140,0.46344167,0.006829667,0.6794299,0.16492876,-3.996468300000001,-0.25953373
63,1778428924150,0.4593221944444444,0.0062876298888888,0.6504173666666667,0.16492876,-3.996468300000001,-0.25953373
64,1778428924160,0.4458525855555555,0.0073717038888888,0.4995142555555555,0.2355834177777778,-3.979907544444445,-0.2896688633333333
65,1778428924170,0.4661552188888889,0.0111930653333333,0.4003180866666667,0.2756957266666667,-3.8710409555555554,-0.2777234
66,1778428924180,0.4964551311111111,-0.0016532129999999,0.3157433544444444,0.2533658755555555,-3.820747844444445,-0.2733117288888889
67,1778428924190,0.5328596555555555,-0.0328271174444444,0.2368498799999999,0.1810144022222222,-3.6990533333333335,-0.2777234111111111
68,1778428924200,0.5520444,-0.052960407,0.18863906,0.15393351,-3.63729,-0.28152424
69,1778428924210,0.5520444,-0.052960407,0.18863906,0.15393351,-3.63729,-0.28152424
70,1778428924220,0.5520444,-0.052960407,0.18863906,0.15393351,-3.63729,-0.28152424
71,1778428924230,0.5686917,-0.055887408,0.151948655,0.115526488,-3.491908375,-0.28847262125
72,1778428924240,0.6067122,-0.052960407,0.06808324,0.0319167685,-3.169228125,-0.2806079625
73,1778428924250,0.61216986625,-0.04195366475,0.0413400641875,0.02687728,-3.1467795,-0.2540361
74,1778428924260,0.61281013,-0.04686249,0.0026830835,0.0176466977777777,-3.1940184333333335,-0.1953947666666666
75,1778428924270,0.622200935,-0.063448825,-0.05235061825,0.03428380175,-3.2113003375,-0.13553173375
76,1778428924280,0.6341393088888888,-0.0817222488888888,-0.1189364822222222,0.0664466073333333,-3.2132262333333332,-0.0548320204444444
77,1778428924290,0.6433607,-0.0874441225,-0.171084675,0.093765055,-3.1591494,-0.013820418625
78,1778428924300,0.6468975,-0.082741105,-0.2183664025,0.1171299574999999,-3.0685912749999997,0.021914146125
79,1778428924310,0.6547638,-0.07027849,-0.25477096,0.12949961,-2.9714665,0.05077668
80,1778428924320,0.6588455875,-0.0632353962499999,-0.2742194974999999,0.1455343525,-2.9105345625,0.05772506725
81,1778428924330,0.6676405833333333,-0.0327864654444444,-0.3312015733333333,0.2064663699999999,-2.747217666666667,0.0705952804444444
82,1778428924340,0.67284415,-0.0052442079999999,-0.3712221375,0.2443389,-2.629392,0.08009735
83,1778428924350,0.6758321350000001,0.01330108125,-0.399390685,0.3139754975,-2.4233838,0.082388025
84,1778428924360,0.67381984,0.030520074,-0.43124464,0.36528665,-2.2818198,0.06910209
85,1778428924370,0.69068057375,0.055704466625,-0.4498128225,0.40964943875,-2.09581685,0.06536066
86,1778428924380,0.71123049375,0.059515664375,-0.507983155,0.4604261149999999,-1.821851875,0.0478751552499999
87,1778428924390,0.7138221,0.059546154,-0.51591426,0.47523916,-1.7393875,0.042224817
88,1778428924400,0.7101904833333333,0.0662945164444444,-0.5753757266666666,0.4879312177777778,-1.4224511333333334,-0.0016883143333333
89,1778428924410,0.71077700125,0.065034281875,-0.6388787575,0.48012595,-0.97575215,-0.0602448125
90,1778428924420,0.72019446,0.053936075,-0.64378756,0.45263782,-0.7796702,-0.087274805
91,1778428924430,0.72906693875,0.046130740625,-0.6628931225,0.41262732375,-0.62359869875,-0.118962503125
92,1778428924440,0.7416862155555556,0.0370787211111111,-0.6855278155555555,0.31336465,-0.35452047,-0.18195613
93,1778428924450,0.7516597,0.03491057,-0.68747914,0.20768806,-0.19997612,-0.22227205
94,1778428924460,0.7607659333333333,0.037674962,-0.7048073833333333,0.0865366916666666,-0.0093917743333333,-0.2493529333333333
95,1778428924470,0.7645872874999999,0.043752555,-0.7220848200000001,-0.05619794875,0.2572430525,-0.2761793075
96,1778428924480,0.7616603,0.04905774,-0.7284876,-0.13499725,0.45607382,-0.27846998
97,1778428924490,0.7616603,0.04905774,-0.7284876,-0.13499725,0.45607382,-0.27846998
98,1778428924500,0.7829826733333333,0.053881871,-0.6674406833333334,-0.3083421222222222,1.0813693266666666,-0.2144667688888888
99,1778428924510,0.79852223,0.05417999,-0.6069561,-0.38300124,1.3699777,-0.1752368
100,1778428924520,0.79852223,0.05417999,-0.6069561,-0.38300124,1.3699777,-0.1752368
101,1778428924530,0.7851677825000001,0.0305581849999999,-0.510845325,-0.409573085,1.628442475,-0.12644537875
102,1778428924540,0.7599529,0.0102445,-0.44831884,-0.39094225,1.8342216,-0.09093989
103,1778428924550,0.7360795625000001,0.015183812375,-0.430524355,-0.36032353625,1.9364621875,-0.066429641125
104,1778428924560,0.718791975,0.0196352915,-0.4084689475,-0.33123193625,2.114447875,-0.01603474
105,1778428924570,0.7189749,0.020001167,-0.39072403,-0.32741413,2.225164,0.01718008
106,1778428924580,0.714203275,0.014147167,-0.3831626,-0.342074465,2.2883866,0.034283803
107,1778428924590,0.6978049199999999,-0.0138253326111111,-0.3510435133333333,-0.3680015377777778,2.3797081555555555,0.0564100491111111
108,1778428924600,0.68674743,-0.040520657,-0.31358537,-0.4566083174999999,2.57586655,0.0686439599999999
109,1778428924610,0.6836848944444445,-0.0475400367777777,-0.2951798188888889,-0.4736781133333333,2.6229612111111114,0.0567494062222222
110,1778428924620,0.6793485666666667,-0.0553182696666666,-0.2157341433333333,-0.46505838,2.83764,-0.0271402827777777
111,1778428924630,0.6786981,-0.043447655,-0.18741947,-0.42820394,2.9453528,-0.07383616
112,1778428924640,0.6786981,-0.043447655,-0.18741947,-0.42820394,2.9453528,-0.07383616
113,1778428924650,0.6344170777777778,0.0322952455555555,-0.0856520151844444,-0.3384093977777778,3.336227066666667,-0.1077042477777777
114,1778428924660,0.6069561,0.078327745,0.00024391667,-0.3035911,3.5543675,-0.087274805
115,1778428924670,0.6069561,0.078327745,0.00024391667,-0.3035911,3.5543675,-0.087274805
116,1778428924680,0.59700510625,0.05505275375,0.12528931925,-0.267627465,3.6085038375,0.00931542125
117,1778428924690,0.5830218,0.02561125,0.17644322,-0.21990502,3.6319451,0.049554985
118,1778428924700,0.5830218,0.02561125,0.17644322,-0.21990502,3.6319451,0.049554985
119,1778428924710,0.54446265,0.0182124443333333,0.20890446,-0.1054729606088888,3.754267188888889,0.0666587061111111
120,1778428924720,0.50957245,0.022196416,0.24477036,0.00061084726,4.0223527,0.09964446
121,1778428924730,0.4834496255555555,0.0505415686666666,0.30838182,0.0422163336133333,4.281352211111111,0.1291008666666666
122,1778428924740,0.46935663125,0.074516548125,0.4194833275,0.076355904,4.522026,0.15889664
123,1778428924750,0.480028,0.080279075,0.5354276,0.13133216,4.7633104,0.17416783
124,1778428924760,0.4796214833333333,0.08344999,0.6784542333333332,0.2250632844444444,4.7823146,0.16805935
125,1778428924770,0.464966145,0.080888866,0.83324225,0.3452050625,4.714290374999999,0.15614782875
126,1778428924780,0.4582381088888889,0.0777586046666666,0.9601712333333332,0.5038132288888888,4.5096054444444444,0.1312049082222222
127,1778428924790,0.46825902625,0.078724105,1.0341494624999998,0.656431715,4.214082375,0.077730315375
128,1778428924800,0.47466183,0.07637641,1.0964968,0.7745543,3.96982,0.022677705
129,1778428924810,0.46551495375,0.054271458875,1.1145276375,0.861218275,3.74248935,-0.074294298125
130,1778428924820,0.4714638244444444,0.0249777447777777,1.1310551111111111,0.8268835666666666,3.5480553333333336,-0.1933586133333333
131,1778428924830,0.465118625,0.012958073375,1.1298829375,0.7391251750000001,3.430823575,-0.241971875
132,1778428924840,0.4531971999999999,0.010671355,1.1207361,0.6037461625,3.2716215625,-0.267169325
133,1778428924850,0.4379015799999999,0.026922303,1.1362858999999998,0.4867774044444444,3.114625444444444,-0.2656422222222222
134,1778428924860,0.428790255,0.0586924464999999,1.1486037,0.3223746425,2.83181155,-0.221584845
135,1778428924870,0.4338464511111111,0.0735611994444444,1.1459612666666663,0.2037514966666666,2.666331311111111,-0.1805308177777777
136,1778428924880,0.43287969375,0.123921104375,1.1595607875,0.054518115,2.56143535,-0.138127835
137,1778428924890,0.4041394266666667,0.18165694,1.2030783333333332,-0.1521009666666666,2.4916967999999997,-0.0718000019999999
138,1778428924900,0.3758755728571428,0.20584825,1.2515887857142858,-0.2875345314285714,2.4375641142857143,-0.0278480894285714
139,1778428924910,0.34971553,0.21818347,1.3444687,-0.39643988,2.3009088,0.02817533
140,1778428924920,0.34971553,0.21818347,1.3444687,-0.39643988,2.3009088,0.02817533
141,1778428924930,0.36617119,0.2054910871428571,1.3623181857142856,-0.4088313542857143,2.153781914285714,0.0739016099999999
142,1778428924940,0.44058466,0.1751423333333333,1.3650288666666668,-0.3355587666666667,1.4773510888888888,0.28099822
143,1778428924950,0.4208477224999999,0.15612572125,1.3064062375,-0.28114245,1.3693669,0.3010713475
144,1778428924960,0.4153595962499999,0.1284831,1.2523557875,-0.2522799,1.288735,0.30427828
145,1778428924970,0.39014811,0.1065983655555555,1.1883451333333337,-0.2928673311111111,1.3110649333333333,0.2570394266666666
146,1778428924980,0.35575245,0.1219583375,1.16482405,-0.447922825,1.4971867,0.2044047725
147,1778428924990,0.3528331,0.15746346,1.167385125,-0.6468872,1.748473925,0.19692189125
148,1778428925000,0.4129814177777777,0.2131425266666666,1.2379854777777777,-1.185798711111111,2.549523644444444,0.2622655688888888
149,1778428925010,0.48988756875,0.1065039285,1.8010083125,-1.8666729,3.0356053249999997,0.4151470625
150,1778428925020,0.5266466,-0.053204324,2.3211415,-2.1960723,2.5311983,0.51318806
151,1778428925030,0.5477606,-0.06350218575,2.517749775,-1.05171671375,1.5711659675,0.32298548375
152,1778428925040,0.3623992,0.038569324,2.3103788,-0.07513421,0.49089214,0.15034479
153,1778428925050,0.3623992,0.038569324,2.3103788,-0.07513421,0.49089214,0.15034479
154,1778428925060,0.35462434625,0.019715327375,1.8525852925,0.3018349025,-0.3679018375,0.06520795
155,1778428925070,0.3075103125,0.00439050025,0.7711349550000001,0.8645016025,-1.063408665,-0.1573695275
156,1778428925080,0.27056456,-0.0073175,0.7848628666666667,0.7375641333333333,-0.1417420244444444,-0.23258858
157,1778428925090,0.2461119225,-0.0107018437625,0.94209005,0.6884248374999999,0.374678425,-0.32000762
158,1778428925100,0.235867415,0.004024625225,1.0484909999999998,0.6519267275,0.42522605,-0.3361950675
159,1778428925110,0.24367274,0.0298950375,1.18569415,0.578472345,0.30549999,-0.283967615
160,1778428925120,0.2485646288888888,0.0411711015555555,1.2542839444444445,0.5110755344444444,0.2044047693333333,-0.2496922888888889
161,1778428925130,0.2382151187499999,0.0489967605,1.3646871125,0.358949125,-0.0553580345,-0.20845162875
162,1778428925140,0.22818404,0.040032823,1.4464563,0.211964,-0.2873273,-0.17584765
163,1778428925150,0.2547506222222222,0.0543968027777777,1.5273689888888888,0.0604738777777777,-0.5550141355555556,-0.1877931122222222
164,1778428925160,0.2751075125,0.056009365,1.627297675,-0.024739314125,-0.8758022875,-0.2060082425
165,1778428925170,0.2712048475,0.09736086,1.669152275,-0.0583359145,-1.120981125,-0.211887645
166,1778428925180,0.2672954088888888,0.1491279322222222,1.6736104222222223,-0.0540939202222222,-1.3448566,-0.1828384611111111
167,1778428925190,0.2657777,0.18424855,1.6341501,-0.023975755,-1.6999116,-0.11323581325
168,1778428925200,0.2705747422222222,0.1907530011111111,1.5870132666666663,-0.0612883386666666,-1.956645566666667,-0.0424793358333333
169,1778428925210,0.27498555,0.1531415599999999,1.5478647,-0.14057121875,-2.1400270125,0.0129805039375
170,1778428925220,0.29694567,0.1159214024999999,1.51523325,-0.2860292275,-2.348707875,0.0393232925
171,1778428925230,0.32041503125,0.08795864125,1.5015510375,-0.42881477,-2.528296925,0.0379488875
172,1778428925240,0.3457891666666667,0.0658066907777777,1.4786803555555557,-0.5197037755555556,-2.7116528666666664,0.0306187184444444
173,1778428925250,0.37401572,0.0607047627499999,1.41443465,-0.5550979,-2.957493425,0.010918895875
174,1778428925260,0.3758687966666666,0.059166728,1.3451428444444444,-0.5296724466666666,-3.205963822222222,-0.0284298501111111
175,1778428925270,0.36380171375,0.05445439775,1.269258525,-0.472719415,-3.329117625,-0.039476004375
176,1778428925280,0.36720638,0.0389656886666666,1.1846016666666666,-0.3969149822222222,-3.412769822222222,-0.0353527842222222
177,1778428925290,0.3816381199999999,0.02683083475,1.10926445,-0.31870956,-3.4066187375,-0.039552358125
178,1778428925300,0.4128670725,0.03013133175,1.056364975,-0.2240282374999999,-3.26253515,-0.04039227375
179,1778428925310,0.45441675,0.037837572,1.0267063,-0.13560809,-3.1589966,-0.044515494
180,1778428925320,0.4646612544444444,0.0387590381111111,1.0093576777777775,-0.0331893653333333,-3.2302621333333335,-0.0463480376666666
181,1778428925330,0.46270993,0.032471407,0.9583791,0.032374904,-3.3422508,-0.037796173
182,1778428925340,0.4578857966666667,0.0240020778888888,0.9093992777777776,0.0823286355555555,-3.420303488888889,-0.0204209625555555
183,1778428925350,0.451794645,0.007744353625,0.78985555,0.19333316,-3.5548257,0.01519482575
184,1778428925360,0.45124584,-0.0026830835,0.7250728,0.23823044,-3.565821000000001,0.020234315
185,1778428925370,0.45124584,-0.0026830835,0.7250728,0.23823044,-3.565821,0.020234315
186,1778428925380,0.4604875877777778,0.0167286181444444,0.6016577444444444,0.2744061544444444,-3.467270933333334,0.0396456847777777
187,1778428925390,0.48222327,0.03515449,0.5222561,0.29198498,-3.410055,0.07032379
188,1778428925400,0.4862860025,0.036770438125,0.50847099625,0.2894652375,-3.4183777749999997,0.0814717525
189,1778428925410,0.5064015,0.037105825,0.44685537,0.27427042,-3.4729722,0.1338519
190,1778428925420,0.51957303,0.011708,0.3758451,0.26083177,-3.5462737,0.1711136
191,1778428925430,0.51957303,0.011708,0.3758451,0.26083177,-3.5462737,0.1711136
192,1778428925440,0.51819083,0.0042820925555555,0.3530659977777778,0.2526871422222222,-3.531002511111111,0.1743035788888889
193,1778428925450,0.53908634,-0.025367333,0.21525647,0.120947756,-3.4161632,0.2242573
194,1778428925460,0.53908634,-0.025367333,0.21525647,0.120947756,-3.4161632,0.2242573
195,1778428925470,0.543549245,-0.0178973853749999,0.167269675,0.043064731125,-3.3902023000000003,0.23509984125
196,1778428925480,0.5730212166666667,-0.0028727964222222,0.0669517397777777,-0.15576605,-3.3043783,0.28473118
197,1778428925490,0.57936305,-0.0019513334,0.055399574,-0.15576605,-3.3043783,0.28473118
198,1778428925500,0.57936305,-0.0019513334,0.055399574,-0.15576605,-3.3043783,0.28473118
199,1778428925510,0.6048637775,-0.00698211461625,0.0036358832499999,-0.21738527375,-3.2351998375,0.27740101375
200,1778428925520,0.6561188844444446,0.0021139444444444,-0.1241298788888888,-0.3253101177777778,-2.9327116666666666,0.2300264144444444
201,1778428925530,0.66430704,0.01128876825,-0.1417232125,-0.3263451625,-2.800582,0.2074590025
202,1778428925540,0.68333256,0.031983573,-0.17595538,-0.32497075,-2.5646422,0.1698919
203,1778428925550,0.7541445999999999,0.0707968185,-0.13968040625,-0.3121429525,-2.1303298,0.1318666525
204,1778428925560,0.79901004,0.08271824,-0.095920235,-0.2260134799999999,-1.9128681,0.08070819
205,1778428925570,0.79004609625,0.07155905375,-0.1212570725,-0.101400644375,-1.7855065125,0.0296260909875
206,1778428925580,0.78193588625,0.0637232324999999,-0.1425730975,-0.016492875,-1.6679184,-0.0041995747
207,1778428925590,0.7836433,0.05710699,-0.1498563,0.05314371,-1.5701065,-0.021303298
208,1778428925600,0.781813925,0.043626782875,-0.164948645,0.1701973199999999,-1.4553435625,-0.030007871875
209,1778428925610,0.7836433,0.022440333,-0.19010256,0.24494976,-1.3666943,-0.031687703
210,1778428925620,0.8072761,-0.0024933701111111,-0.2055235111111111,0.3041340622222221,-1.2901348333333331,-0.0257149732222222
211,1778428925630,0.8179136,-0.0115860415,-0.213670995,0.3268032749999999,-1.27201305,-0.0271063475
212,1778428925640,0.8334328,-0.031739656,-0.24550213,0.37628191875,-1.215891475,-0.036192699375
213,1778428925650,0.8334328,-0.031739656,-0.24550213,0.3811687,-1.2090958,-0.037185326
214,1778428925660,0.8216299266666667,-0.0356965268888888,-0.2456918455555555,0.3915531,-1.1935531222222222,-0.0652164275555555
215,1778428925670,0.802546825,-0.03960596875,-0.253071175,0.4020902125,-1.179316975,-0.107890897
216,1778428925680,0.8007175,-0.037593655,-0.2640703,0.39888325,-1.1779426,-0.1129303899999999
217,1778428925690,0.79974174,-0.014543531125,-0.35094653,0.35291701,-1.14144445,-0.1005607315
218,1778428925700,0.79821728,-0.006280853925,-0.38834582,0.309852275,-1.104335475,-0.06803311525
219,1778428925710,0.7936439,-0.0039026667,-0.41267654,0.2699945,-1.0576056,-0.037796173
220,1778428925720,0.7876001677777779,-0.0103258060444444,-0.4594509088888888,0.1926883777777777,-0.9305494333333334,0.0084246012688888
221,1778428925730,0.7862654250000001,-0.0178059175,-0.4882716099999999,0.112395895,-0.78058645,0.0471115935
222,1778428925740,0.78894849,-0.018659625,-0.50365743,0.066124216,-0.664830875,0.06161921625
223,1778428925750,0.7939487525,-0.0160985,-0.5257318875,0.0067193205,-0.4826456875,0.07887565125
224,1778428925760,0.79772949,-0.01122016675,-0.533293305,-0.0348182925,-0.331002855,0.0907871725
225,1778428925770,0.79535127,-0.009756667,-0.53347623,-0.0659715,-0.17981817,0.09903361
226,1778428925780,0.7904729,-0.0131715005,-0.5373789,-0.080020994,-0.10224056,0.10330954
227,1778428925790,0.7842835375,-0.0012500729375,-0.5503026375000001,-0.1192679255,0.188904515,0.1116323375
228,1778428925800,0.7836433,0.0036587503,-0.5432329,-0.14110571,0.4053735,0.11125056
229,1778428925810,0.77141696,-0.0036587503,-0.5354276,-0.15454435,0.5837409,0.10575293
230,1778428925820,0.7803008600000001,-0.029952204375,-0.53974567375,-0.19211146,0.90094247,0.0706292145
231,1778428925830,0.7981156733333334,-0.0464559619999999,-0.5280287633333334,-0.2063306244444444,1.1354124333333333,0.0195555966666666
232,1778428925840,0.80340055,-0.0538750935,-0.5101822075,-0.1963874,1.40128365,-0.05260922
233,1778428925850,0.8012053,-0.052228656,-0.48932734,-0.1808108,1.608819,-0.10804361
234,1778428925860,0.7930205322222222,-0.0423364813333333,-0.4305061288888889,-0.1211513733333333,1.9319571666666668,-0.1951911533333333
235,1778428925870,0.77594467,-0.024894745,-0.35081315,-0.062306420375,2.16117755,-0.26106084875
236,1778428925880,0.7637742666666667,-0.0130901942333333,-0.29626728,-0.0242302745555555,2.3324014111111113,-0.31084489
237,1778428925890,0.753397635,-0.0075614166875,-0.24671027125,-0.006719320125,2.4453743,-0.3516189425
238,1778428925900,0.752787815,-0.013384927125,-0.21052677375,-0.0005344913124999,2.5324964875,-0.38933877125
239,1778428925910,0.7536381555555556,-0.0216272781111111,-0.1432298977777777,0.004275931,2.6552003666666666,-0.4383083533333333
240,1778428925920,0.75263535,-0.02494810175,-0.10774257125,0.00656660825,2.700555725,-0.4716504325
241,1778428925930,0.74970835,-0.02703663775,-0.07283961625,0.0250447374999999,2.7416353,-0.5101338225000001
242,1778428925940,0.7413880911111111,-0.0149331201111111,-0.027152668,0.0776454722222222,2.8367577333333336,-0.56658628
243,1778428925950,0.7167148525,0.0125045405,0.01168132225,0.14935215375,2.945887325,-0.619093715
244,1778428925960,0.6940649,0.038569324,0.03369099,0.21562909,3.0180435,-0.6474217
245,1778428925970,0.6940649,0.038569324,0.03369099,0.21562909,3.0180435,-0.6474217
246,1778428925980,0.6940649,0.038569324,0.03369099,0.21562909,3.0180435,-0.6474217
247,1778428925990,0.6592593333333334,0.1157824982222222,0.1780422411111111,0.4003764411111111,3.391678444444444,-0.6490506866666667
248,1778428926000,0.6267134,0.12140952125,0.2192506025,0.47447561,3.457548125,-0.60802211
249,1778428926010,0.610797825,0.1128114524999999,0.24093631,0.464091195,3.583382675,-0.55884887
250,1778428926020,0.6069561,0.10348164,0.29455987,0.44530764,3.6777587,-0.51303536
251,1778428926030,0.5906849099999999,0.08558426,0.346382,0.3830012266666667,3.7054758,-0.4383083599999999
252,1778428926040,0.56899659375,0.0764373825,0.378749225,0.269001855,3.838487625,-0.3625378375
253,1778428926050,0.563538975,0.07232129125,0.4928869875,0.187071975,3.8904097,-0.3004605
254,1778428926060,0.57046009,0.0669856185,0.5499711,0.11911522,3.7808964,-0.2213557825
255,1778428926070,0.57155776,0.065156244,0.5605815,0.0787993,3.7272372,-0.18195613
256,1778428926080,0.55753254375,0.09210903125,0.6184507625,0.0056503375,3.7024979375,-0.14041851125
257,1778428926090,0.5404507675,0.09829842,0.6480027825,-0.01756185875,3.654088325,-0.1214822475
258,1778428926100,0.51264802375,0.09692638625,0.66851459375,-0.034207446125,3.632174225,-0.11025793175
259,1778428926110,0.4687265166666667,0.0897410066666666,0.6973272766666666,-0.0726908253333333,3.733702077777778,-0.1081114788888888
260,1778428926120,0.4259928375,0.0891439175,0.7352029875,-0.128277925,3.97409595,-0.098270051
261,1778428926130,0.3934071,0.08052299,0.7912047,-0.1765348575,4.0843539,-0.0849841245
262,1778428926140,0.3780945577777778,0.0750213111111111,0.9419011633333332,-0.2512618366666667,4.103391755555555,-0.06827067
263,1778428926150,0.38389435,0.099075902,1.036828835,-0.379641575,3.9038485,-0.066505995
264,1778428926160,0.38282722625,0.12889090375,1.0979719375,-0.4752582525,3.735541,-0.0646734539999999
265,1778428926170,0.3739445844444444,0.1469022033333333,1.1395957222222222,-0.55289311,3.5209745555555556,-0.0441082613333333
266,1778428926180,0.3493801374999999,0.15077099875,1.2131310375,-0.59901210375,3.267498425,-0.0184017738225
267,1778428926190,0.3272752,0.15107588,1.2687936,-0.61886466,3.0754633,0.00068720314
268,1778428926200,0.3272752,0.15107588,1.2687936,-0.61886466,3.0754633,0.00068720314
269,1778428926210,0.2714449525,0.1497953225,1.336880625,-0.532219775,2.985821425,0.015500249785
270,1778428926220,0.2706560311111111,0.1502086244444444,1.401829777777778,-0.4416425733333333,2.8779559999999997,0.0287861766666666
271,1778428926230,0.289437615,0.1438727175,1.411576225,-0.3945309825,2.7527831875,0.027182701625
272,1778428926240,0.29614530875,0.13445906375,1.406728325,-0.3811687,2.5977807,0.007406523
273,1778428926250,0.27485977375,0.1289709425,1.426428525,-0.443704175,2.3422938749999997,-0.0034360160625
274,1778428926260,0.2175660525,0.14111342,1.497229075,-0.497535075,2.1295661999999997,0.018554485875
275,1778428926270,0.182967995,0.1513807725,1.572027725,-0.5279247275,1.8847692,0.0639098965
276,1778428926280,0.16050733,0.16205213,1.6583895,-0.4886778111111111,1.6107872777777776,0.1257751522222222
277,1778428926290,0.14522189,0.17132097,1.7073557,-0.4459185,1.5025315,0.15156648
278,1778428926300,0.14522189,0.17132097,1.7073557,-0.4459185,1.5025315,0.15156648
279,1778428926310,0.1675326475,0.1495361624999999,1.793382,-0.200510613,1.147896525,0.2056264575
280,1778428926320,0.2405424933333333,0.1176288133333333,1.8144858666666663,-0.0566051776666666,0.69606895,0.2499128888888889
281,1778428926330,0.32629952,0.08787098,1.7856834,-0.042759307,0.52448875,0.26212984
282,1778428926340,0.42200297,0.0356118354888888,1.7039882777777775,-0.0376689144444444,0.0029609133333333,0.2826271555555555
283,1778428926350,0.46203914,0.0010366457999999,1.58733345,-0.0436755785,-0.49761145,0.28595287
284,1778428926360,0.46368557,-0.008293167,1.4996607,-0.051922016,-0.7711183,0.27312508
285,1778428926370,0.4569169,0.0097566665,1.33585535,-0.0774248875,-0.994230225,0.21799612
286,1778428926380,0.46173426625,0.02384666575,1.2709239875,-0.0853659025,-1.0064471625,0.176305795
287,1778428926390,0.45831943,0.050765157,1.1970515,-0.08857285,-0.98124975,0.1350736
288,1778428926400,0.45831943,0.050765157,1.1970515,-0.08857285,-0.98124975,0.1350736
289,1778428926410,0.45831943,0.050765157,1.1970515,-0.08857285,-0.98124975,0.1350736
290,1778428926420,0.45831943,0.050765157,1.1970515,-0.08857285,-0.98124975,0.1350736
291,1778428926430,0.4250019175,0.0359472187499999,1.154587175,-0.049173205,-0.8062420125,0.09704836
292,1778428926440,0.39855984875,0.00673819875,1.1802022625,-0.01786728175,-0.6825454624999999,0.05428905125
293,1778428926450,0.39901718,-0.0043905,1.2143697,-0.004886778,-0.6428404,0.03061872
294,1778428926460,0.39901718,-0.0043905,1.2143697,-0.004886778,-0.6428404,0.03061872
295,1778428926470,0.406944465,0.00012195835,1.342746,-0.0022906771249999,-0.80135524875,-0.051311168125
296,1778428926480,0.40926167,0.006829667,1.3659334,-0.012216945,-0.89145523,-0.07383616
297,1778428926490,0.411609365,0.027131918375,1.3904774125,-0.031458636875,-1.13839017875,-0.09949174625
298,1778428926500,0.40294695,0.0490035375555555,1.3776685,-0.0295242857777777,-1.4141368444444444,-0.1104191272222222
299,1778428926510,0.3875531,0.06564408,1.3483714,-0.017103724,-1.580491,-0.11476293
300,1778428926520,0.3875531,0.06564408,1.3483714,-0.017103724,-1.580491,-0.11476293
301,1778428926530,0.36667154,0.0813462118749999,1.3050800625,-0.022983128,-1.7303680625,-0.1317139425
302,1778428926540,0.3684971,0.082962155,1.3007771,-0.049478628,-1.8114675,-0.14041851
303,1778428926550,0.3839451555555555,0.0760782888888888,1.3074983666666666,-0.0964459964444444,-1.9385237,-0.1453052833333333
304,1778428926560,0.4035703011111111,0.0707663244444444,1.3079862555555557,-0.1523045833333333,-2.158768022222222,-0.1434727433333333
305,1778428926570,0.42048183,0.05905832,1.2915083,-0.1655396,-2.2561643,-0.14041851
306,1778428926580,0.4240863977777778,0.0514969091111111,1.269853877777778,-0.1646572666666667,-2.4054146999999997,-0.1383823566666666
307,1778428926590,0.4279890777777778,0.037891776,1.2115442333333333,-0.1529833111111111,-2.5626059666666667,-0.1434048766666666
308,1778428926600,0.42779937,0.03808149,1.167507,-0.1368298,-2.6281703,-0.15385716
309,1778428926610,0.42779937,0.03808149,1.167507,-0.1368298,-2.6281703,-0.15385716
310,1778428926620,0.4277764775,0.04024625,1.1104992125,-0.019623470125,-2.6372567499999997,-0.19600561375
311,1778428926630,0.430269,0.04247199,1.0818619,0.025044737,-2.6165643,-0.21249849
312,1778428926640,0.430269,0.04247199,1.0818619,0.025044737,-2.6165643,-0.21249849
313,1778428926650,0.4507579933333333,0.0438270821111111,1.0612543333333333,0.0973283297777777,-2.631020966666666,-0.2270909533333333
314,1778428926660,0.487082525,0.038996176625,1.00370568125,0.25533414875,-2.7886704125,-0.2491493287499999
315,1778428926670,0.4920104075,0.0350935125,0.9827707875,0.3019112525,-2.926416525,-0.2373905124999999
316,1778428926680,0.50081853,0.0334741739999999,0.9508921555555556,0.33169007,-3.0441573,-0.22960222
317,1778428926690,0.50103533,0.03369099,0.8831918,0.33169007,-3.0441573,-0.22960222
318,1778428926700,0.48158297,0.0451550733333333,0.83341244,0.3759425544444444,-3.2420718111111113,-0.2519999466666667
319,1778428926710,0.46670405125,0.058448532375,0.78241988875,0.4136199475,-3.363554125,-0.26716931875
320,1778428926720,0.458319415,0.0666502325,0.728209415,0.463938485,-3.410818475,-0.2722851525
321,1778428926730,0.4429527,0.07027849,0.6716246,0.5131117,-3.4460948,-0.26319882
322,1778428926740,0.4439283599999999,0.0758962,0.6173835999999999,0.531742545,-3.462587675,-0.2277696675
323,1778428926750,0.4550942933333333,0.0867327055555555,0.5597074466666666,0.5224780188888889,-3.5050076999999997,-0.18399228
324,1778428926760,0.4645915471428571,0.0871305217142857,0.5007129714285715,0.5078758442857143,-3.620622642857143,-0.1222676171428571
325,1778428926770,0.4630893355555556,0.0794389182222222,0.4259801177777778,0.4904424633333333,-3.723283666666666,-0.0705104363333333
326,1778428926780,0.46289286875,0.0654916252499999,0.35724264,0.4789805937499999,-3.73731635,-0.04253024075
327,1778428926790,0.47140962,0.0560500209999999,0.2704019433333333,0.4577282166666667,-3.6725155666666662,-0.0257828453333333
328,1778428926800,0.47905236,0.056375243,0.22354963,0.43125817,-3.6049151,-0.011529742
329,1778428926810,0.505029465,0.06027790375,0.1767747875,0.412474605,-3.4716741625,0.0073301669249999
330,1778428926820,0.5505313625,0.06149749,0.12159245375,0.3678827575,-3.3218636625,0.05596887875
331,1778428926830,0.5663541799999999,0.0530417116666666,0.0621580956666666,0.3467576133333334,-3.3383141666666667,0.0925857777777777
332,1778428926840,0.5636304799999999,0.04119142625,-0.00945939225,0.325734295,-3.3190386,0.1369061349999999
333,1778428926850,0.5676551,0.03442274,-0.06710757,0.3115321,-3.2237463,0.16072918
334,1778428926860,0.58570486,0.03881324,-0.110555224,0.26694024625,-3.0737834,0.1905079875
335,1778428926870,0.60293155,0.04405744925,-0.1803535175,0.21226942,-2.9676487,0.219217805
336,1778428926880,0.6096934311111111,0.0529062044444444,-0.2475686533333333,0.1400876388888889,-2.8364013666666668,0.2570394355555556
337,1778428926890,0.6424269375,0.0712541575,-0.32048745125,0.067651332,-2.7288073,0.2943520275
338,1778428926900,0.6596726,0.07369333,-0.35313037,0.021379653,-2.6825356,0.3122193
339,1778428926910,0.6683994311111111,0.0695196344444444,-0.4239000633333333,-0.0571481546666666,-2.5106840666666668,0.3174454499999999
340,1778428926920,0.68796694,0.06881499,-0.4753936,-0.10934166,-2.377723,0.3146627
341,1778428926930,0.70910003,0.063875677,-0.5045683125,-0.14393088625,-2.2263091875,0.29496287625
342,1778428926940,0.7275119625,0.0628695215,-0.5527571,-0.15882029,-1.92080925,0.2540361075
343,1778428926950,0.7409274,0.055399574,-0.5735091,-0.15882029,-1.7100669,0.22608984
344,1778428926960,0.7528792875000001,0.052838448125,-0.5914369749999999,-0.16363069875,-1.5432387875,0.20257222875
345,1778428926970,0.76580685,0.04686249,-0.6301282,-0.18508671,-1.3422605,0.18088715
346,1778428926980,0.7790291666666667,0.0314313721111111,-0.6491537311111111,-0.2267600777777777,-1.111088766666667,0.16473363
347,1778428926990,0.7969062375,0.00899442675,-0.65619682,-0.27182704,-0.8719081,0.14790139
348,1778428927000,0.8271044777777777,-0.0268206697777777,-0.6486930066666666,-0.3181156833333333,-0.5634302422222223,0.1074497277777777
349,1778428927010,0.8419698250000001,-0.0338129465,-0.640128825,-0.3348970075,-0.311608445,0.0846786975
350,1778428927020,0.85904399,-0.035337425,-0.6131684,-0.33306445125,-0.114075716625,0.067193193
351,1778428927030,0.866666445,-0.0328296595,-0.588266065,-0.30496547,0.09491039775,0.05154023675
352,1778428927040,0.8659346675,-0.0187815845,-0.56759029,-0.26449685125,0.35398600125,0.047035238625
353,1778428927050,0.8537388724999999,0.002774552,-0.5306674250000001,-0.23456535,0.6185592,0.063604474
354,1778428927060,0.8465501222222221,0.0270815248888888,-0.4654404333333333,-0.1820324833333333,0.9401533,0.124485578
355,1778428927070,0.8378233,0.044179406,-0.4195062,-0.1563769,1.0651649,0.17294613
356,1778428927080,0.829373805,0.046679552,-0.392580075,-0.14034215625,1.1822948625,0.2257080575
357,1778428927090,0.8134552955555556,0.0427701077777777,-0.3508267044444444,-0.1269883577777777,1.350430611111111,0.3133731144444444
358,1778428927100,0.79632694,0.03539841,-0.3187381,-0.12644538,1.4139587,0.37635827
359,1778428927110,0.792939191111111,0.0155293618888888,-0.2850200288888889,-0.1247485833333333,1.4092755,0.4442980666666667
360,1778428927120,0.79150959,-0.007839634125,-0.276113665,-0.11545012625,1.393037175,0.470734165
361,1778428927130,0.785411675,-0.0335690315,-0.281632295,-0.093383275625,1.4377054,0.46279315625
362,1778428927140,0.7801064812499999,-0.037410719375,-0.2876082412499999,-0.0568087972499999,1.51322145,0.439428245
363,1778428927150,0.7608099899999999,-0.0254655775555555,-0.3072842033333333,0.0124884335555555,1.6758765,0.40561107
364,1778428927160,0.73861017625,-0.009939604375,-0.3161655587499999,0.05711421975,1.842009975,0.3841465725
365,1778428927170,0.7254909542857142,0.0136941788571428,-0.30034418,0.1025350757142857,2.1221925,0.3742639328571428
366,1778428927180,0.7256148444444445,0.0315804335555555,-0.2684269088888889,0.1358117077777777,2.270502344444444,0.3744578544444444
367,1778428927190,0.727512,0.050765157,-0.21623214,0.1963873962499999,2.447588625,0.3640649625
368,1778428927200,0.6828447,0.0554808786666666,-0.1702538333333333,0.2475288922222222,2.721782666666667,0.3335310955555555
369,1778428927210,0.6628435500000001,0.06064378,-0.125312185,0.2594573875,2.8584597499999997,0.3288648975
370,1778428927220,0.6604044,0.06418057,-0.10884781,0.27182704,2.947796,0.33115557
371,1778428927230,0.6630875,0.06271707,-0.09738373,0.28098974,3.0809608,0.3287122
372,1778428927240,0.6630875,0.06271707,-0.09738373,0.28098974,3.0809608,0.3287122
373,1778428927250,0.6630875,0.06271707,-0.09738373,0.28098974,3.0809608,0.3287122
374,1778428927260,0.6630875,0.06271707,-0.09738373,0.28098974,3.0809608,0.3287122
375,1778428927270,0.6029823555555556,0.0334504615555555,-0.0324747932222222,0.5302832922222223,3.732454844444444,0.1361595531111111
376,1778428927280,0.5542397,0.022928167,-0.015610667,0.74225574375,4.4486479625,-0.0245866025
377,1778428927290,0.52884185,0.026099084,0.03491057,0.8368607,4.9997087,-0.115984626
378,1778428927300,0.5208738833333333,0.0267495273333333,0.1061545633333333,0.8918369666666668,5.364587966666666,-0.1868429086666666
379,1778428927310,0.4962980125,0.021220749625,0.263773,0.9274188375,5.70164825,-0.2771719462499999
380,1778428927320,0.4605147,0.0067077087499999,0.5098086875,0.9054283625,5.90727475,-0.3980433475
381,1778428927330,0.4561241999999999,-0.0075614169999999,0.63793355,0.8325848,5.697907,-0.40858045
382,1778428927340,0.4561242,-0.007561417,0.63793355,0.8325848,5.697907,-0.40858045
383,1778428927350,0.39237046,-0.0168912295,0.7361633625,0.71209518125,5.2680231875,-0.4094967175
384,1778428927360,0.3460568,-0.014635001,0.7809602,0.5201703922222222,4.899393900000001,-0.4110917288888889
385,1778428927370,0.3460568,-0.014635001,0.7809602,0.50333816,4.8769283,-0.41102386
386,1778428927380,0.3008058899999999,0.0062808537142857,0.849431102857143,0.2594355634285714,4.729015942857143,-0.4203610971428571
387,1778428927390,0.22940363,0.04027674,0.96228176,-0.1368298,4.4676604,-0.42140827
388,1778428927400,0.22940363,0.04027674,0.96228176,-0.1368298,4.4676604,-0.42140827
389,1778428927410,0.203719965,0.054576357125,1.1410384274999998,-0.37811444625,4.0180578125,-0.33756947
390,1778428927420,0.20769504,0.06637583,1.2583052,-0.527772,3.5580325,-0.23937577
391,1778428927430,0.21037812375,0.0673819849999999,1.2527218,-0.537860525,3.4592279625,-0.2370850924999999
392,1778428927440,0.2182105633333333,0.09265107,1.1992197333333334,-0.6340000511111111,2.750221,-0.2285162633333333
393,1778428927450,0.194359665,0.12275106875,1.192081725,-0.72331953,2.6894078,-0.25464696
394,1778428927460,0.17741889,0.1349469,1.2102231,-0.72331953,2.6894078,-0.25464696
395,1778428927470,0.1388766666666666,0.1617811177777778,1.2935510777777777,-0.92632442,2.4318339333333334,-0.2609590466666666
396,1778428927480,0.126867165,0.1253007609999999,1.406678925,-0.9247463875,2.122465225,-0.18218519375
397,1778428927490,0.12519024,0.088846646,1.4408463,-0.8949676,1.9502826,-0.16424155
398,1778428927500,0.12519024,0.088846646,1.4408463,-0.8949675999999999,1.9502826,-0.16424155
399,1778428927510,0.12519024,0.088846646,1.4408463,-0.8949676,1.9502826,-0.16424155
400,1778428927520,0.09942653125,-0.040238628,1.4787752875,-0.7219451025,1.6251591125,-0.088343786
401,1778428927530,0.09372498,-0.06369274,1.4611218,-0.6640673,1.5489559,-0.034741938
402,1778428927540,0.09372498,-0.06369274,1.4611218,-0.6640673,1.5489559,-0.034741938
403,1778428927550,0.09372498,-0.06369274,1.4611218,-0.6640673,1.5489559,-0.034741938
404,1778428927560,0.09372498,-0.06369274,1.4611218,-0.6640673,1.5489559,-0.034741938
405,1778428927570,0.09372498,-0.06369274,1.4611218,-0.6640673,1.5489559,-0.034741938
406,1778428927580,0.09372498,-0.06369274,1.4611218,-0.6640673,1.5489559,-0.034741938
407,1778428927590,0.09372498,-0.06369274,1.4611218,-0.6640673,1.5489559,-0.034741938
408,1778428927600,0.09372498,-0.06369274,1.4611218,-0.6640673,1.5489559,-0.034741938
409,1778428927610,0.09372498,-0.06369274,1.4611218,-0.6640673,1.5489559,-0.034741938
410,1778428927620,0.09372498,-0.06369274,1.4611218,-0.6640673,1.5489559,-0.034741938
411,1778428927630,0.09372498,-0.06369274,1.4611218,-0.6640673,1.5489559,-0.034741938
412,1778428927640,0.09372498,-0.06369274,1.4611218,-0.6640673,1.5489559,-0.034741938
413,1778428927650,0.09372498,-0.06369274,1.4611218,-0.6640673,1.5489559,-0.034741938
414,1778428927660,0.09372498,-0.06369274,1.4611218,-0.6640673,1.5489559,-0.034741938
415,1778428927670,0.09372498,-0.06369274,1.4611218,-0.6640673,1.5489559,-0.034741938
416,1778428927680,0.1634817588888889,-0.0692824966666666,1.4839415666666669,-0.5541487366666666,0.6967476444444444,0.03516613898
417,1778428927690,0.11689706,-0.10348164,1.5060024,-0.39216393,0.39437827,0.07398888
418,1778428927700,0.153377845,-0.10518906,1.65841985,-0.39216393,0.39437827,0.07398888
419,1778428927710,0.185529115,-0.0388322955,1.9367898625,0.187835535,0.929824035,0.006795678
420,1778428927720,0.2784342611111111,-0.0704173885555555,1.16673136,0.4997409233333333,-0.7861179894444444,-0.1184958873333333
421,1778428927730,0.2387029625,0.048021095375,1.231104575,0.2110477225,-0.1503447849999999,-0.142632836875
422,1778428927740,0.2523013025,0.0473503245,1.339506475,0.27709558,-0.2642678,-0.113999368125
423,1778428927750,0.2555027,0.03369099,1.4227965,0.30420193,-0.3612398,-0.11170869
424,1778428927760,0.2462033875,0.03338609625,1.4609274375,0.3358896425,-0.5200601125,-0.13728792125
425,1778428927770,0.2406238,0.03320316,1.483806,0.35490227,-0.6153523,-0.15263546
426,1778428927780,0.2406237999999999,0.0605218266666666,1.4807705666666666,0.3591781811111111,-0.9241695111111112,-0.1754404255555555
427,1778428927790,0.2506244,0.08320607,1.4552374,0.34008920375,-1.169543375,-0.1589730037499999
428,1778428927800,0.2545406044444445,0.0839649233333333,1.446673177777778,0.3274141333333333,-1.2585065333333334,-0.1429297755555555
429,1778428927810,0.259191945,0.0839378225,1.43499225,0.30924143125,-1.379674925,-0.1203369081249999
430,1778428927820,0.25784278,0.08149865625,1.435602075,0.2945810825,-1.48244995,-0.10666920375
431,1778428927830,0.2613770366666667,0.070928936,1.4444237,0.27494913,-1.648541011111111,-0.1012564166666666
432,1778428927840,0.268064425,0.065705051,1.4564112125,0.2593046599999999,-1.7244218,-0.108654455
433,1778428927850,0.291693855,0.0721688375,1.4735006,0.2202104375,-1.87743905,-0.1236202095
434,1778428927860,0.30724356,0.08149865,1.4674637,0.20463383,-1.9489082,-0.1300341
435,1778428927870,0.31704596,0.09871002375,1.4452786875,0.17218257125,-2.105285125,-0.13156122375
436,1778428927880,0.3215431637499999,0.137325085,1.3757815,0.09949174775,-2.4063564875,-0.11575555475
437,1778428927890,0.324957985,0.138605645,1.3360383,0.073301672,-2.54448425,-0.092772428
438,1778428927900,0.32998875875,0.1340322099999999,1.3140705625,0.064215317125,-2.6145789125,-0.08475505625
439,1778428927910,0.34801574,0.122994985,1.279060925,0.0403159196249999,-2.753775825,-0.071698193625
440,1778428927920,0.38096735,0.10396948,1.2329378,0.0266482116249999,-2.8922853625,-0.05741964175
441,1778428927930,0.3823156633333333,0.0685473622222222,1.1444164222222222,0.0135065107777777,-3.085966444444445,-0.0524565085555555
442,1778428927940,0.3658750075,0.05100907625,1.0630727,-0.0193944005,-3.204810225,-0.036879904
443,1778428927950,0.37044844,0.049545575,1.012559,-0.046424393,-3.2616189,-0.019470757
444,1778428927960,0.3850868477777778,0.0510090734444444,0.9595445,-0.1041155211111111,-3.328269177777778,-0.0014168261777777
445,1778428927970,0.39072403,0.070522405,0.9474029,-0.13560809,-3.3923402,0.015958386
446,1778428927980,0.4019442,0.079303406,0.96496487,-0.11300674,-3.5554364,0.03000787
447,1778428927990,0.3951924511111111,0.0840733322222222,0.9412981733333332,-0.0993644866666666,-3.843416988888889,0.0290576656666666
448,1778428928000,0.3626431,0.08320607,0.8807526,-0.10262234,-4.0752673,0.055663455
449,1778428928010,0.3536791625,0.0695467425,0.822673775,-0.06505523,-4.298856725,0.131484875625
450,1778428928020,0.3499323644444445,0.0254215382222222,0.6359212700000001,-0.0452026949999999,-4.454679955555555,0.1988053377777777
451,1778428928030,0.37249464,0.0043905,0.4941650166666667,-0.06678597,-4.390744733333333,0.2613153733333333
452,1778428928040,0.40787058125,-0.0042990313625,0.4188239675,-0.11102149,-4.219093625,0.284883895
453,1778428928050,0.4437115055555555,-0.0055558798777777,0.3699301088888889,-0.1516937288888889,-4.080018522222222,0.2828307533333333
454,1778428928060,0.4761829277777778,-0.0005149352444444,0.3298193944444444,-0.20219044,-3.9421027,0.27251422
455,1778428928070,0.50981635,0.01097625,0.29748687,-0.25105822,-3.7539618,0.24563695
456,1778428928080,0.5299597955555556,0.01886289,0.2782377955555555,-0.26144262,-3.639122433333333,0.22507176
457,1778428928090,0.5599310366666667,0.0249608063333333,0.23558286,-0.2523477977777777,-3.494691011111111,0.1890996466666666
458,1778428928100,0.5675195555555557,0.0252623152222222,0.2151480533333333,-0.2343617288888888,-3.3452371555555556,0.1573355911111111
459,1778428928110,0.5814770166666667,0.0310892126666666,0.19955433,-0.1861726744444444,-3.1437932,0.1292366155555555
460,1778428928120,0.58424145,0.032715324,0.19351739,-0.108730815,-3.005063,0.10880717
461,1778428928130,0.5885892399999999,0.0270046242,0.173247909,-0.0100789814999999,-2.90134127,0.08687775
462,1778428928140,0.6153408125,0.01795836525,0.14865577375,0.138738685625,-2.7266694250000003,0.0557398125
463,1778428928150,0.6372018333333334,0.016586334,0.1309629233333333,0.26612579,-2.5699363,0.0214560095333333
464,1778428928160,0.6473989,0.0157732782222222,0.1203389966666666,0.3465539988888889,-2.4950056000000003,-0.0031136243555555
465,1778428928170,0.6591848,0.0129275829999999,0.09909115,0.43614495,-2.485232,-0.023746688
466,1778428928180,0.6745786533333332,0.0007317497777777,0.0421670943333333,0.5012341111111112,-2.4579475,-0.0523886375555555
467,1778428928190,0.6905687533333333,-0.0189238687777777,-0.0201976551111111,0.5436540688888889,-2.4187176444444445,-0.0791301744444444
468,1778428928200,0.7013824,-0.033934906,-0.052472573,0.56075776,-2.4082654,-0.093383275
469,1778428928210,0.7040383666666667,-0.0437186778888888,-0.1057819125555555,0.5116185244444444,-2.398695477777778,-0.0996953625555555
470,1778428928220,0.7089438,-0.03442274,-0.1237267299999999,0.46424392,-2.3826098,-0.100102596
471,1778428928230,0.7061252222222223,-0.0033911192533333,-0.15562561,0.4162584688888888,-2.3911616222222225,-0.1119801796666666
472,1778428928240,0.7057729,0.00048783334,-0.15961297,0.40254834,-2.393605,-0.115373775
473,1778428928250,0.7057729,0.00048783334,-0.15961297,0.40254834,-2.393605,-0.115373775
474,1778428928260,0.7061252222222223,0.00799843408,-0.1778626822222222,0.3989511266666666,-2.3940801111111107,-0.1174778044444444
475,1778428928270,0.76539143,0.072992062,-0.4621039575,0.374983855,-2.0205299875,-0.1535517274999999
476,1778428928280,0.7699534,0.07076632,-0.51615816,0.37567106,-1.9666227,-0.15630054
477,1778428928290,0.76657289125,0.0781752925,-0.53974566375,0.3852919175,-1.6110619125,-0.16401248875
478,1778428928300,0.79559517,0.07540074,-0.57302123,0.4043809,-1.2671263,-0.13736428
479,1778428928310,0.8341645,0.044423323,-0.6167128,0.4147653,-1.0612707,-0.11720632
480,1778428928320,0.8341645,0.044423323,-0.6167128,0.4147653,-1.0612707,-0.11720632
481,1778428928330,0.8265827666666667,0.0268409963333333,-0.6116718666666666,0.3371876866666666,-0.8684466033333333,-0.0891073446666666
482,1778428928340,0.8238895,0.01683025,-0.6169567,0.26877278,-0.74607354,-0.070781924
483,1778428928350,0.8242418444444445,0.00951275,-0.6316255844444445,0.2266243244444444,-0.6824096944444444,-0.0649449393333333
484,1778428928360,0.8258409,-0.011951917,-0.6711367,0.10689827,-0.4919611199999999,-0.04940227
485,1778428928370,0.8404724944444444,-0.0216272788888888,-0.6755001111111111,0.0194792405555555,-0.2753139511111111,-0.0418006153333333
486,1778428928380,0.84465295,-0.024391668,-0.6767468,-0.005497625,-0.21341476,-0.039628714
487,1778428928390,0.8446529500000001,-0.024391668,-0.6767468,-0.005497625,-0.2134147599999999,-0.039628714
488,1778428928400,0.8467126888888888,-0.0233075938888888,-0.6706183944444444,-0.0214475255555555,-0.1596602011111111,-0.0417327435555555
489,1778428928410,0.8396390777777778,0.0082660650777777,-0.5443474822222223,-0.23884128,0.7077429,-0.07933379
490,1778428928420,0.838555,0.009756667,-0.540062,-0.23884128,0.7077429,-0.07933379
491,1778428928430,0.833283698888889,0.0199334119999999,-0.4902860600000001,-0.2583883911111111,0.8702452333333333,-0.0859852388888888
492,1778428928440,0.8212065,0.037593655,-0.38121125,-0.28282228,1.112811,-0.09765921
493,1778428928450,0.8212065,0.037593655,-0.38121125,-0.28282228,1.112811,-0.09765921
494,1778428928460,0.8083601622222223,0.0313060263333333,-0.3369539433333333,-0.2487505788888888,1.097675611111111,-0.1032247031111111
495,1778428928470,0.8007175,0.029056573,-0.33361703,-0.20707722,1.100594,-0.1135412299999999
496,1778428928480,0.8007175,0.0290565729999999,-0.33361703,-0.20707722,1.100594,-0.11354123
497,1778428928490,0.8007175,0.029056573,-0.33361703,-0.20707722,1.100594,-0.11354123
498,1778428928500,0.773139659,0.0455453404999999,-0.335153705,-0.0954143416,1.3049224499999998,-0.145916136
499,1778428928510,0.7425264155555555,0.0693841313333333,-0.3279527533333333,0.052532863,1.6375288,-0.18745375
500,1778428928520,0.7416591,0.075888574,-0.3158111,0.052532863,1.6375288,-0.18745375
501,1778428928530,0.7416591,0.075888574,-0.3158111,0.052532863,1.6375288,-0.18745375
502,1778428928540,0.7416591,0.075888574,-0.3158111,0.052532863,1.6375288,-0.18745375
503,1778428928550,0.7416591,0.075888574,-0.3158111,0.052532863,1.6375287999999997,-0.18745375
504,1778428928560,0.7416591,0.075888574,-0.3158111,0.052532863,1.6375288,-0.18745375
505,1778428928570,0.7416591,0.075888574,-0.3158111,0.052532863,1.6375288,-0.18745375
506,1778428928580,0.7416591,0.075888574,-0.3158111,0.052532863,1.6375288,-0.18745375
507,1778428928590,0.7416591,0.075888574,-0.3158111,0.052532863,1.6375287999999997,-0.18745375
508,1778428928600,0.7416591,0.075888574,-0.3158111,0.052532863,1.6375288,-0.18745375
509,1778428928610,0.7416591,0.075888574,-0.3158111,0.052532863,1.6375288,-0.18745375
510,1778428928620,0.65481871,0.0791631594,0.15235341,0.3592392623,3.74978516,-0.4844476949999999
511,1778428928630,0.6280956,0.0908792866666666,0.3056275833333333,0.3825939933333333,3.956992233333333,-0.5256595333333334
512,1778428928640,0.6096290666666666,0.10388818,0.3642793833333333,0.3173012222222222,3.927128544444445,-0.519958288888889
513,1778428928650,0.5978154,0.117872736,0.4591914499999999,0.1927833934,3.89828976,-0.491166998
514,1778428928660,0.6013461,0.12226323,0.52859795,0.025655584,3.809778,-0.43729028
515,1778428928670,0.6154932377777779,0.1316946744444444,0.6395055055555555,-0.1414450746666666,3.588591844444444,-0.3703007011111111
516,1778428928680,0.6240032,0.13191149,0.7101938555555556,-0.27427042,3.3491228,-0.31451
517,1778428928690,0.63495778,0.114116418,0.7472204,-0.4004103719999999,2.88445136,-0.254280452
518,1778428928700,0.6328113,0.10884781,0.7226336,-0.49417543,2.5024886,-0.20883341
519,1778428928710,0.6282039888888888,0.1063544411111111,0.7071178,-0.5013698566666667,2.478326155555555,-0.2066615055555555
520,1778428928720,0.6089583,0.0991453533333333,0.6541980777777777,-0.5547256444444444,2.393146866666667,-0.1806665688888889
521,1778428928730,0.582729136,0.112213864,0.66916098,-0.56834756,2.48043701,-0.157277904
522,1778428928740,0.56692336,0.1240519533333333,0.7072364,-0.5566854722222222,2.565609355555556,-0.1225681977777777
523,1778428928750,0.5549138488888888,0.1326466177777777,0.7170506333333333,-0.5339483944444444,2.620178422222222,-0.07668678
524,1778428928760,0.5262129600000001,0.1443207488888889,0.7472692555555556,-0.5095823822222223,2.7362394444444447,-0.0475018591111111
525,1778428928770,0.514401976,0.136312838,0.76117246,-0.463877412,2.82770356,-0.0022448636
526,1778428928780,0.5109004377777778,0.1279817295555555,0.77464546,-0.4459185,2.8793812,0.01718008
527,1778428928790,0.4994092333333333,0.1007714611111111,0.8548127444444444,-0.4693343166666666,2.8704221555555556,0.0809118105555555
528,1778428928800,0.4932029111111111,0.0882741205555555,0.9094060288888888,-0.5204588466666666,2.7819171333333332,0.1120650222222222
529,1778428928810,0.484192892,0.074132375,0.991954236,-0.651178442,2.6084095,0.130003574
530,1778428928820,0.4719787866666667,0.0820779566666666,1.0341152333333332,-0.7727302644444445,2.552238622222222,0.1278791833333333
531,1778428928830,0.4622221000000001,0.09738373,1.0777153,-0.86442524,2.5232573,0.13690615
532,1778428928840,0.4766233233333333,0.1031564277777777,1.1457138111111111,-0.8919133666666667,2.275456933333333,0.1837377666666666
533,1778428928850,0.4877249377777777,0.0961607622222222,1.1682659333333334,-0.8625927,2.101162,0.2114295
534,1778428928860,0.4805700344444445,0.0815257617777777,1.1453648666666667,-0.7632282,1.765942477777778,0.2647089622222222
535,1778428928870,0.4592645999999999,0.0574051125555555,1.1141402444444446,-0.6758770333333333,1.622054,0.3148663133333333
536,1778428928880,0.4149530911111111,0.0516053127777777,1.099755911111111,-0.6209007888888888,1.6532749999999998,0.3357708644444444
537,1778428928890,0.3749744566666667,0.0591396288888888,1.1237953,-0.6086838555555556,1.825533977777778,0.3393680733333333
538,1778428928900,0.3616979377777778,0.0765119166666666,1.1913093888888888,-0.6141814711111111,1.972408811111111,0.3409970177777778
539,1778428928910,0.386162774,0.0903132,1.27673,-0.5918651620000001,2.0000055,0.348381468
540,1778428928920,0.41535962,0.10177423,1.3373647,-0.55472565,1.9105775,0.3562003
541,1778428928930,0.4522994222222222,0.0803569888888889,1.357718166666667,-0.4662885388888889,1.6017603444444444,0.3642091844444444
542,1778428928940,0.4472618666666667,0.0307538256666666,1.3389297999999998,-0.3463503888888888,1.252762922222222,0.3736433833333333
543,1778428928950,0.42389328,0.0002168154444444,1.3025862,-0.2752884944444445,1.0833461,0.3703176633333334
544,1778428928960,0.4041123388888888,-0.0192185993333333,1.267407888888889,-0.2632072922222221,1.0606260333333333,0.3428974122222222
545,1778428928970,0.3911576366666666,-0.0316583522222222,1.2282999777777777,-0.3132289088888889,1.1453217333333334,0.3104546377777778
546,1778428928980,0.39636459125,-0.0364045655,1.230898875,-0.39033139125,1.23612585,0.29893338625
547,1778428928990,0.41023734,-0.041740242,1.2663544,-0.4974682824999999,1.290491225,0.29091601
548,1778428929000,0.43539125,-0.05174082,1.3385842,-0.5889331,1.2258177,0.28717458
549,1778428929010,0.5075296066666667,-0.0774435433333333,1.4575240333333332,-0.543170468888889,1.1185801444444443,0.26952788
550,1778428929020,0.5781435,-0.10445731,1.6216799,-0.34451786,1.1225846,0.21326205
551,1778428929030,0.5770594111111111,-0.0477331371111111,1.8045159,0.1964213266666666,1.2342847555555556,0.0619076773333333
552,1778428929040,0.5625599222222222,-0.0430682308888888,1.8535871,0.6014130722222223,0.7113401277777778,-0.0639947332222222
553,1778428929050,0.573753,-0.075888574,1.715405,0.7543964,0.046195325,-0.11293039
554,1778428929060,0.5545919777777777,-0.1003852653333333,1.457632411111111,0.6973839666666667,-0.4631155166666666,-0.14523742
555,1778428929070,0.4615140333333333,-0.1043455122222222,1.0781962744444444,0.3982045511111111,-0.8438769866666667,-0.1748974499999999
556,1778428929080,0.4096682133333333,-0.0778128047777777,0.9622241888888888,0.2458320844444445,-0.6887217888888889,-0.1596941444444444
557,1778428929090,0.39926112,-0.044423323,0.94029874,0.13988402,-0.4815767,-0.13308835
558,1778428929100,0.40083302,-0.0062910172222222,1.0574465266666668,0.0368544515555555,-0.3161049711111111,-0.1072970166666666
559,1778428929110,0.4030824566666667,0.0151533226666666,1.1727175444444446,-0.021379653,-0.27755374,-0.09399412
560,1778428929120,0.4063888766666667,0.0333928697777777,1.2686343555555557,-0.0257913285555555,-0.3478011544444444,-0.0756687033333333
561,1778428929130,0.408798255,0.0347398325,1.32981235,0.0107509116,-0.467038529,-0.0641236915
562,1778428929140,0.4123513,0.027908132,1.3772348,0.0456099286666666,-0.6475235333333332,-0.0762795533333333
563,1778428929150,0.4140790375,0.021464667,1.3961256,0.052380153375,-0.76539165,-0.0888019225
564,1778428929160,0.4262545533333333,0.0143910839999999,1.4245039,0.0397729427777777,-0.9192148222222222,-0.1174099344444444
565,1778428929170,0.4275554,0.016342416,1.4449929,0.029320668,-1.044167,-0.15019207
566,1778428929180,0.424953631111111,0.0332031565555555,1.4572937,0.0434380275555555,-1.3047952,-0.1774765766666666
567,1778428929190,0.4241405855555555,0.045371887,1.4412528444444446,0.0688899922222222,-1.4807870333333333,-0.1909830888888889
568,1778428929200,0.42218927,0.060765743,1.4132836,0.11178505,-1.6018705,-0.20455748
569,1778428929210,0.427171269,0.0590095417,1.39634667,0.129499619,-1.6372004099999995,-0.203946631
570,1778428929220,0.4463674999999999,0.052472573,1.346664,0.1887518,-1.7595456,-0.20211409
571,1778428929230,0.4524383266666666,0.0414150174444444,1.3240881777777778,0.19791451,-1.7913095999999995,-0.21433103
572,1778428929240,0.45319718,0.040032823,1.3212662,0.19791451,-1.7913095999999995,-0.21433103
573,1778428929250,0.4699800077777777,0.0340060487777777,1.3369411999999998,0.157530722,-1.9436820666666663,-0.2349640944444444
574,1778428929260,0.497230236,0.035349623,1.33068124,0.1206423357999999,-2.28786732,-0.259900237
575,1778428929270,0.4849266866666666,0.0410897953333333,1.2908476666666666,0.1294317466666666,-2.5279234444444447,-0.2638096588888889
576,1778428929280,0.4695125,0.0414692222222222,1.240675311111111,0.1375763733333333,-2.6441202,-0.2608232944444444
577,1778428929290,0.462466,0.039301075,1.2155892,0.14538164,-2.7045262,-0.2540361
578,1778428929300,0.4554195177777778,0.0354526103333333,1.1738997555555557,0.1492503477777777,-2.7601133333333334,-0.2462987033333333
579,1778428929310,0.45746571,0.034178823,1.11053735,0.1522536725,-2.7868378,-0.2373905124999999
580,1778428929320,0.46441734,0.031007906,1.0891794,0.1655396,-2.7992074,-0.22960222
581,1778428929330,0.46441734,0.031007906,1.0891794,0.1655396,-2.7992074,-0.22960222
582,1778428929340,0.4982836724999999,0.0443623445,1.007177655,0.1843231625,-2.85784885,-0.1943257825
583,1778428929350,0.5249392,0.05783874,0.95618385,0.2131857,-2.9739099,-0.15935478
584,1778428929360,0.5249392,0.05783874,0.95618385,0.2131857,-2.9739099,-0.15935478
585,1778428929370,0.5073229777777778,0.0581097599999999,0.8791637888888889,0.2498365333333333,-3.1269610666666665,-0.1254188188888889
586,1778428929380,0.49323,0.0583265759999999,0.81754774,0.2791572,-3.249402,-0.09827005
587,1778428929390,0.48358005,0.064790368,0.79754657,0.32443625,-3.292084975,-0.059863030075
588,1778428929400,0.48246717,0.076864235,0.7753501,0.41048935,-3.3856208,0.0037414393999999
589,1778428929410,0.48246717,0.076864235,0.7753501,0.41048935,-3.3856208,0.0037414394
590,1778428929420,0.48946835125,0.072351783125,0.690047865,0.47562093375,-3.6471398625,0.0562743029
591,1778428929430,0.4886464,0.0526317997777777,0.5764564000000001,0.51073615,-3.9599529333333336,0.1102324777777777
592,1778428929440,0.4753936,0.026586918,0.48490632,0.46729815,-4.107642,0.14606886
593,1778428929450,0.4753936,0.026586918,0.48490632,0.46729815,-4.107642,0.14606886
594,1778428929460,0.482596755,-0.01514188775,0.32408140875,0.3408527612499999,-4.06228675,0.19310409
595,1778428929470,0.49323,-0.04369157,0.18790731,0.18142164,-3.950044,0.24136102
596,1778428929480,0.49323,-0.04369157,0.18790731,0.18142164,-3.950044,0.24136102
597,1778428929490,0.5179265625,-0.0307144431249999,0.11393195375,0.090558108,-3.84787965,0.2656422
598,1778428929500,0.5461904,0.0017074167,0.03808149,0.021379653,-3.7301388000000006,0.28717458
599,1778428929510,0.5461904,0.0017074167,0.03808149,0.021379653,-3.7301388,0.28717458
600,1778428929520,0.5461904,0.0017074167,0.03808149,0.021379653,-3.7301388000000006,0.28717458
601,1778428929530,0.571984625,0.053135721675,-0.0706519875,0.09284877825,-3.449301825,0.2532725475
602,1778428929540,0.5887470866666668,0.0775485619999999,-0.1464550188888888,0.1574628455555555,-3.168838033333333,0.2272436633333333
603,1778428929550,0.6187860900000001,0.08536321,-0.19613949,0.2341072099999999,-2.8210454,0.209138825
604,1778428929560,0.64622676,0.08076691,-0.19888356,0.28037888,-2.6923094,0.2022668
605,1778428929570,0.64622676,0.08076691,-0.19888356,0.28037888,-2.6923094,0.2022668
606,1778428929580,0.6594058700000001,0.06368512,-0.2467217125,0.3164188725,-2.59182505,0.1764585025
607,1778428929590,0.7016296733333333,0.0121145277777777,-0.3939491288888889,0.4244031055555555,-2.241368444444445,0.0903460055555555
608,1778428929600,0.72516426125,0.008841979175,-0.42655312125,0.4243097775,-2.0475600750000003,0.0539836289375
609,1778428929610,0.7398704,0.0042278889444444,-0.4487524988888888,0.4271179666666667,-1.8740455111111112,0.0072707794444444
610,1778428929620,0.743305565,0.0086285521875,-0.47436839375,0.42843300125,-1.6707913375,-0.04734066375
611,1778428929630,0.7430684088888888,0.0162882134444444,-0.4974578844444444,0.4284754111111111,-1.5525955777777778,-0.0729538288888888
612,1778428929640,0.7411713,0.021220751,-0.51737773,0.42576054,-1.456489,-0.08544226
613,1778428929650,0.7465374850000001,0.028134264,-0.55039035,0.37696912125,-1.22650495,-0.0799446325
614,1778428929660,0.7558063,0.030763991,-0.57911915,0.3347443,-1.0637141,-0.07383616
615,1778428929670,0.7637200222222222,0.0219796015555555,-0.5883609111111111,0.2553341733333333,-0.8649851666666666,-0.0496058873333333
616,1778428929680,0.770144025,0.0145130411675,-0.5844853624999999,0.21868332,-0.7998281,-0.03413109
617,1778428929690,0.7769927375,-0.00088419791375,-0.58094851125,0.12789614625,-0.6900283574999999,-0.0053449133125
618,1778428929700,0.7685441266666667,-0.0090249166666666,-0.5947061133333333,0.0647498115555555,-0.6000810722222222,0.0040129270777777
619,1778428929710,0.75922114,-0.01097625,-0.6159811,0.025655584,-0.48768517,0.0061848285
620,1778428929720,0.7557520911111112,-0.0092417317777777,-0.6196669666666667,0.0017646697777777,-0.37420333,0.0094426809444444
621,1778428929730,0.7615078575,-0.008049250375,-0.63662251,-0.0229067715,-0.2244100075,0.024204823125
622,1778428929740,0.7761123933333334,-0.0131986022222222,-0.6500210222222222,-0.0479175733333333,-0.0355903388888888,0.03842399
623,1778428929750,0.7977904450000001,-0.02006214525,-0.644946175,-0.09116895125,0.266711175,0.0529146449999999
624,1778428929760,0.8058397,-0.022440333,-0.6257377,-0.11545013,0.4481328,0.05932854
625,1778428929770,0.81864535375,-0.023263552,-0.5691986250000001,-0.173938755,0.7825716825,0.07612684
626,1778428929780,0.8271824299999999,-0.025855167,-0.527073435,-0.20677179,0.9846284975,0.0773485325
627,1778428929790,0.8274940466666667,-0.0251776206666666,-0.4811357877777778,-0.2228235022222222,1.1276749666666666,0.0714776135555555
628,1778428929800,0.8110839575000001,-0.016769270875,-0.4114493025,-0.202954,1.230093725,0.0567324389999999
629,1778428929810,0.7937048800000001,-0.008415125125,-0.365509135,-0.165768665,1.235744025,0.0375671052875
630,1778428929820,0.7776597125,-0.011708,-0.35404505,-0.07330166725,1.2161969,-0.015347538275
631,1778428929830,0.77068526,-0.0160985,-0.35752088,-0.009162709,1.2313154,-0.05062397
632,1778428929840,0.7648854222222222,-0.0101360929777777,-0.3770477444444444,0.1211513788888888,1.3530775333333334,-0.1305770833333333
633,1778428929850,0.7606846224999999,0.001097624975,-0.3934071,0.19043164,1.476723225,-0.1810398525
634,1778428929860,0.74138812,0.0201705533333333,-0.3977976,0.25737031,1.7161244333333334,-0.2389006733333333
635,1778428929870,0.727908325,0.04064261525,-0.3644915325,0.3051945625,2.0725284,-0.2686964512499999
636,1778428929880,0.7326342,0.051009074,-0.33459267,0.3231382,2.2935789,-0.27480492
637,1778428929890,0.7461716375,0.0342398025,-0.29733061,0.32588701875,2.5051610625,-0.2799971125
638,1778428929900,0.760814225,0.03454469875,-0.239823455,0.3321481875,2.759884325,-0.3029038825
639,1778428929910,0.7722808333333333,0.0376749634444444,-0.1769513744444444,0.3385451155555555,2.9011002111111113,-0.3350751688888889
640,1778428929920,0.7459276625,0.0298683585,-0.1275684175,0.38597912,3.0033831875,-0.36566844625
641,1778428929930,0.7199708555555555,0.0279758874444444,-0.1032309544444444,0.43017222,3.1210732777777777,-0.3846216688888889
642,1778428929940,0.6799990555555555,0.0371600277777777,-0.0555621844444444,0.43777387,3.22451,-0.39392012
643,1778428929950,0.6596040624999999,0.0413743655,-0.027463492575,0.417666815,3.378443375,-0.3971270675
644,1778428929960,0.651349,0.0438440195,0.0140061534374999,0.3556658075,3.569046975,-0.3977379224999999
645,1778428929970,0.6417142849999999,0.04960655275,0.07095688725,0.2502946625,3.8428400625,-0.4052971575
646,1778428929980,0.6301011111111111,0.0574864162222222,0.1870095611111111,0.16248538,4.015361944444445,-0.406883671111111
647,1778428929990,0.61915195,0.0647903655,0.2673479175,0.08872556375,4.1342905000000005,-0.39392013375
648,1778428930000,0.6037852,0.06881499,0.32776302,0.07269082,4.170178,-0.37864894
649,1778428930010,0.5926700866666667,0.0726363511111111,0.43683782,0.0724872066666666,4.0985051666666665,-0.3381294
650,1778428930020,0.59058322,0.0737543025,0.522019805,0.08964183,4.0063179875,-0.3311555625
651,1778428930030,0.5878459244444445,0.0739372399999999,0.5833538444444444,0.101604258,3.844392766666667,-0.3426089666666667
652,1778428930040,0.59637625,0.06668072,0.654100625,0.1101052179999999,3.6962941,-0.36322505
653,1778428930050,0.5959494288888889,0.0614161872222222,0.7040146411111111,0.1392731688888888,3.530544377777778,-0.39269843
654,1778428930060,0.5853796733333333,0.0776061533333333,0.75369237,0.18936265,3.3248924,-0.4442132133333333
655,1778428930070,0.5779605425,0.0981764615,0.7773395525,0.216087215,3.194272975,-0.483714675
656,1778428930080,0.5698503349999999,0.129092898,0.7936439,0.23601610625,3.04423375,-0.5041017
657,1778428930090,0.5674112,0.1408009,0.7936439,0.2455606,2.9545155,-0.5136462
658,1778428930100,0.558264275,0.1691790775,0.78175295,0.2125748499999999,2.918322825,-0.534262275
659,1778428930110,0.5539144155555555,0.1841164322222222,0.7745336888888888,0.183118438,2.889154866666667,-0.5355688055555555
660,1778428930120,0.538987255,0.2272083775,0.7477570499999999,0.0293206692499999,2.7441549125,-0.48745612125
661,1778428930130,0.5198982,0.2193759333333333,0.7532587111111112,-0.0802246044444444,2.6877788333333337,-0.4463172511111111
662,1778428930140,0.5079869349999999,0.20964637,0.784359775,-0.1907370562499999,2.709642125,-0.4173614
663,1778428930150,0.4948345187499999,0.206048605,0.83009036125,-0.26190076375,2.7650001125,-0.399265045
664,1778428930160,0.4825010533333334,0.2054455899999999,0.8841200122222223,-0.3207626755555555,2.7993603,-0.3931056555555555
665,1778428930170,0.48688814,0.2086707,0.9317616,-0.37444937,2.7993603,-0.39025503
666,1778428930180,0.4825925222222221,0.2218422122222222,0.9816730888888888,-0.45001628,2.7855144,-0.39615989
667,1778428930190,0.46996644,0.2312025075,1.035773075,-0.575647205,2.725295,-0.3914767525
668,1778428930200,0.4518861125,0.221354375,1.0553245625,-0.700870875,2.544942425,-0.36353049
669,1778428930210,0.42593185,0.2057360925,1.048902675,-0.82349845,2.4498029,-0.3258106524999999
670,1778428930220,0.4010904875,0.18208379375,1.060401075,-0.9261208,2.4145265,-0.28274593
671,1778428930230,0.3818616999999999,0.1584746966666667,1.1153699,-1.1178590222222222,2.307967477777778,-0.1880645988888888
672,1778428930240,0.3758451,0.14497797,1.1667753,-1.2162733,2.2312722,-0.13919681
673,1778428930250,0.38840682,0.1304077625,1.241349125,-1.3179029999999998,2.0629838874999997,-0.08887827775
674,1778428930260,0.41414003,0.11800824,1.3166046,-1.3769261,1.7939057000000005,-0.040850412
675,1778428930270,0.41999403,0.10738432,1.3163878,-1.3769261,1.7939057,-0.040850412
676,1778428930280,0.39391398,0.0907255674999999,1.2846366625,-1.3350066875,1.3987638875,-0.0390178695
677,1778428930290,0.3264405375,0.0639061648749999,1.2537926124999998,-1.283924525,1.229635525,-0.05184565875
678,1778428930300,0.2774857,0.052472573,1.2605003,-1.2694169,1.2869024,-0.0640626
679,1778428930310,0.2538410325,0.030020807,1.356958,-1.2592615625,1.4509913250000002,-0.05230379875
680,1778428930320,0.27333912,0.010488417,1.4220647,-1.242539675,1.54582535,-0.0246629593749999
681,1778428930330,0.27333912,0.010488417,1.4220647,-1.233377,1.588661,-0.009086353
682,1778428930340,0.309454035,-0.0123330364999999,1.44964255,-1.1876397875,1.5019207250000002,0.018707198
683,1778428930350,0.34556895,-0.03515449,1.4772204,-1.1228136,1.365091,0.057496
684,1778428930360,0.34556895,-0.03515449,1.4772204,-1.1228136,1.365091,0.057496
685,1778428930370,0.34556895,-0.03515449,1.4772204,-1.1228136,1.365091,0.057496
686,1778428930380,0.34556895,-0.03515449,1.4772204,-1.1228136,1.365091,0.057496
687,1778428930390,0.34556895,-0.03515449,1.4772204,-1.1228136,1.365091,0.057496
688,1778428930400,0.34556895,-0.03515449,1.4772204,-1.1228136,1.365091,0.057496
689,1778428930410,0.34556895,-0.03515449,1.4772204,-1.1228136,1.365091,0.057496
690,1778428930420,0.3616674375,-0.0444843025,1.4781350249999998,-1.0719606,1.20016225,0.0987281875
691,1778428930430,0.3837723871428571,-0.0488486685714285,1.5646165714285714,-0.6541737971428571,0.7448737485714286,0.1878682585714285
692,1778428930440,0.4118402271428571,-0.0761150662857143,1.4522494285714287,0.3287230742857143,-0.0579105042857142,0.1812362048571428
693,1778428930450,0.411213,-0.118360564,1.1758308,0.7232432,-0.24273543,0.069712944
694,1778428930460,0.4144652266666667,-0.0848220226666666,1.2307561111111112,0.7283335555555556,-0.32214558,0.0072707789999999
695,1778428930470,0.4157254525,-0.04380972075,1.285688625,0.7324821975,-0.4076642,-0.046958883875
696,1778428930480,0.4097495,-0.010488417,1.2998015,0.7330167,-0.5615977,-0.0768904
697,1778428930490,0.4097495,-0.010488417,1.2998015,0.7330167,-0.5615977,-0.0768904
698,1778428930500,0.3897978875,0.0151952462499999,1.3091617625,0.72492298625,-0.66643436,-0.1055238645
699,1778428930510,0.35922828,0.0556434899999999,1.3349254,0.70980453,-0.79738474,-0.14347275
700,1778428930520,0.35922828,0.05564349,1.3349254,0.70980453,-0.79738474,-0.14347275
701,1778428930530,0.3630394899999999,0.097044538125,1.4034889,0.57931225875,-1.00927232625,-0.17401511375
702,1778428930540,0.3833963666666666,0.1165718483333333,1.4189750666666667,0.4844018799999999,-1.2261995,-0.17951274
703,1778428930550,0.3910289225,0.1218363825,1.412788225,0.45027078625,-1.3292131500000002,-0.1766875725
704,1778428930560,0.3958191666666667,0.1281985422222222,1.3960977111111113,0.3369162011111111,-1.6576019000000002,-0.1681781266666666
705,1778428930570,0.3916997,0.13080032,1.3856906,0.2932067,-1.7540479,-0.16912833
706,1778428930580,0.3916997,0.13080032,1.3856906,0.2932067,-1.7540479,-0.16912833
707,1778428930590,0.39099845,0.1282696825,1.377184,0.16645588425,-1.987926025,-0.15523155875
708,1778428930600,0.4008872266666666,0.1223716377777777,1.3611905000000002,0.0078052703333333,-2.2802588555555556,-0.1295590066666666
709,1778428930610,0.40170026,0.12128756,1.352518,-0.052532863,-2.3923833,-0.11293039
710,1778428930620,0.40170026,0.12128756,1.352518,-0.052532863,-2.3923833,-0.1129303899999999
711,1778428930630,0.4295944,0.0968654025,1.312001025,-0.1682884178749999,-2.720866475,-0.034283802425
712,1778428930640,0.4491725575,0.08567191625,1.28333325,-0.20051061625,-2.9492470125000003,0.0009162709
713,1778428930650,0.46136838,0.0755227025,1.2231659,-0.17676392375,-3.2085516125,0.012904149125
714,1778428930660,0.4624659999999999,0.073937245,1.192905,-0.14965758,-3.3440833,0.015958386
715,1778428930670,0.4552569077777778,0.0667010481111111,1.0975064111111112,-0.106219554,-3.485867766666667,0.0178587988888888
716,1778428930680,0.44978234,0.066863656,1.0596654,-0.083686076,-3.5383327,0.020234315
717,1778428930690,0.443074645,0.056314262625,0.942212,-0.0019088974999999,-3.6093437125,0.054823540625
718,1778428930700,0.44368442,0.043447658,0.8495312333333334,0.0556549723333333,-3.5676534,0.0748033333333333
719,1778428930710,0.44856274,0.034666654,0.8295301,0.087962,-3.4778588,0.08620582
720,1778428930720,0.4782189822222222,0.0224979248888888,0.8119952333333332,0.15875242,-3.4615017333333338,0.09143196
721,1778428930730,0.4969158444444445,0.0252894161111111,0.7851847155555556,0.2450176188888889,-3.5079260444444444,0.0813190427777777
722,1778428930740,0.4916978899999999,0.0439964687499999,0.7474445225,0.3208475175,-3.5714713375,0.075134214375
723,1778428930750,0.48063780375,0.0694895715,0.69393912375,0.45263781375,-3.6739408625,0.06360447075
724,1778428930760,0.4763692299999999,0.08787098,0.6332992,0.5595361,-3.725252,0.046500746
725,1778428930770,0.47990606125,0.0720507,0.56899281875,0.6838435174999999,-3.8047385,0.014965757875
726,1778428930780,0.4773178444444445,0.0500063077777777,0.5047449422222221,0.7815451177777777,-3.816268144444445,-0.0278190017777777
727,1778428930790,0.4831345711111111,0.0364553788888888,0.4136386466666666,0.9013390444444443,-3.6972888,-0.0812342017777777
728,1778428930800,0.4882906925,0.036557011,0.3744959625,0.96972002,-3.62583665,-0.098575475
729,1778428930810,0.49615700625,0.0419231778749999,0.34074778375,1.0652413,-3.53298775,-0.11239589625
730,1778428930820,0.5103854999999999,0.05491174,0.2712861566666666,1.1342076,-3.536500333333333,-0.1127946455555555
731,1778428930830,0.5081089,0.06466841,0.19985923,1.1679399,-3.545052,-0.11231954
732,1778428930840,0.513749475,0.07402871,0.1154221287499999,1.1453385875,-3.495573425,-0.08719844625
733,1778428930850,0.5293296177777778,0.0777586038888888,0.0211394443333333,1.0869008444444443,-3.379580288888889,-0.0540854347777777
734,1778428930860,0.5457063525,0.0819559988749999,-0.0208586865,1.016449825,-3.2675748,-0.01488940175
735,1778428930870,0.56649649,0.0753397595,-0.07918906625,0.922532065,-3.1912951874999997,0.029778805
736,1778428930880,0.5741866244444443,0.0775417844444444,-0.1316201411111111,0.85457534,-3.1229565,0.05077668
737,1778428930890,0.5915093625,0.080583971875,-0.1858149475,0.790130945,-3.06339895,0.0794865
738,1778428930900,0.6089074866666667,0.07596988,-0.2501467066666666,0.5295367077777777,-2.934069111111111,0.1840771255555555
739,1778428930910,0.61835928,0.06442449,-0.2992019325,0.39720343,-2.843188575,0.2257080699999999
740,1778428930920,0.63207954,0.0556434899999999,-0.31751853,0.27854636,-2.7063587,0.25296712
741,1778428930930,0.63747621375,0.05262502125,-0.32456161875,0.23845950875,-2.6550475625,0.2586938125
742,1778428930940,0.67357591,0.04552095,-0.3660579499999999,0.012827793,-2.3203033,0.27923355
743,1778428930950,0.685636231111111,0.0451008702222222,-0.3701808188888889,-0.0505645774444444,-2.2112332,0.27923355
744,1778428930960,0.7073752777777779,0.0433121474444444,-0.3751133511111111,-0.1138212055555555,-2.116687688888889,0.2782833422222222
745,1778428930970,0.719340725,0.0272462545,-0.396760935,-0.1715717175,-2.084363625,0.2617480399999999
746,1778428930980,0.7231824250000001,0.013689823,-0.4402810125,-0.20257221625,-2.046338425,0.2397575425
747,1778428930990,0.7277829888888889,0.0046886201111111,-0.4886260844444444,-0.22051586,-1.9867808,0.22792238
748,1778428931000,0.7334879424999999,0.001951333375,-0.52185975125,-0.25800660375,-1.767782425,0.2084516275
749,1778428931010,0.745500835,0.00564057325,-0.5399134125,-0.2885489825,-1.582934275,0.1883700275
750,1778428931020,0.7643433375,0.0082626774375,-0.555184875,-0.3127537999999999,-1.333708575,0.1569113875
751,1778428931030,0.7656984666666666,0.0143097783888888,-0.5666794111111112,-0.3158759222222222,-1.1685083555555555,0.1339197733333333
752,1778428931040,0.7562026725,0.01591556325,-0.5941009125,-0.30763795,-0.9281060375,0.1114796237499999
753,1778428931050,0.75239146,0.011951917,-0.6113466,-0.3011477,-0.7998281,0.10575293
754,1778428931060,0.7528487875000001,0.0098481354999999,-0.6177494137499999,-0.29794074875,-0.738667025,0.103920389
755,1778428931070,0.768855835,-0.0061893855,-0.651470935,-0.27182704,-0.3056527,0.098422766
756,1778428931080,0.7802093975,-0.010549396625,-0.656379775,-0.25670856125,-0.05932854125,0.10162971275
757,1778428931090,0.7991455511111111,-0.0153125474444444,-0.653273211111111,-0.2345653566666666,0.2196759477777777,0.1067031364444444
758,1778428931100,0.81413287,-0.020245085,-0.6386653,-0.2131857,0.4078169,0.10575293
759,1778428931110,0.82507860625,-0.020641449375,-0.6050009875,-0.1716480749999999,0.63696095,0.1028514075
760,1778428931120,0.82885932,-0.0214646666666666,-0.5619535,-0.1176899033333333,0.86635958,0.0894636733333333
761,1778428931130,0.8260733124999999,-0.01399471875,-0.5252135625,-0.07253811125,1.027235105,0.0704765045
762,1778428931140,0.8115852666666667,-0.0018700277777777,-0.5000596666666666,-0.0152711810888888,1.2321298222222223,0.0405280188888888
763,1778428931150,0.8016931,0.005854,-0.49396175,0.0030542363,1.3186666,0.03000787
764,1778428931160,0.766801575,0.016311927875,-0.46926520625,0.0094681321625,1.4784030625,0.016645588125
765,1778428931170,0.7545867,0.018293751,-0.45539245,0.010384403,1.5819417,0.0086282175
766,1778428931180,0.7318109775,0.024342121875,-0.43144666625,0.018249061375,1.6573049375,-0.000229067725
767,1778428931190,0.7118911333333333,0.0361301573333333,-0.4103186533333333,0.0390942226666666,1.7149028,-0.0092899688
768,1778428931200,0.70177875,0.0407340855,-0.39886472625,0.074828785,1.7480922,-0.0185544855
769,1778428931210,0.6896473000000001,0.0510090733333333,-0.3927837777777778,0.1096810133333333,1.7909193333333333,-0.0289049526666666
770,1778428931220,0.6609125666666666,0.0726973311111111,-0.38904372,0.1850188377777777,1.9903270222222225,-0.0453299582222222
771,1778428931230,0.6430558,0.0939689,-0.3729181,0.21685077,2.1561382,-0.043904647
772,1778428931240,0.6376896533333333,0.1029938166666666,-0.3704687666666666,0.2258098666666666,2.2498014,-0.034741938
773,1778428931250,0.60618247625,0.1300990525,-0.30956838,0.2301367074999999,2.79722225,0.0594812515
774,1778428931260,0.58911973,0.13153206,-0.24598998,0.20402299,3.1359372,0.15645325
775,1778428931270,0.58911973,0.13153206,-0.24598998,0.20402299,3.1359372,0.15645325
776,1778428931280,0.5828083937499999,0.1122245325,-0.18778535625,0.20493926125,3.2151946125,0.2331909362499999
777,1778428931290,0.5696064,0.07320549,-0.07442507,0.20646638,3.3472903,0.36108708
778,1778428931300,0.55966681,0.0719554175,-0.07216884375,0.21929416,3.4793095125,0.3787253037499999
779,1778428931310,0.5757043466666666,0.06962805,-0.02732883,0.17144446,4.086288266666667,0.3590509333333333
780,1778428931320,0.59180284,0.07369333,0.04539899,0.13072132,4.458498,0.32077116
781,1778428931330,0.593571235,0.066406316625,0.1559237325,0.08918369875,4.7061965,0.257243055
782,1778428931340,0.588936825,0.05137494725,0.4261071724999999,0.054976255,4.917855,0.17050274
783,1778428931350,0.5964372,0.03491057,0.5410376,0.054976255,4.917855,0.17050274
784,1778428931360,0.5998012222222222,0.0314652474111111,0.5499337888888889,0.0702474366666666,4.8666116666666674,0.1528560415555555
785,1778428931370,0.62220094,-0.0152752815,0.65918860625,0.29259583,4.2508097,-0.092772424
786,1778428931380,0.6042731,-0.012927583,0.6952845,0.41354358,4.109704,-0.19539477
787,1778428931390,0.5851980375,-0.006189385625,0.69986172625,0.5041017,4.118714,-0.2903815125
788,1778428931400,0.5495239444444444,0.0305776644444444,0.7384678988888889,0.6139015066666667,4.3000845000000005,-0.4519506
789,1778428931410,0.54667825,0.05564349,0.7819359,0.6310052,4.3949695,-0.5105919
790,1778428931420,0.55228833125,0.078426835,0.8606028287499999,0.64200047,4.3250276,-0.55075513
791,1778428931430,0.5519631166666666,0.0972211266666666,0.9508989933333332,0.6705745755555556,4.025254422222222,-0.6054090133333333
792,1778428931440,0.54692215,0.0866514,0.9515495,0.68292725,3.6869214,-0.6016082
793,1778428931450,0.54692215,0.0866514,0.9515495,0.68292725,3.686921400000001,-0.6016082
794,1778428931460,0.49023059375,0.073087345375,0.8930208275,0.6205444775,3.217637975,-0.560452375
795,1778428931470,0.46880785,0.078327745,0.88197213,0.5283829,3.1475432,-0.5551838
796,1778428931480,0.46880785,0.078327745,0.88197213,0.5283829,3.1475432,-0.5551838
797,1778428931490,0.4601488075,0.10273465375,0.9254121725,0.4892886675,3.1837359,-0.5559473500000001
798,1778428931500,0.456612,0.20818289,1.1262852,0.0775776,3.0357583,-0.47333026
799,1778428931510,0.456612,0.20818289,1.1262852,0.0775776,3.0357583,-0.47333026
800,1778428931520,0.4486101811111111,0.2167741755555555,1.1045901777777778,-0.0185969067777777,2.633345633333333,-0.4052547288888888
801,1778428931530,0.3859168266666666,0.2189965233333333,1.0154047666666668,-0.21664716,2.2717918000000004,-0.3128810533333333
802,1778428931540,0.3406906,0.22062263,1.0049977,-0.3103104,2.3699346,-0.2876327
803,1778428931550,0.3180863875,0.2165065325,1.0218279625000002,-0.36230877375,2.432470125,-0.2706816875
804,1778428931560,0.2412200322222222,0.2019731644444444,1.1328506444444446,-0.6314887888888889,2.733185211111111,-0.1860963144444444
805,1778428931570,0.22257397,0.1952248,1.2575734,-0.7440883,2.828681,-0.11720632
806,1778428931580,0.22257397,0.1952248,1.2575734,-0.7440883,2.828681,-0.11720632
807,1778428931590,0.25351327,0.2047604125,1.437858325,-0.770202025,2.615189825,0.00786465875
808,1778428931600,0.2865919488888889,0.2400004433333333,1.530987077777778,-0.7005145333333334,2.372038588888889,0.0638080855555555
809,1778428931610,0.2930964,0.24916087,1.5404253,-0.6781168,2.3228993,0.0678804
810,1778428931620,0.2930964,0.24916087,1.5404253,-0.6781168,2.3228993,0.0678804
811,1778428931630,0.2930964,0.24916087,1.5404253,-0.6781168,2.3228993,0.0678804
812,1778428931640,0.2930964,0.24916087,1.5404253,-0.6781168,2.3228993,0.0678804
813,1778428931650,0.2930964,0.24916087,1.5404253,-0.6781168,2.3228993,0.0678804
814,1778428931660,0.2930964,0.24916087,1.5404253,-0.6781168,2.3228993,0.0678804
815,1778428931670,0.287360525,0.0315414715,1.680139925,-1.531470425,-0.528697875,0.22754060625
816,1778428931680,0.2675020622222221,-0.0654340353333333,1.2601243222222225,-0.7623882900000001,-1.621061366666667,0.3091650666666666
817,1778428931690,0.2224596174999999,-0.06503428525,1.106695625,-0.1698155425,-1.151828875,0.3065689649999999
818,1778428931700,0.2795793044444444,-0.0865192788888889,1.0146120133333332,0.07941014,-0.9415447,0.20715357
819,1778428931710,0.31678677,-0.12201932,0.96203786,0.2932067,-0.87496233,0.10392039
820,1778428931720,0.33431828125,-0.1384722575,0.923018835,0.4026247075,-0.7518766,0.0501658305
821,1778428931730,0.3498375,-0.1453972124999999,0.8636250750000001,0.616497595,-0.2754157535,-0.1092653045
822,1778428931740,0.3387392925,-0.135434735,0.9031091,0.680865655,0.0045049989999999,-0.1959292625
823,1778428931750,0.33069003,-0.13031249,0.9517934,0.71774554,0.20012884,-0.27663746
824,1778428931760,0.32140595,-0.119458195,1.0057294,0.71255332,0.30244575,-0.324588965
825,1778428931770,0.306206885,-0.0853022345,1.175884175,0.639557105,0.4456894225,-0.42766943
826,1778428931780,0.3182807511111111,-0.0526622885555555,1.307342511111111,0.5389030244444445,0.3060768866666666,-0.4780134344444444
827,1778428931790,0.3403857,-0.025573138,1.390637575,0.4540122199999999,0.0240521074999999,-0.5122717875
828,1778428931800,0.35444141625,-0.001215772125,1.4449356875,0.38025242125,-0.264420505,-0.53632385
829,1778428931810,0.35166687,0.034666654,1.4906358,0.30969957,-0.5615977,-0.5539621
830,1778428931820,0.32818606,0.080191410625,1.5176495375,0.25548685875,-0.9221503,-0.5540384625
831,1778428931830,0.2994110977777777,0.1058666044444444,1.5144007222222222,0.2295428222222222,-1.1957250333333331,-0.5355687933333333
832,1778428931840,0.29488509,0.1134009266666666,1.4912862000000002,0.2104029466666666,-1.4160542555555555,-0.5124923888888889
833,1778428931850,0.31496881875,0.107567254375,1.4550735375,0.1704263899999999,-1.6555488,-0.4818821275
834,1778428931860,0.3401214666666667,0.0984407016666666,1.4358053,0.1197260666666666,-1.8051555,-0.4680362633333332
835,1778428931870,0.35892719625,0.093511554375,1.4218816875,0.067498621,-1.929208375,-0.4525614599999999
836,1778428931880,0.3829999733333333,0.0866412333333333,1.395142366666667,0.002171902,-2.0568925111111107,-0.427720341111111
837,1778428931890,0.402249065,0.080218095,1.3730679,-0.06261184375,-2.1995083500000003,-0.39712706
838,1778428931900,0.41408582,0.0717961968888888,1.3374154777777776,-0.1046584966666666,-2.332723966666667,-0.3695541022222222
839,1778428931910,0.40859093375,0.0674734524999999,1.2967716125,-0.1250709775,-2.380624425,-0.347343025
840,1778428931920,0.414269615,0.0653391812499999,1.27598915,-0.14034216,-2.40902885,-0.3148154175
841,1778428931930,0.43222034,0.064424485,1.2507437,-0.1435491,-2.4351425,-0.28457847
842,1778428931940,0.44508694375,0.061101125375,1.22526585,-0.14889402125,-2.4433126625,-0.25877017625
843,1778428931950,0.44972812,0.0599797894444444,1.2028512666666669,-0.1550194655555555,-2.458558477777778,-0.2171816533333333
844,1778428931960,0.465027115,0.05350921975,1.194734325,-0.1188097875,-2.529671225,-0.174931385
845,1778428931970,0.4845214,0.04006331125,1.1734107375,-0.0484096475,-2.6156480249999996,-0.1495812249999999
846,1778428931980,0.4871321,0.03808149,1.1567748,0.02260135,-2.6880333,-0.1312558
847,1778428931990,0.4832531055555555,0.0372955344444444,1.0965206,0.1480286566666666,-2.7968320777777778,-0.1119801788888889
848,1778428932000,0.46136838,0.03948400925,0.9992541875,0.326803285,-2.8612085499999997,-0.0991863249999999
849,1778428932010,0.44368443,0.047106408,0.9571595,0.38300124,-2.8505187,-0.09093989
850,1778428932020,0.4374442255555555,0.0555621868888888,0.8897978433333333,0.4998766800000001,-2.8493649555555556,-0.0595151892222222
851,1778428932030,0.42804328,0.06540016,0.79169255,0.67071027,-2.8517404,-0.012751437
852,1778428932040,0.4227042111111111,0.0681645488888888,0.7308116055555556,0.8326526655555555,-2.797239288888889,0.0171122078888888
853,1778428932050,0.431831615,0.0644854725,0.6860080125,0.947271375,-2.783172875,0.02802261875
854,1778428932060,0.44978234,0.06613191,0.62159115,0.98774,-2.799411233333333,0.0145330751666666
855,1778428932070,0.45249589,0.06509526675,0.5819241675,0.97483584375,-2.8224197875000003,0.0152711818125
856,1778428932080,0.4681302844444445,0.0630422986666666,0.5070451877777777,0.8804345166666666,-2.9233452444444445,0.0561385606666666
857,1778428932090,0.479730765,0.0526555099999999,0.4506284175,0.77867755,-2.98841745,0.08635853125
858,1778428932100,0.4892460311111111,0.0429056166666666,0.4099934477777778,0.6865244222222222,-2.970584233333333,0.1031738026666666
859,1778428932110,0.503809885,0.03689239625,0.372205405,0.56091049875,-2.8485335625,0.11445750475
860,1778428932120,0.5205486644444445,0.0406561657777777,0.3476557899999999,0.4389276966666666,-2.694752822222222,0.1111826824444444
861,1778428932130,0.5408661687499999,0.0560703435,0.34822154625,0.2959554875,-2.5589919,0.115984625
862,1778428932140,0.5594160977777778,0.0700616733333333,0.3429942688888889,0.19974705,-2.511702133333334,0.1277434333333333
863,1778428932150,0.57332612375,0.081502465,0.3285824224999999,0.11545013,-2.4876754,0.1338519
864,1778428932160,0.5896990666666667,0.0933997583333333,0.3045604533333333,-0.0163571344444444,-2.5366790000000004,0.1750501633333333
865,1778428932170,0.6079318,0.089822315,0.28943762,-0.0787993,-2.578081,0.19676918
866,1778428932180,0.6079318,0.089822315,0.28943762,-0.0787993,-2.578081,0.19676918
867,1778428932190,0.61341994375,0.0742840587499999,0.22422421375,-0.1305686,-2.6460376625,0.215476375
868,1778428932200,0.6201277,0.05783874,0.15790555,-0.15820944,-2.644663,0.21998137
869,1778428932210,0.6284513125,0.04567339625,0.126931954375,-0.15179555,-2.5901449875,0.2098260412499999
870,1778428932220,0.6383401000000001,0.042878518,0.093552212,-0.1278706966666666,-2.511294833333334,0.1918824
871,1778428932230,0.6705688750000001,0.04506360475,0.035642326,-0.080631835,-2.3337420499999997,0.148206815
872,1778428932240,0.6952845,0.052228656,0.035642326,-0.07941014,-2.298313,0.13751699
873,1778428932250,0.7043170249999999,0.0554605529999999,0.0386912845,-0.074981498,-2.314042275,0.1327829225
874,1778428932260,0.737241488888889,0.0705495075555555,0.025824678,-0.0158820282222222,-2.502200111111111,0.0873596457777777
875,1778428932270,0.7314146,0.07540074,-0.012195834,0.028098974,-2.6587126,0.050165832
876,1778428932280,0.7314146,0.07540074,-0.012195834,0.028098974,-2.6587126,0.050165832
877,1778428932290,0.70995757375,0.04646231375,-0.14880441475,0.0867403085,-2.6582545,0.01488940215
878,1778428932300,0.70382154,0.0219525,-0.2728513,0.12644538,-2.573194,0.0080173705
879,1778428932310,0.70382154,0.0219525,-0.2728513,0.12644538,-2.573194,0.0080173705
880,1778428932320,0.73347267,0.0019513329999999,-0.35399931,0.10201149,-2.431172,0.01046075975
881,1778428932330,0.7817414875,-0.02721576525,-0.46916228875,0.0775776,-2.28915,0.012904149
882,1778428932340,0.7929121,-0.032715324,-0.48957127,0.0775776,-2.28915,0.012904149
883,1778428932350,0.8438060288888889,-0.0353984087777777,-0.5659442722222222,-0.1267168666666666,-1.769726311111111,-0.0256471005
884,1778428932360,0.86441016,-0.025855167,-0.5944859,-0.2663294,-1.4363309,-0.05612159
885,1778428932370,0.86441016,-0.025855167,-0.5944859,-0.2663294,-1.4363309,-0.05612159
886,1778428932380,0.86163565,0.01186044825,-0.59637628875,-0.3720059799999999,-1.0527189,-0.03672719025
887,1778428932390,0.8614832,0.014878917,-0.59741294,-0.40377003,-0.7998281,0.004963134
888,1778428932400,0.8614832,0.014878917,-0.59741294,-0.40377003,-0.7998281,0.004963134
889,1778428932410,0.86197102875,0.0208586861249999,-0.598331435,-0.40422816625,-0.67689509375,0.02176143475
890,1778428932420,0.86538583,0.06271707,-0.6047609,-0.40743512,0.18363595,0.13934954
891,1778428932430,0.86538583,0.06271707,-0.6047609,-0.40743512,0.18363595,0.13934954
892,1778428932440,0.863983305,0.0392667725,-0.52714965125,-0.33940200875,0.645741895,0.15126105375
893,1778428932450,0.8511574,0.0204890013333333,-0.4487253533333333,-0.26510772,0.991176,0.14423631
894,1778428932460,0.8456286,0.020976834,-0.4290494,-0.26510772,0.991176,0.14423631
895,1778428932470,0.8438297187499999,0.021525646375,-0.4254783125,-0.2557159425,1.0220333375,0.1418692775
896,1778428932480,0.8150513375,0.026952792875,-0.36054315625,-0.12186403,1.5870575625,0.1098761499999999
897,1778428932490,0.801510175,0.0239648125,-0.323913725,-0.095597595,1.7161754,0.11323580875
898,1778428932500,0.7929121,0.0190255,-0.3006578,-0.08063184,1.7792453999999998,0.11858072
899,1778428932510,0.7854688375,0.015580177,-0.283549325,-0.068338537,1.832923575,0.10827267475
900,1778428932520,0.7668638222222222,0.020841324,-0.2509496088888889,-0.0500894739999999,1.903858222222222,0.0867487983333333
901,1778428932530,0.76422139,0.02921664325,-0.24970968,-0.025655584,2.004648075,0.06161921525
902,1778428932540,0.76605076,0.035642326,-0.24477036,-0.01099525,2.1164331,0.046500746
903,1778428932550,0.7649938055555556,0.0532043251111111,-0.2120144011111111,0.0009502069333333,2.384662833333333,0.027768098
904,1778428932560,0.7587942824999999,0.06204630525,-0.18326907625,0.003206948125,2.645274125,0.0109188954
905,1778428932570,0.7373228577777778,0.07271766,-0.0914145522222222,0.0101807872444444,2.883793,-0.0009417229111111
906,1778428932580,0.729524275,0.0735103885,-0.023072992425,0.0513111675,2.9876538875,-0.0051158457499999
907,1778428932590,0.7209262,0.075888574,0.0065857503,0.08185353,3.0174327,-0.0096972
908,1778428932600,0.7209262,0.075888574,0.0065857503,0.08185353,3.0174327,-0.0096972
909,1778428932610,0.7209262,0.075888574,0.0065857503,0.08185353,3.0174327,-0.0096972
910,1778428932620,0.6739417555555556,0.06735149,0.1006054639999999,0.2668723733333333,3.501223766666667,-0.0486556813333333
911,1778428932630,0.6542454925,0.0606132892499999,0.13504218,0.316724295,3.698851975,-0.0614665055
912,1778428932640,0.63183564,0.051009074,0.19717614,0.35062632,3.8739169,-0.066506
913,1778428932650,0.6092191677777777,0.0415234244444444,0.3107532222222222,0.335966,3.983869499999999,-0.0646734526666666
914,1778428932660,0.59637628875,0.0366179885,0.3771332875,0.29526830625,3.9882217375,-0.0554343885
915,1778428932670,0.58829651875,0.0272157645,0.4414891625,0.2458660225,3.9377505,-0.041232190875
916,1778428932680,0.5853254855555555,0.0216001762222222,0.4711419944444445,0.1840686399999999,3.830317766666666,-0.0282262336666666
917,1778428932690,0.5616926277777777,0.0044718054222222,0.5563908611111111,0.0929845284444444,3.587692633333333,-0.0099008158888888
918,1778428932700,0.5384384,-0.00304895855,0.5832123899999999,0.0578014235,3.489923175,-0.006184828375
919,1778428932710,0.5093285,-0.0012195833,0.61159056,0.01343864,3.5348203,-0.015805673
920,1778428932720,0.4882182625,0.0252872982125,0.6995910925,-0.059252183,3.5739145624999997,-0.03153498925
921,1778428932730,0.47612532,0.0547220261111111,0.7768508777777777,-0.1508792666666666,3.494300833333333,-0.0548998946666666
922,1778428932740,0.4669175,0.07402870875,0.8199068562499999,-0.198372645,3.38134495,-0.0686439574999999
923,1778428932750,0.454538745,0.084738175,0.8467262375,-0.226777045,3.237032325,-0.082998869
924,1778428932760,0.427151435,0.09079798,0.8684424175,-0.22372281,3.1307450374999997,-0.09124530775
925,1778428932770,0.3988545599999999,0.09266801,0.9120145466666668,-0.2113531533333333,3.0918204444444446,-0.09908452
926,1778428932780,0.3728494974999999,0.0994570275,0.9797294,-0.203564855,3.00720115,-0.1074327625
927,1778428932790,0.3552443066666667,0.11315701,1.0698185333333334,-0.18630842,2.8710329666666667,-0.09256881
928,1778428932800,0.34703244,0.1261658975,1.137756975,-0.16637953125,2.7577462375,-0.0810136175
929,1778428932810,0.3521547,0.1378739,1.1765625,-0.14660335,2.620382,-0.07994463
930,1778428932820,0.3578257525,0.1383007525,1.16984725,-0.119115215,2.455453275,-0.0959793745
931,1778428932830,0.34995946,0.12714157,1.15336,-0.10995251,2.4188025,-0.11293039
932,1778428932840,0.348770345,0.101282584375,1.15964465,-0.13621893875,2.43796765,-0.11766445425
933,1778428932850,0.3390644866666666,0.07109155,1.2442291666666667,-0.2013759866666666,2.4273542333333333,-0.1153737733333333
934,1778428932860,0.3421541,0.06540016,1.3137047,-0.24250636,2.3870385,-0.110487
935,1778428932870,0.3776744975,0.06393665875,1.38410895,-0.28847261,2.0855853,-0.1078909
936,1778428932880,0.3773865333333333,0.0693028177777777,1.4057222444444446,-0.31906589,1.7851502333333331,-0.1060074466666666
937,1778428932890,0.36925935125,0.06805275125,1.41098555,-0.3335226125,1.5647615875,-0.10224055875
938,1778428932900,0.3663831633333333,0.0633675166666666,1.383820533333333,-0.3377985444444444,1.4661521777777775,-0.11469506
939,1778428932910,0.3545938675,0.06314393075,1.357693525,-0.34955735,1.3754753,-0.1256054715
940,1778428932920,0.3447017,0.0528249005555555,1.3266865,-0.3546986333333333,1.2674232,-0.1051251166666666
941,1778428932930,0.3389527225,0.044209899125,1.3096801125000002,-0.35368055,1.2056597,-0.09155073
942,1778428932940,0.3105592725,0.03338609375,1.301203925,-0.31351733,1.1212864625,-0.0663532812499999
943,1778428932950,0.3026091233333333,0.0317396573333333,1.3220791666666667,-0.2730487166666667,1.0959109,-0.0583613653333333
944,1778428932960,0.31878002875,0.03539840925,1.345089925,-0.213567475,1.06895405,-0.054899897375
945,1778428932970,0.33340360625,0.04655759375,1.3704153,-0.156071475625,1.0431743425,-0.0577250651249999
946,1778428932980,0.3406092955555555,0.0598984777777777,1.394475011111111,-0.0688221248444444,0.98628924,-0.0551035113333333
947,1778428932990,0.35020336,0.0689369485,1.405348725,0.0241284672999999,0.8490013550000001,-0.0442100695
948,1778428933000,0.36337486,0.075888574,1.3910568,0.10750912,0.6863633,-0.035963632
949,1778428933010,0.34581286,0.084669575,1.3522741,0.17897825,0.50921756,-0.023746688
950,1778428933020,0.3398369075,0.0771996256249999,1.32023335,0.22066857875,0.4226299575,0.0019088977249999
951,1778428933030,0.35337427,0.063448824,1.289313,0.24311721,0.32351997,0.020234315
952,1778428933040,0.35337427,0.063448824,1.289313,0.24311721,0.32351997,0.020234315
953,1778428933050,0.35337427,0.063448824,1.289313,0.24311721,0.32351997,0.020234315
954,1778428933060,0.3558744175,0.063875679,1.2872321,0.24311721,0.32351997,0.020234315
955,1778428933070,0.4051151,0.07149807,1.2434262,0.099568106,-0.08635853,-0.018249061
956,1778428933080,0.4051151,0.07149807,1.2434262,0.099568106,-0.08635853,-0.018249061
957,1778428933090,0.3846451675,0.07604101975,1.21877535,0.0346655831249999,-0.2657949175,-0.018630840625
958,1778428933100,0.35300842,0.077047177,1.1896730249999998,-0.0700183685,-0.53090263625,-0.0135913515
959,1778428933110,0.33947104,0.07027849,1.1887584,-0.1111742,-0.572593,-0.010918895
960,1778428933120,0.33178765,0.0651562405,1.203759225,-0.14645063,-0.5867951499999999,-0.01595838425
961,1778428933130,0.3290639266666667,0.0528791026666666,1.2575835,-0.2119639966666666,-0.6650344933333333,-0.0357600166666666
962,1778428933140,0.32434818,0.04783816,1.2971183,-0.22906773,-0.72774816,-0.04756973
963,1778428933150,0.32434818,0.04783816,1.2971183,-0.22906773,-0.72774816,-0.04756973
964,1778428933160,0.3181283175,0.0502163455,1.3829618,-0.1803526525,-0.935741665,-0.0678804025
965,1778428933170,0.33998934375,0.056619155625,1.510739825,-0.06062658675,-1.2373474999999998,-0.1023932725
966,1778428933180,0.34410545,0.05905832,1.5243267,0.021379653,-1.3770788,-0.13308835
967,1778428933190,0.33602569,0.072077374,1.5182782875,0.134080975,-1.587687475,-0.2048629
968,1778428933200,0.33678794,0.075888574,1.5142956,0.14599249,-1.6642534,-0.22776967
969,1778428933210,0.33678794,0.075888574,1.5142956,0.14599249,-1.6642534,-0.22776967
970,1778428933220,0.36225057,0.10262413175,1.4909711875,0.019852535625,-1.94898455,-0.25281440875
971,1778428933230,0.3881493255555555,0.1107449411111111,1.4781079,-0.0658357577777777,-2.2381102888888886,-0.2243082088888889
972,1778428933240,0.40731034,0.10201815,1.4445051,-0.06536066,-2.4100978,-0.20577917
973,1778428933250,0.4138147666666666,0.0861635633333333,1.3928760333333334,-0.0387548662222222,-2.5214077555555554,-0.2046932233333333
974,1778428933260,0.4368513755555556,0.0729073704444444,1.3420735222222222,0.0175109532888888,-2.5958632999999995,-0.2049647088888889
975,1778428933270,0.45685592,0.056863073,1.2932156,0.08551861,-2.6923094,-0.2192178
976,1778428933280,0.4697835166666666,0.0606302311111111,1.1910858000000002,0.1374406266666666,-2.8022618666666665,-0.2432444633333333
977,1778428933290,0.471734861111111,0.0637740475555555,1.1342464,0.1654038599999999,-2.880857444444444,-0.24270149
978,1778428933300,0.45807552,0.06491233,1.0613729,0.17775655,-2.920766,-0.23509984
979,1778428933310,0.4471534733333333,0.0731512877777777,0.9886314966666668,0.1778922966666666,-2.9366481555555555,-0.1931549933333333
980,1778428933320,0.442952695,0.0775350175,0.89248347,0.1774511299999999,-2.9343575499999996,-0.1370588575
981,1778428933330,0.4444162,0.07369333,0.8588001,0.18019994,-2.9091601,-0.10132429
982,1778428933340,0.4469908644444444,0.0642042925555555,0.8298654833333333,0.1617387777777778,-2.889070011111111,-0.0817771775555555
983,1778428933350,0.45734373,0.01975725,0.6945527,0.09712471,-2.8187547,-0.013362284
984,1778428933360,0.4619782,0.012683666,0.66918534,0.02015796,-2.7833254,0.046500746
985,1778428933370,0.47719629375,0.01503136475,0.6628092425,-0.02809897375,-2.8445629125,0.10338589525
986,1778428933380,0.48511977,0.0224200062222222,0.6355418466666667,-0.0894551888888888,-2.960878422222222,0.1657517088888888
987,1778428933390,0.46441734,0.033447072,0.59814465,-0.13744064,-3.0435464,0.20898612
988,1778428933400,0.46935663375,0.041953668,0.56749119,-0.1248419112499999,-3.09600305,0.2332672949999999
989,1778428933410,0.4798755333333332,0.0458868233333333,0.5133023133333333,-0.0870796722222222,-3.1224137333333335,0.2433293033333333
990,1778428933420,0.48688814,0.04247199,0.46856394,-0.039094225,-3.0820298,0.23525254
991,1778428933430,0.50365744875,0.043386675625,0.42313827375,0.0303896506999999,-2.8861768999999997,0.22662433625
992,1778428933440,0.5377041444444444,0.0511987868888888,0.38432122,0.1203369099999999,-2.6947525999999997,0.2150945866666666
993,1778428933450,0.5405498,0.056131326,0.36874104,0.16309622,-2.612899,0.19799086
994,1778428933460,0.5405498,0.056131326,0.36874104,0.16309622,-2.612899,0.19799086
995,1778428933470,0.5745113937499999,0.0736323445,0.3764511025,0.3231382075,-2.2473070125,0.1462215624999999
996,1778428933480,0.6180543300000001,0.0833432779999999,0.3811960199999999,0.42759308,-2.18316805,0.1143047975
997,1778428933490,0.628786665,0.07905949,0.3595331699999999,0.4637857825,-2.219208,0.1008661537499999
998,1778428933500,0.62476206,0.07466899,0.33117786,0.49722967,-2.2201242,0.08070819
999,1778428933510,0.6387949125,0.06149749,0.2888278225,0.5097520499999999,-2.143310325,0.05169295
1000,1778428933520,0.66186786,0.05491174,0.2687047,0.5125008,-2.1804192,0.04161397
