id,timestamp,acc_x,acc_y,acc_z,gyro_x,gyro_y,gyro_z
0,1778428731050,0.939243804,-0.0267515602,0.409755628,0.0349862764,0.262954482,-0.0426829522
1,1778428731060,0.95301294,-0.029788323,0.4429527,0.017638214,0.23387815,-0.019470757
2,1778428731070,0.957078208888889,-0.0254215371111111,0.4455273744444444,0.0128193077777777,0.1983726522222222,-0.0149912102222222
3,1778428731080,0.9868901833333332,0.0092959352222222,0.4655285288888888,-0.0266821486666666,-0.1061007766666666,0.0185375186566666
4,1778428731090,0.9619023322222224,0.0069109724888888,0.45701854,-0.0374059104444444,-0.3025221033333333,-0.0027742647366666
5,1778428731100,0.9503298,0.0046344167,0.44392833,-0.04833329,-0.41797224,-0.012751437
6,1778428731110,0.9503298,0.0046344167,0.44392833,-0.04833329,-0.41797224,-0.012751437
7,1778428731120,0.9147451333333334,-0.0008943611555555,0.3711869744444444,-0.1073818562222222,-0.3157571288888889,-0.014108875
8,1778428731130,0.911625011111111,-0.0022765555888888,0.3594722044444444,-0.1544170933333333,-0.2353289066666666,-0.0046068067666666
9,1778428731140,0.9194032,-0.0040381759555555,0.3619655644444444,-0.1741678222222222,-0.2097411955555555,0.0022482572888888
10,1778428731150,0.9352306533333334,-0.0059895091111111,0.3652177955555555,-0.1947330166666666,-0.20702631,0.0039450552333333
11,1778428731160,0.93956697,-0.0070735829999999,0.36874104,-0.20654273,-0.22005773,0.0019088976999999
12,1778428731170,0.93956697,-0.007073583,0.36874104,-0.20654273,-0.22005773,0.0019088977
13,1778428731180,0.9295392944444444,-0.0229146156666666,0.3634832644444444,-0.2208467366666666,-0.26464958,0.0129041492333333
14,1778428731190,0.9204059666666669,-0.0371058223333333,0.3537807955555556,-0.2251481166666666,-0.2764592899999999,0.021456011
15,1778428731200,0.906973694,-0.0507651529999999,0.33698308,-0.223906064,-0.1834679739999999,0.0245102466
16,1778428731210,0.8841403344444445,-0.064966523,0.3323432333333333,-0.2133893144444444,-0.0271487655555555,0.0323155165555555
17,1778428731220,0.8818637444444444,-0.0679477288888888,0.3474660811111111,-0.1729461355555555,0.084152696,0.0479260574444444
18,1778428731230,0.8882255920000001,-0.0688637712,0.353862114,-0.1436254659999999,0.109265302,0.051387526
19,1778428731240,0.8923284822222222,-0.0672972875555555,0.3607730722222222,-0.1067031433333333,0.1238577631111111,0.0484011624444444
20,1778428731250,0.894442458,-0.0659855584,0.370948468,-0.0544417601,0.14249539,0.0436908498
21,1778428731260,0.9020038166666668,-0.0670262673333333,0.3781216633333333,-0.0181981578666666,0.1461197466666666,0.038966965
22,1778428731270,0.9150127166666668,-0.0671075733333333,0.3799103833333333,0.0051497818666666,0.1571149977777777,0.0298721283333333
23,1778428731280,0.9167201555555556,-0.0659692958888888,0.3777693155555555,0.0137016437777777,0.1662098366666666,0.0244423737777777
24,1778428731290,0.916936977777778,-0.0585433905555555,0.3754927688888889,0.0199458596666666,0.1839244155555555,0.017451566
25,1778428731300,0.91434606,-0.0505212405999999,0.383162602,0.0059099472,0.19783816,0.00361927002
26,1778428731310,0.91224835,-0.0484072966666666,0.3898296533333333,-0.0198270835555555,0.190508,-0.0014846982111111
27,1778428731320,0.91718764375,-0.0449416465,0.3977976,-0.044362782,0.1964637575,1.2499999922947409e-11
28,1778428731330,0.9181023,-0.042959824,0.4051151,-0.058106847,0.20639002,0.0019088977
29,1778428731340,0.92420026125,-0.035428895875,0.4163962475,-0.05703786375,0.1808871475,0.009391777
30,1778428731350,0.9323037555555556,-0.02864327,0.4140587177777777,-0.0537630412222222,0.1676351544444444,0.0058454690777777
31,1778428731360,0.929864542222222,-0.0273457703333333,0.4166062744444445,-0.045889899,0.1560969322222222,-0.0028421365222222
32,1778428731370,0.92724924,-0.0249404792499999,0.416640165,-0.04321744375,0.14393089,-0.0068720314375
33,1778428731380,0.92907864,-0.025123417,0.41389608,-0.0458899,0.13553174,-0.007253811
34,1778428731390,0.945123715,-0.0306191627499999,0.3926753375,-0.0767376895,0.090939886,-0.005726692675
35,1778428731400,0.95106158,-0.0390571549999999,0.3718738325,-0.1138466625,0.0515211474999999,-0.007559234775
36,1778428731410,0.9530942666666667,-0.0411711005555555,0.3603394566666666,-0.1505484,0.012675081,-0.0137695153333333
37,1778428731420,0.95691558125,-0.042715909875,0.337702625,-0.170502745,-0.03390202225,-0.0196234675
38,1778428731430,0.95569605,-0.0585704929999999,0.3233725,-0.16683766,-0.08933641,-0.01641652
39,1778428731440,0.95404958,-0.0569850325,0.30565808,-0.18111621875,-0.09651386625,-0.02664821175
40,1778428731450,0.9588940266666668,-0.0727447611111111,0.3071622355555555,-0.1813622577777777,-0.0952412694444444,-0.0405789213333333
41,1778428731460,0.9698432025,-0.0787012375,0.309255845,-0.1712662999999999,-0.1275143625,-0.060092097
42,1778428731470,0.98350252,-0.0862651966666666,0.3023380955555555,-0.1479014,-0.18931174,-0.1037676766666666
43,1778428731480,0.9821609425,-0.07430312,0.2948037799999999,-0.12850699375,-0.2062373025,-0.12079504875
44,1778428731490,0.9951630833333334,-0.0590583233333333,0.2801958755555556,-0.0868166677777777,-0.2242657866666666,-0.1311200622222222
45,1778428731500,1.0241794125,-0.0458868235,0.25934058875,-0.0513111689375,-0.2547233224999999,-0.140036725
46,1778428731510,1.0714345,-0.0536921575,0.2319037675,-7.635612499999958e-05,-0.2802261775,-0.14914217
47,1778428731520,1.1108169,-0.0714167673333333,0.19857866,0.0489271688888888,-0.2943095877777777,-0.1653359944444444
48,1778428731530,1.126224225,-0.0776569675,0.1628372475,0.098422765,-0.2837385375,-0.1918060425
49,1778428731540,1.1168830125,-0.0579911845,0.13482493875,0.1169008965,-0.255181435,-0.2006633225
50,1778428731550,1.1089367,-0.039544992,0.12201932,0.115984626,-0.21761434,-0.19424942
51,1778428731560,1.1113758,-0.018781584,0.10957957,0.1056680962222222,-0.1578870511111111,-0.1643857844444444
52,1778428731570,1.122958,0.0007927292999999,0.11991553125,0.0885728525,-0.12224580875,-0.11591781125
53,1778428731580,1.1414080444444443,0.0141742695555555,0.1215314866666666,0.0629087855555555,-0.1534753766666666,-0.0565288215555555
54,1778428731590,1.157567575,0.020671937125,0.12055581725,0.049249561375,-0.25716670375,-0.0089336415625
55,1778428731600,1.1645802,0.027074749,0.121775396,0.043904647,-0.35872006,0.0086282175
56,1778428731610,1.134231525,0.0170741665,0.084719122,0.02771719405,-0.48959408875,0.0168746559375
57,1778428731620,1.1096684,0.0075614169999999,0.06100966,0.0035887277,-0.5493044,0.020234315
58,1778428731630,1.0589528625,0.02251274725,0.066539703125,-0.021914145575,-0.58503897,0.05902311625
59,1778428731640,1.0196327,0.039301075,0.088114895,-0.03489465,-0.6604786,0.12652174
60,1778428731650,1.020090025,0.043051293375,0.0872573755,-0.046577103125,-0.708888245,0.1704263875
61,1778428731660,1.0179793888888888,0.043257944,0.0745334822222222,-0.1003910477777777,-0.9416719444444444,0.4000455777777777
62,1778428731670,1.0113089375,0.02795513775,0.062137777125,-0.113693945,-1.0172133,0.47653723
63,1778428731680,1.0016844777777778,0.0004539564444444,0.0390232796666666,-0.0559349451111111,-1.0747688666666666,0.5846572
64,1778428731690,0.99877784625,-0.034392250375,0.025519782,0.02115058675,-1.13426705,0.6689541375
65,1778428731700,1.0023993100000002,-0.0410084896666666,0.0166405380733333,0.1058717088888889,-1.1999246555555556,0.6824606444444444
66,1778428731710,1.0094453375,-0.031099375125,-0.00811404083625,0.18294875,-1.1981769,0.6166502875
67,1778428731720,0.9951021222222224,-0.0465643699999999,-0.06749039,0.2061864,-1.1027998777777777,0.5444091144444445
68,1778428731730,0.9853318825,-0.057046014,-0.102749895,0.14423630375,-0.81151056,0.4513397725
69,1778428731740,0.9838819566666668,-0.0609554548888889,-0.1002497455555555,0.0284298503333333,-0.4849618422222222,0.3678742666666666
70,1778428731750,0.9903322,-0.062473156,-0.08125474,-0.051387526,-0.3538333,0.3403183
71,1778428731760,1.0058310444444445,-0.0438440204444444,-0.050754994,-0.1530681502222222,-0.3950994155555556,0.3333953366666666
72,1778428731770,1.0081686,-0.023172084,-0.027806502,-0.2481567,-0.54563934,0.32565793
73,1778428731780,0.9939909,-0.025123417,-0.050765157,-0.3116848066666666,-0.7025591888888889,0.3224000988888889
74,1778428731790,0.9672172125,-0.025889468875,-0.079718825875,-0.4184303674999999,-0.8535827012499999,0.33650048875
75,1778428731800,0.9173706,-0.03320316,-0.096895896,-0.53830916,-0.9720107,0.35497862
76,1778428731810,0.8697763,-0.042959824,-0.07442507,-0.52975726,-0.9231429,0.35497862
77,1778428731820,0.848528461111111,-0.0564294464444444,-0.0562126286666666,-0.4584917688888889,-0.75970732,0.3193458511111111
78,1778428731830,0.8301132075,-0.07216884975,-0.0068258565,-0.3337421125,-0.54082887625,0.2661766949999999
79,1778428731840,0.82852393,-0.065156244,0.031739656,-0.1674485,-0.34711397,0.2034885
80,1778428731850,0.82852393,-0.065156244,0.031739656,-0.1674485,-0.34711397,0.2034885
81,1778428731860,0.8306124975,-0.065407781,0.0574118852499999,0.041308545,-0.3619270025,0.1123195405
82,1778428731870,0.82706046,-0.086163566,0.070522405,0.17157172,-0.40392274,0.063604474
83,1778428731880,0.82706046,-0.086163566,0.070522405,0.17157172,-0.40392274,0.063604474
84,1778428731890,0.8206271387499999,-0.14048837575,0.072168844375,0.30374379875,-0.56037601375,0.098193698
85,1778428731900,0.8229139,-0.14936846,0.04905774,0.39208758,-0.6409315,0.10392039
86,1778428731910,0.8407706455555555,-0.1182860366666666,0.0471606115555555,0.4702081733333333,-0.5718378833333334,0.0715454842222222
87,1778428731920,0.858251325,-0.08819493375,0.04466723975,0.5637356825,-0.4439332425,0.0009926279999999
88,1778428731930,0.86587375,-0.07979124,0.039788906,0.60588413,-0.36421767,-0.05856498
89,1778428731940,0.86587375,-0.07979124,0.039788906,0.60588413,-0.36421767,-0.05856498
90,1778428731950,0.87520355,-0.11573084,0.0663224675,0.559765165,-0.0914552825,-0.1795700075
91,1778428731960,0.87733775,-0.13470298,0.11079915,0.48982313,0.190508,-0.23334365
92,1778428731970,0.87733775,-0.13470298,0.11079915,0.4898231299999999,0.190508,-0.23334365
93,1778428731980,0.87489858625,-0.134459065,0.11741920125,0.4812712725,0.2026485875,-0.23036577
94,1778428731990,0.87806946,-0.096895896,0.22233005,0.24426255,0.17401512,-0.08544226
95,1778428732000,0.87806946,-0.096895896,0.22233005,0.24426255,0.17401512,-0.08544226
96,1778428732010,0.87806946,-0.096895896,0.22233005,0.24426255,0.17401512,-0.08544226
97,1778428732020,0.87806946,-0.096895896,0.22233005,0.24426255,0.17401512,-0.08544226
98,1778428732030,0.87806946,-0.096895896,0.22233005,0.24426255,0.17401512,-0.08544226
99,1778428732040,0.87806946,-0.096895896,0.22233005,0.24426255,0.17401512,-0.08544226
100,1778428732050,0.87806946,-0.096895896,0.22233005,0.24426255,0.17401512,-0.08544226
101,1778428732060,0.88069539,-0.0949712402499999,0.22159829875,0.24426255,0.17401512,-0.08544226
102,1778428732070,0.9031015066666668,-0.0724737366666666,0.2700005066666667,0.1531444966666666,0.29577733,0.0336729565833333
103,1778428732080,0.9133053222222222,-0.0554537771111111,0.3415849633333333,0.13695704,0.3951418266666666,0.2297549266666666
104,1778428732090,0.9288956375,-0.071814405,0.3433432025,0.112472251875,0.4196520725,0.28488387625
105,1778428732100,0.9434798,-0.1016116216666666,0.3306087166666667,0.0773655045555555,0.4632173577777778,0.3052284833333333
106,1778428732110,0.958623,-0.112994395,0.31825027,0.042682953,0.5368584,0.30427828
107,1778428732120,0.961956511111111,-0.0982137266666666,0.3537367711111111,0.0086112499999999,0.6222412655555556,0.2821520455555555
108,1778428732130,0.9635928125,-0.06597946,0.43021947375,-0.0674222665,0.6906392,0.2387649175
109,1778428732140,0.9786241666666666,-0.0679274064444444,0.4755629766666667,-0.1185128502222222,0.6277388944444444,0.2138050311111111
110,1778428732150,0.9945702125,-0.1085124299999999,0.5309875374999999,-0.1755422275,0.529986335,0.18058172
111,1778428732160,0.9983814,-0.12299499,0.5483857,-0.19982341,0.46905434,0.16500512
112,1778428732170,1.0097066,-0.1098776857777777,0.5535350166666667,-0.2065003111111111,0.4222227111111111,0.1565211222222222
113,1778428732180,1.0393708375,-0.091670743125,0.53242814,-0.2381540812499999,0.37643461375,0.1462979224999999
114,1778428732190,1.061007025,-0.0831146031249999,0.4992935775,-0.28984703375,0.36398859875,0.134539115
115,1778428732200,1.0787722999999998,-0.09711949,0.4889817833333333,-0.3379512511111111,0.4071551622222222,0.1359559344444444
116,1778428732210,1.0784471,-0.12299499,0.50298667,-0.3721587,0.44462046,0.14301461
117,1778428732220,1.0821058,-0.18327288,0.6150054,-0.43263257,0.4299601,0.1582858
118,1778428732230,1.09006365,-0.24111543875,0.7763029,-0.443627835,0.318633195,0.156300535
119,1778428732240,1.0475644666666666,-0.2571525444444444,0.8650131644444445,-0.3790137577777777,0.2349640955555555,0.1477656511111111
120,1778428732250,0.996674,-0.23550156,0.89444244,-0.29397026,0.18745375,0.15156648
121,1778428732260,0.9569969333333334,-0.2324661466666666,0.88314092,-0.1701039844444444,0.2564116344444444,0.1705706133333333
122,1778428732270,0.96639785625,-0.2306841925,0.84522461375,-0.0981173425,0.3827721575,0.1581330825
123,1778428732280,0.9849660125,-0.21696387625,0.813614515,-0.0962848025,0.4064424975,0.130186824375
124,1778428732290,1.003328325,-0.224891165,0.7993148975,-0.12690352,0.42484428375,0.073454383125
125,1778428732300,1.0225054,-0.2544525099999999,0.8118630877777778,-0.2387309855555555,0.4297565,-0.0828122211111111
126,1778428732310,1.0223157,-0.29260853,0.8602636,-0.35138988,0.36276692,-0.18264332
127,1778428732320,0.9978936,-0.3050483,0.9464271,-0.4366794475,0.23571069375,-0.30801974125
128,1778428732330,0.94019034,-0.2779464366666666,0.9376428088888892,-0.4736272,0.0482399637777777,-0.3878880111111111
129,1778428732340,0.9130106225,-0.26065166125,0.91072387125,-0.5360948249999999,-0.01183516575,-0.390407745
130,1778428732350,0.8925956199999999,-0.2496139014285714,0.9329856214285714,-0.5830755642857143,-0.0057376013142857,-0.3650248528571428
131,1778428732360,0.8908649933333334,-0.2419246933333333,0.9759410866666668,-0.5789644055555556,-0.0095190362666666,-0.3243598966666667
132,1778428732370,0.8974914125,-0.2422397475,0.9642026375,-0.53968355,-0.05711421975,-0.28511297
133,1778428732380,0.9115166,-0.25306356,0.9478907,-0.5144861,-0.08872557,-0.2699945
134,1778428732390,0.9165033433333334,-0.2895968555555555,0.9353696566666666,-0.4648038555555555,-0.1775020366666666,-0.2640217666666666
135,1778428732400,0.899191155,-0.301450515,0.9207854775,-0.39277479,-0.2974826175,-0.2550287275
136,1778428732410,0.88197213,-0.30821922,0.8995647,-0.35200074,-0.34100547,-0.24678229
137,1778428732420,0.8673372066666666,-0.31252841,0.8616458,-0.2966172555555555,-0.40317616,-0.2167829044444444
138,1778428732430,0.87569895,-0.3107193675,0.84953125,-0.20859479125,-0.4316399475,-0.20684815875
139,1778428732440,0.89828415,-0.3106660125,0.850323975,-0.0442100675,-0.422859015,-0.2287623
140,1778428732450,0.9121670666666666,-0.3141748466666667,0.8613205433333334,0.1364140711111111,-0.3827467066666666,-0.3039983211111111
141,1778428732460,0.92224896,-0.29706002,0.8551337125,0.2585411025,-0.3468848825,-0.37582376875
142,1778428732470,0.9229806933333332,-0.2787865766666667,0.8007072733333334,0.3755947033333333,-0.30964866,-0.4721849333333334
143,1778428732480,0.9098092,-0.26382637,0.7533671,0.40980217,-0.29824618,-0.5173876
144,1778428732490,0.87231081375,-0.19490084875,0.70373389625,0.381168685,-0.27152159875,-0.5518241375
145,1778428732500,0.8534881733333334,-0.1302277866666666,0.6807273733333333,0.3493282766666666,-0.2406229155555555,-0.5608256666666667
146,1778428732510,0.855934125,-0.037342117575,0.651288,0.3381803225,-0.196845525,-0.5657972875
147,1778428732520,0.864776125,-0.006524770975,0.6495882075,0.34276167,-0.183101465,-0.540905255
148,1778428732530,0.8724323333333333,-0.0065044441111111,0.6923846011111112,0.38190679,-0.1691537844444444,-0.5093108511111111
149,1778428732540,0.870752,-0.0163525786666666,0.7043906999999999,0.5096417566666667,-0.1711899422222222,-0.4559635488888889
150,1778428732550,0.8739534625000001,-0.034178820375,0.6821701925,0.597484995,-0.182261545,-0.4030828425
151,1778428732560,0.8766330866666666,-0.025147131,0.6169228533333333,0.6497972644444444,-0.1475705177777777,-0.3355587555555556
152,1778428732570,0.8501982062500001,-0.00884197975,0.5441400024999999,0.6998782625,-0.051377984375,-0.25533414625
153,1778428732580,0.8078723544444445,0.0183005255555555,0.4458661044444444,0.7389130555555555,0.1159846188888888,-0.1592784144444444
154,1778428732590,0.786356855,0.05311285375,0.3455346325,0.7220978075,0.353146075,-0.04894413625
155,1778428732600,0.78315544,0.08149865,0.27699786,0.66024953,0.6156577,0.03672719
156,1778428732610,0.8047497125,0.0936640025,0.3611338625,0.5554892525,0.748211545,0.1575222325
157,1778428732620,0.87684995,0.09567632,0.48100364,0.4812713,0.6785749,0.24319357
158,1778428732630,0.87684995,0.09567632,0.48100364,0.4812713,0.6785749,0.24319357
159,1778428732640,0.87684995,0.09567632,0.48100364,0.4812713,0.6785749,0.24319357
160,1778428732650,0.87684995,0.09567632,0.48100364,0.4812713,0.6785749,0.24319357
161,1778428732660,0.87684995,0.09567632,0.48100364,0.4812713,0.6785749,0.24319357
162,1778428732670,0.8448282250000001,-0.021708584,0.2910764225,0.2538833925,0.1104869975,0.01672194425
163,1778428732680,0.8241334,-0.026830835,0.22428137,0.2369323799999999,0.11781716,0.02817533
164,1778428732690,0.8241334,-0.026830835,0.22428137,0.23693238,0.11781716,0.02817533
165,1778428732700,0.8241334,-0.026830835,0.22428137,0.2369323799999999,0.11781716,0.02817533
166,1778428732710,0.8241334,-0.026830835,0.22428137,0.23693238,0.11781716,0.02817533
167,1778428732720,0.8225615000000001,-0.0281622133333333,0.2139487911111111,0.2369323799999999,0.11781716,0.02817533
168,1778428732730,0.93179981125,-0.01841951975,0.31100137,-0.158600769,0.36711921125,0.3004604925
169,1778428732740,1.0790060333333331,-0.0885824066666666,0.3995050066666666,0.0606011393333333,0.1243074199999999,0.2647768233333333
170,1778428732750,1.1255535,-0.12519024,0.37999168,0.21372019,-0.06306998,0.20654273
171,1778428732760,1.1255535,-0.12519024,0.37999168,0.21372019,-0.06306998,0.20654273
172,1778428732770,1.1255535,-0.12519024,0.37999168,0.21372019,-0.06306998,0.20654273
173,1778428732780,1.1255535,-0.12519024,0.37999168,0.21372019,-0.06306998,0.20654273
174,1778428732790,1.1255535,-0.12519024,0.37999168,0.21372019,-0.06306998,0.20654273
175,1778428732800,1.1255535,-0.12519024,0.37999168,0.21372019,-0.06306998,0.20654273
176,1778428732810,1.1255535,-0.12519024,0.37999168,0.21372019,-0.06306998,0.20654273
177,1778428732820,1.1255535,-0.12519024,0.37999168,0.21372019,-0.06306998,0.20654273
178,1778428732830,1.1255535,-0.12519024,0.37999168,0.21372019,-0.06306998,0.20654273
179,1778428732840,1.1255535,-0.12519024,0.37999168,0.21372019,-0.06306998,0.20654273
180,1778428732850,1.1255535,-0.12519024,0.37999168,0.21372019,-0.06306998,0.20654273
181,1778428732860,1.1255535,-0.12519024,0.37999168,0.21372019,-0.06306998,0.20654273
182,1778428732870,1.1021794325,-0.08962413625,0.2132136589625,0.17423463875,-0.0968956517499999,0.132095720125
183,1778428732880,1.1107546,-0.1322752525,-0.108177045,0.30015507,-0.04405735875,-0.1855448575
184,1778428732890,1.0828376,-0.15180764,-0.11397006,0.28641102,-0.06734591,-0.21685077
185,1778428732900,1.0828376,-0.15180764,-0.11397006,0.28641102,-0.06734591,-0.21685077
186,1778428732910,1.0828376,-0.15180764,-0.11397006,0.28641102,-0.06734591,-0.21685077
187,1778428732920,1.0828376,-0.15180764,-0.11397006,0.28641102,-0.06734591,-0.21685077
188,1778428732930,1.0828376,-0.15180764,-0.11397006,0.28641102,-0.06734591,-0.21685077
189,1778428732940,1.093824,-0.1224360066666666,-0.0764678733333333,0.275823,-0.0897436433333333,-0.11990422
190,1778428732950,1.158024925,-0.0248451992874999,0.091807948125,0.20516832,-0.25670856,0.03672719
191,1778428732960,1.1578724875,0.0038111979375,0.1476953525,0.1866138387499999,-0.43667944,-0.04726430425
192,1778428732970,1.1277487666666666,-0.0094314449333333,0.1944219266666666,0.27297236,-0.5485578,-0.1304074055555555
193,1778428732980,1.117073625,-0.0256760412499999,0.1953391575,0.3697916525,-0.5621321575,-0.19730366
194,1778428732990,1.0935699,-0.034666654,0.1276294,0.45866993,-0.49799323,-0.27060533
195,1778428733000,1.0277086125,-0.042837865,0.0846810085,0.51746398,-0.37780902875,-0.333598955
196,1778428733010,0.926097342222222,-0.0493287586666666,0.0302964835555555,0.5535548666666666,-0.2744231233333333,-0.3844265366666667
197,1778428733020,0.894930255,-0.039903243,-0.01208149725,0.488296005,-0.264573225,-0.37689276875
198,1778428733030,0.923644688888889,-0.0092959353333333,-0.0238665691111111,0.34851381,-0.2768665233333333,-0.3443142566666666
199,1778428733040,0.94828708,0.009482260125,-0.0150923449125,0.19417307,-0.30985227,-0.30969957
200,1778428733050,0.9520982725,0.010640864625,0.0006402813625,-0.023288552,-0.44301698,-0.28343314
201,1778428733060,0.9474029,0.008293167,0.013659334,-0.17722206,-0.5505261,-0.25105822
202,1778428733070,0.9368026266666668,-0.0309062749999999,0.05125299,-0.3141282,-0.7168801333333333,-0.1807853366666666
203,1778428733080,0.926029655,-0.09212427875,0.035329805925,-0.31809872,-0.787687515,-0.1194969975
204,1778428733090,0.9204196375,-0.15876307625,-0.0115288740125,-0.28236416,-0.75699246,-0.0640626
205,1778428733100,0.895685771111111,-0.21078466,-0.0494100644444444,-0.2045744444444444,-0.5826294744444445,-0.0006702349999999
206,1778428733110,0.86300763,-0.2388554175,-0.0775350125,-0.0935359889775,-0.34467057,0.0579541335
207,1778428733120,0.8463603,-0.24306297,-0.08320607,0.0500131193933333,-0.1713935566666666,0.07846842
208,1778428733130,0.8292289825,-0.22434235625,-0.1419633125,0.15019207,-0.09605573,0.08376243
209,1778428733140,0.8473902277777778,-0.2007501955555555,-0.1809963344444444,0.3720653788888888,0.0620349337777777,0.0824049888888888
210,1778428733150,0.8891609344444444,-0.1570044155555555,-0.2021425566666667,0.5954997333333334,0.1964128466666666,0.0686948666666666
211,1778428733160,0.9169437925,-0.1270501,-0.236938375,0.710262635,0.2480803425,0.05688515125
212,1778428733170,0.9304065977777776,-0.0959134533333333,-0.2775398933333333,0.8061062777777778,0.2885829066666667,0.0289219226666666
213,1778428733180,0.9213274666666664,-0.0774604855555555,-0.3151742222222222,0.8940682888888889,0.3350751733333333,-0.037931918
214,1778428733190,0.9048051125,-0.071741993125,-0.3272447137499999,0.90298494375,0.351695315,-0.06513158875
215,1778428733200,0.8567878,-0.0360615565,-0.371614665,0.8351045525,0.399875885,-0.095521239
216,1778428733210,0.8457098622222223,-0.0268613237777777,-0.3951416377777778,0.7655188377777777,0.4235122933333333,-0.1023423686666666
217,1778428733220,0.8712474875,-0.02770740825,-0.4143839475,0.59091836,0.4959316325,-0.1311221775
218,1778428733230,0.89505224125,-0.01744004025,-0.410938625,0.40262469875,0.5866424512499999,-0.1668376525
219,1778428733240,0.9158461125,-0.01518381275,-0.385594145,0.1314085115,0.6922426749999999,-0.19608197
220,1778428733250,0.9487824875,-0.01750102075,-0.3381828424999999,-0.04834283525,0.7245412287499999,-0.20936790125
221,1778428733260,0.9783531422222222,-0.0221964164444444,-0.2935808099999999,-0.3038116755555555,0.6827829977777777,-0.2139322788888888
222,1778428733270,1.0093711777777776,-0.0344600053333333,-0.2112589388888889,-0.6211807733333333,0.5553874166666666,-0.1657177753333333
223,1778428733280,1.02912095,-0.0529604069,-0.146773804,-0.8273620660000001,0.3703414189999999,-0.098392224
224,1778428733290,1.0487705222222223,-0.0750518033333333,-0.1049451466666666,-0.90848259,0.1328592819999999,-0.0443118776666666
225,1778428733300,1.061971225,-0.11204922125,-0.11384810375,-0.9158127725,-0.042224816,-0.0164165193375
226,1778428733310,1.0467887333333334,-0.13642057,-0.1482098633333333,-0.8457689199999999,-0.1970491433333333,-0.0068465798
227,1778428733320,1.022071825,-0.14765344,-0.184500095,-0.76096296,-0.26128991,-0.028022618
228,1778428733330,1.0063798333333331,-0.1315320666666666,-0.2189152166666667,-0.6581709422222223,-0.2945132166666667,-0.0815056888888889
229,1778428733340,1.0032834466666667,-0.1031225453333333,-0.2234141211111111,-0.5568381866666666,-0.3192185999999999,-0.1414620466666666
230,1778428733350,0.9941060577777778,-0.0604947244444444,-0.2022679111111111,-0.40765572,-0.3403946333333333,-0.1955389977777777
231,1778428733360,1.009876,-0.044179406,-0.16278389,-0.29885703,-0.31473905,-0.19791451
232,1778428733370,1.0283053111111111,-0.0238496306666666,-0.0744758868888889,-0.0636044711111111,-0.3898732622222222,-0.1866477744444444
233,1778428733380,1.045,-0.0219525,-0.031007906,0.03413109,-0.46317494,-0.17103723
234,1778428733390,1.0729453222222225,-0.0447756478888888,-0.025645128,0.2542397266666667,-0.6134433711111112,-0.1460603688888889
235,1778428733400,1.0847889,-0.0515782133333333,-0.066701048,0.4324035033333333,-0.5995975000000001,-0.16187452
236,1778428733410,1.07588595,-0.040520655,-0.114945735,0.49608433375,-0.455997495,-0.1641651999999999
237,1778428733420,1.0658446666666666,-0.0326611195555555,-0.1576684155555555,0.5271526999999999,-0.2736765444444444,-0.1618575577777777
238,1778428733430,1.0713124,-0.0256379284624999,-0.21065634875,0.48646349375,-0.13270656625,-0.133241055
239,1778428733440,1.0777153,-0.0017074167,-0.25870413,0.3572692974999999,-0.0968192924999999,-0.048180577
240,1778428733450,1.0591776,0.015854584,-0.27870527,0.24548425,-0.15591876,0.056274302
241,1778428733460,1.02875279125,0.00618938575,-0.25601342125,0.168975629125,-0.266329415,0.15660596675
242,1778428733470,0.97789247,-0.0108136394444444,-0.1577565,0.0549677687777777,-0.5469288999999999,0.3344812955555555
243,1778428733480,0.96295257,-0.01670829275,-0.06106301075,0.05283828725,-0.7433247625,0.393385635
244,1778428733490,0.958196135,-0.01548870875,-0.0079272915,0.1230093625,-0.93001497875,0.3961344575
245,1778428733500,0.953070135,-0.017230426375,-0.018053644875,0.2242573025,-0.8894699725,0.2827459125
246,1778428733510,0.9476230555555556,-0.0376207583333333,-0.0574660911111111,0.3794634133333333,-0.6289181466666666,0.0955721366666666
247,1778428733520,1.0014723125,-0.0378566295,-0.116439725,0.4628695225,-0.06769905,-0.14563934625
248,1778428733530,1.0315845,0.0033064254444444,-0.11857738,0.5388945399999999,0.4446883266666666,-0.3512371622222222
249,1778428733540,1.0374385,0.0132324787499999,-0.11921427,0.5872532699999999,0.727290005,-0.3994940975
250,1778428733550,1.041619,0.0069109725555555,-0.0880471368888888,0.5783960133333333,0.9461260422222222,-0.3906028877777778
251,1778428733560,1.073416375,-0.0039026663749999,-0.005815888375,0.453783155,0.9030613,-0.337798535
252,1778428733570,1.079009433333333,0.0198724337777777,0.1551784333333333,0.3641922311111111,0.7512657800000001,-0.3034553533333333
253,1778428733580,1.0536285,0.071075034875,0.21522597875,0.2512109437499999,0.40682427625,-0.2533489049999999
254,1778428733590,1.0467887,0.1391747933333333,0.21761433,0.0897181934666666,0.2772483133333333,-0.2665330133333333
255,1778428733600,1.0454879,0.1378739,0.22964753,-0.00839914965,0.3260397375,-0.2963372875
256,1778428733610,1.030151625,0.1135127225,0.24239219125,-0.10851129,0.329093965,-0.300842265
257,1778428733620,1.0238097875,0.10323773,0.2201042987499999,-0.270910775,0.30229303625,-0.2617480375
258,1778428733630,1.0315032000000002,0.11421398,0.2886957066666666,-0.4242164555555555,0.3444415077777777,-0.1955898933333333
259,1778428733640,1.0430486,0.11567748,0.36142352,-0.49310645,0.29740626,-0.13614258
260,1778428733650,1.0435059875,0.11384810625,0.38861261375,-0.4992149225,0.223627364325,-0.10636377675
261,1778428733660,1.0442683,0.11079915,0.43392777,-0.51754034,0.0022906773,-0.017027367
262,1778428733670,1.0442683,0.11079915,0.43392777,-0.51754034,0.0022906773,-0.017027367
263,1778428733680,1.0442683,0.11079915,0.43392777,-0.51754034,0.0022906773,-0.017027367
264,1778428733690,1.0442683,0.11079915,0.43392777,-0.51754034,0.0022906773,-0.017027367
265,1778428733700,1.0307308375,0.10808176325,0.34487531,-0.389033345,-0.175771299425,-0.0085518605
266,1778428733710,1.0209133124999998,0.10290235,0.2649544924999999,-0.3820849524999999,0.033310263,-0.15754133
267,1778428733720,1.0059733,0.08689531,0.30870703,-0.4356868,0.15752223,-0.23823044
268,1778428733730,1.0059733,0.08689531,0.30870703,-0.4356868,0.15752223,-0.23823044
269,1778428733740,1.0059733,0.08689531,0.30870703,-0.4356868,0.15752223,-0.23823044
270,1778428733750,1.0059733,0.08689531,0.30870703,-0.4356868,0.15752223,-0.23823044
271,1778428733760,0.9479440175,0.10918319875,0.35444521625,-0.4156052025,0.0085995824999999,-0.103739047625
272,1778428733770,0.86922755,0.1304954175,0.3714469625,-0.3523825175,-0.267474735,0.19165333375
273,1778428733780,0.8794584888888889,0.0991385746666666,0.3349653344444444,-0.3104631,-0.1754658733333333,0.2737359333333333
274,1778428733790,0.8954181,0.056619156,0.30212128,-0.2896943,-0.06306998,0.32138202
275,1778428733800,0.8954181,0.0566191559999999,0.30212128,-0.2896943,-0.06306998,0.32138202
276,1778428733810,0.8954181,0.056619156,0.30212128,-0.2896943,-0.06306998,0.32138202
277,1778428733820,0.8954181,0.056619156,0.30212128,-0.2896943,-0.06306998,0.32138202
278,1778428733830,0.90169895625,0.034780992625,0.3314103399999999,-0.24332718,0.0056026149999999,0.34100548375
279,1778428733840,0.9006203875,-0.021739071375,0.3975841599999999,-0.1172063175,0.127896145,0.3893387625
280,1778428733850,0.87782180375,-0.026251530125,0.38459559,-0.12331479125,0.1382041887499999,0.3913240175
281,1778428733860,0.831105401111111,-0.0118977132222222,0.3737243799999999,-0.1106397111111111,0.2417512866666666,0.39481942
282,1778428733870,0.84684819,-0.01237877075,0.3758832099999999,-0.070476499,0.3644467475,0.3407764125
283,1778428733880,0.8659651275,-0.012195833375,0.4234812625,-0.0014507619999999,0.4989858475,0.22059220375
284,1778428733890,0.88320318625,-0.01861008125,0.4702827874999999,0.0879620075,0.589314875,0.1032331834999999
285,1778428733900,0.90761393,-0.03539841,0.4959131,0.17829104,0.6187119,-0.012751437
286,1778428733910,0.90083760625,-0.05725943625,0.5491859875,0.223111965,0.56740075,-0.060168452125
287,1778428733920,0.8768769866666666,-0.0624189528888888,0.5933781222222223,0.2247154399999999,0.4928774,-0.051234815
288,1778428733930,0.8673372,-0.052228656,0.6098831,0.22471544,0.4928774,-0.051234815
289,1778428733940,0.91282385625,-0.02637730075,0.59192856375,0.17714570625,0.4388937675,0.1187334318749999
290,1778428733950,0.9666722466666666,0.0103258063333333,0.5377244666666666,0.1632234799999999,0.4100057666666666,0.1927647222222222
291,1778428733960,0.9739898,0.020245085,0.5178656,0.15324631,0.37864894,0.19799086
292,1778428733970,0.99829375,0.018019344125,0.486556595,0.100866152125,0.36910444875,0.16248537575
293,1778428733980,1.004394668888889,-0.0207938953333333,0.5159481333333333,0.0443118778888888,0.3618845811111111,0.1007304068888888
294,1778428733990,0.99203956,-0.036374073,0.5544836,0.007253811,0.33100286,0.06604786
295,1778428734000,0.9732850844444444,-0.038704833,0.5877714333333333,-0.0588534357777777,0.3015464377777778,0.0735816435555555
296,1778428734010,0.9621597525,-0.034056864,0.6492261425,-0.10376767725,0.26419143625,0.107738186
297,1778428734020,0.96642834,-0.034666654,0.66845363,-0.098422766,0.19417307,0.15584241
298,1778428734030,1.0096015625,-0.06024741625,0.6498549812500001,-0.094757684,0.1344627465,0.204557475
299,1778428734040,1.0201205,-0.06100966,0.6432997,-0.098422766,0.100102596,0.21326205
300,1778428734050,1.0206083,-0.060521826,0.6457389,-0.11247225,0.07994463,0.21081866
301,1778428734060,1.0107364844444444,-0.060440521,0.6691853888888889,-0.1293723568888888,0.0553750002222222,0.1883530577777777
302,1778428734070,0.9841122725,-0.0551556594999999,0.711649725,-0.103462255,0.036011355,0.1391968175
303,1778428734080,0.9566717,-0.04564291,0.6918696,-0.08131904,0.02183779,0.10636378
304,1778428734090,0.92566377,-0.033447072,0.68650347,-0.11125056,0.0071774554,0.09292514
305,1778428734100,0.9256366711111113,-0.028067355,0.7554844488888889,-0.1765603077777778,-0.0295412515777777,0.0948255511111111
306,1778428734110,0.9376157,-0.031983573,0.8104741,-0.24632415,-0.1137703,0.08315159
307,1778428734120,0.9414801975,-0.0322198675,0.8146207249999999,-0.28831990625,-0.25021830625,0.035505497625
308,1778428734130,0.9181565333333334,-0.0153125461111111,0.7648176722222222,-0.2846717888888889,-0.2696042166666667,-0.0035208557777777
309,1778428734140,0.90785784,-0.007073583,0.75190365,-0.28602922,-0.26281703,-0.015194826
310,1778428734150,0.9265581266666668,-0.016027358,0.7684188066666667,-0.3088341866666667,-0.2216866466666666,-0.0536782053333333
311,1778428734160,0.9232245875,-0.0399108657499999,0.8038274000000001,-0.3358132775,-0.2003578975,-0.104073105
312,1778428734170,0.9103579875,-0.06485134725,0.816267175,-0.34070005,-0.2037175625,-0.14349184
313,1778428734180,0.9037112666666668,-0.0764577133333333,0.8213690666666666,-0.3270917555555555,-0.16494573,-0.1882766955555555
314,1778428734190,0.910541,-0.07515682,0.8260848,-0.31473905,-0.14309096,-0.21013145
315,1778428734200,0.910541,-0.07515682,0.8260848,-0.31473905,-0.14309096,-0.21013145
316,1778428734210,0.985991275,-0.05195425075,0.8210883,-0.27228516875,-0.1598129174999999,-0.28167695
317,1778428734220,1.005260625,-0.022855753625,0.83904287625,-0.21789112875,-0.2059318875,-0.2980171
318,1778428734230,0.9870393,-0.01420814575,0.8564828775,-0.169586467,-0.229831285,-0.26892549375
319,1778428734240,0.9713067,-0.018049834,0.8722155,-0.120413266,-0.25548688,-0.22295925
320,1778428734250,0.9422670388888889,-0.0383525108888888,0.8894116644444444,-0.0395099366666666,-0.2845360511111111,-0.1494200266666666
321,1778428734260,0.93353006875,-0.04061212725,0.89520468625,-0.002519745,-0.28114244,-0.11781716
322,1778428734270,0.94364248,-0.0314144346666666,0.9222590666666668,0.175644036,-0.2165962566666666,-0.0518456619999999
323,1778428734280,0.967952805,-0.029910282,0.94544385,0.3594072474999999,-0.201426885,-0.0089336413749999
324,1778428734290,0.968924625,-0.0279856295,0.92858689375,0.48088949875,-0.23296187,0.0140494871875
325,1778428734300,0.9329270666666668,0.0164033964444444,0.8565709611111111,0.5496861688888889,-0.3309604277777778,0.0623149033333333
326,1778428734310,0.8919384875,0.04698444875,0.770189755,0.5720584525000001,-0.370249785,0.1395022424999999
327,1778428734320,0.8819823433333334,0.0674328,0.6374558933333333,0.5128317044444445,-0.3330644588888888,0.2339629844444444
328,1778428734330,0.91216070125,0.0623816939999999,0.5609740425,0.34108184375,-0.24678229375,0.2971772
329,1778428734340,0.9626882666666666,0.0237615501666666,0.54218614,0.2453484988888888,-0.2001712622222222,0.30129194
330,1778428734350,0.998659625,-0.0111325093125,0.54741000625,0.17218257,-0.11987877575,0.2694599924999999
331,1778428734360,1.011217475,-0.033904417125,0.57829976125,0.175084095,-0.0503948993749999,0.223188325
332,1778428734370,0.9941230777777778,-0.0262041036666666,0.6024775777777778,0.2023177033333333,-0.0072792631111111,0.1588966366666666
333,1778428734380,0.9630642833333334,-0.0115182873333333,0.5970064155555556,0.2262764822222222,0.0170952388888888,0.1246213277777777
334,1778428734390,0.92682235,-0.0208015175,0.57009423,0.186537475,0.05306735675,0.141182075
335,1778428734400,0.9226148275,-0.0755303175,0.549910135,0.0463480342499999,0.04052589755,0.2028776525
336,1778428734410,0.939902425,-0.12970269,0.52538505625,-0.042606595125,-0.0129041482,0.2318165375
337,1778428734420,0.9351765425,-0.135434735,0.4741892574999999,-0.091092595,-0.08842014,0.199059845
338,1778428734430,0.9283740011111112,-0.1281172211111111,0.4098545488888889,-0.0984227588888889,-0.0954448833333333,0.136091674
339,1778428734440,0.9340789025,-0.1280638725,0.34440272,-0.042301172625,-0.0258560174999999,-0.0320981162499999
340,1778428734450,0.933042245,-0.158454365,0.2543059925,0.034436513875,0.0732253125,-0.1802762975
341,1778428734460,0.91108595625,-0.20208877625,0.220900845,0.08788565,0.23998661,-0.30053684
342,1778428734470,0.86294671,-0.24037988,0.2940720233333333,0.0388142535555555,0.1446096117333333,-0.3342691911111111
343,1778428734480,0.83074963,-0.25160006,0.31358537,0.02741177,0.0010689828,-0.3475721
344,1778428734490,0.80886199125,-0.179244455,0.29849303875,0.068873027375,-0.07391251875,-0.3585673475
345,1778428734500,0.8078520375,-0.08499734425,0.2706484125,0.18310146,-0.0979646275,-0.353222445
346,1778428734510,0.7826507,-0.0067077081111111,0.17432589,0.3512965555555555,-0.0018070888888888,-0.3614179711111111
347,1778428734520,0.7678802,0.010732334075,0.1259829625,0.4156052,0.0619246395,-0.33611872
348,1778428734530,0.7704413,0.0012195833,0.08738314,0.48066044,0.10315683,-0.29442838
349,1778428734540,0.7909608,0.056131326,-0.0046344167,0.5961106,0.102545984,-0.19486028
350,1778428734550,0.7909608,0.056131326,-0.0046344167,0.5961106,0.102545984,-0.19486028
351,1778428734560,0.8374878666666667,0.04653727,-0.0388030788999999,0.6311324866666667,0.0728180833333333,-0.1626380866666666
352,1778428734570,0.8607514,0.041740242,-0.05588741,0.64864343,0.057954133,-0.14652699
353,1778428734580,0.8607514,0.041740242,-0.05588741,0.64864343,0.057954133,-0.14652699
354,1778428734590,0.8607514,0.041740242,-0.05588741,0.64864343,0.057954133,-0.14652699
355,1778428734600,0.8958579914285715,0.0155191995714285,-0.0554692668571428,0.58799503,0.0293206684285714,-0.14636337
356,1778428734610,0.9791357166666664,-0.0483497012222222,-0.0158274826666666,0.2568867333333333,-0.17614459,-0.1508623
357,1778428734620,0.93249345,-0.021220751,-0.005854,0.2540361,-0.3025221,-0.12942326
358,1778428734630,0.9324934499999998,-0.021220751,-0.005854,0.2540361,-0.3025221,-0.12942326
359,1778428734640,0.9324934499999998,-0.021220751,-0.005854,0.2540361,-0.3025221,-0.12942326
360,1778428734650,0.93249345,-0.021220751,-0.005854,0.2540361,-0.3025221,-0.12942326
361,1778428734660,0.9324934499999998,-0.021220751,-0.005854,0.2540361,-0.3025221,-0.12942326
362,1778428734670,0.9512004777777778,0.1020350865555555,-0.1807591888888889,-0.2594064788888889,0.1429806733333333,0.0579711046666666
363,1778428734680,1.0326381777777778,0.0436136535555555,-0.0899747592888889,-0.5629466666666666,0.3688753833333333,0.1098252486666666
364,1778428734690,1.0745444,-0.010488417,0.0031709166,-0.6476508,0.32611609,0.100866154
365,1778428734700,1.0745444,-0.010488417,0.0031709166,-0.6476508,0.32611609,0.100866154
366,1778428734710,1.0745444,-0.010488417,0.0031709166,-0.6476508,0.32611609,0.100866154
367,1778428734720,1.0745444,-0.010488417,0.0031709166,-0.6476508,0.32611609,0.100866154
368,1778428734730,1.0745444,-0.010488417,0.0031709166,-0.6476508,0.32611609,0.100866154
369,1778428734740,1.0151642333333333,0.0438474068888888,-0.1587829755555555,-0.5323364244444444,-0.7375132136666668,-0.0673204608888888
370,1778428734750,1.02252915,0.07308352925,-0.17906532875,-0.6392516475000001,-0.872289885,-0.02954973625
371,1778428734760,1.053781,0.07857166,-0.14473405,-0.79975176,-0.9139802,0.023288552
372,1778428734770,1.053781,0.07857166,-0.14473405,-0.79975176,-0.9139802,0.023288552
373,1778428734780,1.053781,0.07857166,-0.14473405,-0.79975176,-0.9139802,0.023288552
374,1778428734790,1.053781,0.07857166,-0.14473405,-0.79975176,-0.9139802,0.023288552
375,1778428734800,1.053781,0.07857166,-0.14473405,-0.79975176,-0.9139802,0.023288552
376,1778428734810,0.9806567883333334,-0.0198944531666666,-0.1902448416666666,0.264916815,0.1058929083333333,-0.3194603863333333
377,1778428734820,0.97886807,-0.045155074,-0.2128173,0.53136075,0.34505233,-0.3891097
378,1778428734830,0.99413190125,-0.057198455875,-0.2382760875,0.61038913125,0.4496599175,-0.3879643625
379,1778428734840,1.0032902,-0.064424485,-0.25355136,0.65780616,0.51242447,-0.38727716
380,1778428734850,1.0032902,-0.064424485,-0.25355136,0.65780616,0.51242447,-0.38727716
381,1778428734860,0.89226622125,0.0244374031249999,-0.082695372625,0.817466365,0.70904094625,-0.24974107875
382,1778428734870,0.85245824,0.06832716,-0.018537667,0.86427253,0.68101835,-0.11354123
383,1778428734880,0.924695765,0.0823523637499999,0.0123863938749999,0.843045545,0.591071075,-0.00786465825
384,1778428734890,0.97405837,0.07826676,0.04783815875,0.8246437750000001,0.5515950749999999,0.037643462
385,1778428734900,1.0342829,0.0679612775,0.059302242,0.7888329,0.34902285625,0.0636808262499999
386,1778428734910,1.0575235749999998,0.06668071625,0.0309393055,0.7567634,0.18867545,0.0678804
387,1778428734920,1.0547566,0.07344941,-0.011708,0.65658444,0.051845662,0.06910209
388,1778428734930,1.0423169,0.076010535,-0.035749035,0.56190313375,-0.02417618925,0.09009997125
389,1778428734940,1.025893188888889,0.0624460555555555,-0.0852353227777777,0.3468170055555555,-0.1638597755555555,0.12170284
390,1778428734950,1.0367677375,0.01719612475,-0.12836495625,0.183177819625,-0.2016559475,0.10804361175
391,1778428734960,1.0227493333333333,-0.0210174861111111,-0.19223004,-0.0473830824444444,-0.21109863,0.0740567495555555
392,1778428734970,1.0110955,-0.02930049,-0.21867129,-0.13263021,-0.22250111,0.06482617
393,1778428734980,1.0046317375,-0.03744120775,-0.241477515,-0.26204393,-0.31748785625,0.0421484605
394,1778428734990,1.0084395555555554,-0.04174024,-0.2543373388888889,-0.4062304055555555,-0.4099633488888889,0.0013659224444444
395,1778428735000,1.0284136333333334,-0.0286060044444444,-0.2383472522222222,-0.5202552222222222,-0.4430169611111111,-0.0754650891111111
396,1778428735010,1.0402131,-0.0192694160875,-0.2270216474999999,-0.5499915912500001,-0.43606857375,-0.12049916625
397,1778428735020,1.043861666666667,-0.0023578611333333,-0.1898586333333333,-0.5568381677777778,-0.3874298733333333,-0.2418955133333333
398,1778428735030,1.00516911,-0.01784783975,-0.15819901625,-0.450728925,-0.28587650875,-0.397585225
399,1778428735040,0.97206548,-0.0368348042222222,-0.13838883,-0.3469782211111111,-0.2031576161111111,-0.4623435
400,1778428735050,0.96179392,-0.0630829465,-0.127995273,-0.1961487845,-0.073673905625,-0.5034144500000001
401,1778428735060,0.9729870133333332,-0.066890756,-0.1244313768888888,0.0757365753333333,0.1116408188888888,-0.5248535333333334
402,1778428735070,1.00015363625,-0.04481587695,-0.13598735125,0.2473931375,0.194554855,-0.5367056875
403,1778428735080,1.039481433333333,0.0086285522666666,-0.1439108366666666,0.3659568911111111,0.3047364277777777,-0.5114827788888889
404,1778428735090,1.0913823,0.0318616152499999,-0.12238519,0.403006465,0.3788780025,-0.45263781
405,1778428735100,1.124882775,0.03014657625,-0.0939003004999999,0.374983865,0.311455745,-0.381321405
406,1778428735110,1.1513274,0.0324273644444444,-0.0562397333333333,0.3152565666666667,0.0612459211111111,-0.255469891111111
407,1778428735120,1.1496470666666667,0.0387861372222222,-0.0634217255555555,0.2809133766666666,-0.1422765066666666,-0.1767130233333333
408,1778428735130,1.14576815,0.0413743649999999,-0.081380514375,0.2398339175,-0.3165715799999999,-0.1005607325
409,1778428735140,1.1404324,0.04905774,-0.1027499,0.20455748,-0.422859,-0.0432938
410,1778428735150,1.127070325,0.04735032475,-0.1471503575,0.121634960375,-0.5721348,0.0164928763124999
411,1778428735160,1.1125954,0.040764574,-0.18815123,0.015805673,-0.6849125,0.0458899
412,1778428735170,1.08136645,0.0192084385,-0.2189152225,-0.124861,-0.7840224525,0.090176329
413,1778428735180,1.0439328625,-0.008598062375,-0.24059330125,-0.22379916125,-0.8512920212499999,0.12827792525
414,1778428735190,1.0163804333333333,-0.0113556756666666,-0.2548861377777778,-0.3196258255555555,-0.9311518066666667,0.1936470688888888
415,1778428735200,1.00487575,0.0033538542499999,-0.274985555,-0.421026465,-1.046534125,0.306874375
416,1778428735210,1.0145917,0.0163424168888888,-0.2835023177777778,-0.494871111111111,-1.1685678000000002,0.4054074333333333
417,1778428735220,1.0048071575000002,0.02519201775,-0.294315975,-0.5347967849999999,-1.306449575,0.481118575
418,1778428735230,0.97267870625,0.030142764375,-0.3112376625,-0.552511355,-1.454274575,0.569996875
419,1778428735240,0.9598425833333332,0.0158545833333333,-0.3136768233333333,-0.529757288888889,-1.5513653777777778,0.6268056333333333
420,1778428735250,0.95231165625,-0.00548812525,-0.33123883375,-0.4957025575,-1.5588822,0.6258893400000001
421,1778428735260,0.94067985,-0.00975666715,-0.3629022699999999,-0.468672565,-1.3944116,0.5785487300000001
422,1778428735270,0.92574501,0.0133442731333333,-0.3725014133333333,-0.4882875444444445,-1.2103090111111112,0.5564224733333334
423,1778428735280,0.9051747225,0.053692155,-0.3528178549999999,-0.570378625,-0.838387825,0.557321755
424,1778428735290,0.91023983,0.07055289925,-0.2829967075,-0.634059425,-0.6858287375000001,0.62863816
425,1778428735300,0.9748942933333332,0.043762716,-0.1621232799999999,-0.6390989444444445,-0.8082357722222222,0.679949341111111
426,1778428735310,1.0230476,0.020489,-0.10616472,-0.6134434,-1.0153809,0.69277716
427,1778428735320,1.0724145142857142,-0.0139468065714285,-0.0650909034285714,-0.5217290071428572,-1.3504742857142855,0.6672961
428,1778428735330,1.0687107555555555,-0.0415505274444444,-0.0516866202222222,-0.3752129333333334,-1.8261788,0.56918236
429,1778428735340,1.0091403875,-0.042163283625,-0.06214158475,-0.2869455125,-2.1291844875,0.4609606025
430,1778428735350,0.9640941333333336,-0.0193507231111111,-0.092288582,-0.282975,-2.1092047,0.3883715933333333
431,1778428735360,0.92605624625,-0.006433302125,-0.114911435,-0.3086306,-1.9646375,0.3378749
432,1778428735370,0.8769375912499999,-0.025767509875,-0.088271155,-0.227826935,-1.7719152,0.20547375
433,1778428735380,0.81266934,-0.06100966,-0.14250831,-0.11735903,-1.7380131,0.13996038
434,1778428735390,0.80718886,-0.1057378825,-0.3610119175,0.1367534305,-1.189472265,0.117359031
435,1778428735400,0.88457141,-0.110646705,-0.43825728375,0.23937577,-0.75699246,0.122856654
436,1778428735410,0.9983814,-0.1027499,-0.43953782,0.3502106233333333,-0.0364472199999999,0.0486047754444444
437,1778428735420,1.0351404625,-0.10412192875,-0.4033886325,0.4281276,0.38170317,-0.014583978
438,1778428735430,1.0596858777777778,-0.1009611722222222,-0.33140146,0.5231482577777777,0.6662223077777778,-0.0607368864444444
439,1778428735440,1.0478965125000002,-0.0637232299999999,-0.28577888,0.60252447,0.82983603125,-0.0870457325
440,1778428735450,1.0401217,-0.03491057,-0.27480263,0.64620006,0.9528454,-0.08299887
441,1778428735460,1.0530263375,-0.00680298795,-0.2185760175,0.6467345287499999,1.064783075,-0.057801421375
442,1778428735470,1.0689817333333334,0.0079679449888888,-0.1649791322222222,0.6672403177777777,1.1217107,-0.0318913171888888
443,1778428735480,1.0554883,0.0102445,-0.18546814,0.612298,1.07562565,0.00649025265
444,1778428735490,1.0864964,0.011220166,-0.24745347,0.5698441,1.066463,0.01718008
445,1778428735500,1.0818618999999998,-0.019040745,-0.24062381,0.222272043,1.0136247,-0.0240521105
446,1778428735510,1.045044088888889,-0.0426346024444444,-0.1444494911111111,0.0630445293333333,0.9174162333333334,-0.038203405
447,1778428735520,1.0055389375,-0.0392324739999999,-0.066756943325,-0.042835664,0.8233457,-0.046348035
448,1778428735530,0.9495404822222222,-0.0079679446666666,0.0037705448444444,-0.1512271255555555,0.6617427288888889,-0.026122204
449,1778428735540,0.9081830933333332,0.0371668026666666,0.047350321,-0.2132875066666666,0.5130353433333333,0.0517947573333333
450,1778428735550,0.8933752899999999,0.06588799,0.0341673893749999,-0.25877017375,0.38323028875,0.15492613875
451,1778428735560,0.8911292422222221,0.0686794822222222,-0.0106849057777777,-0.2696042299999999,0.3794634044444444,0.2098005855555555
452,1778428735570,0.87953305,0.06564408,-0.048082076,-0.28480753,0.446453,0.24685864
453,1778428735580,0.8903758937499999,0.0432342318749999,-0.054027544125,-0.33940201125,0.4842491874999999,0.2586938025
454,1778428735590,0.9430699266666668,-0.0085133687777777,-0.0403038401111111,-0.5801182444444444,0.4911805955555555,0.26280855
455,1778428735600,0.96716005,-0.03491057,-0.028812656,-0.7404996,0.48615807,0.2578539
456,1778428735610,0.96716005,-0.03491057,-0.028812656,-0.7404996,0.48615807,0.2578539
457,1778428735620,0.96716005,-0.03491057,-0.028812656,-0.7404996,0.48615807,0.2578539
458,1778428735630,0.9433375733333336,-0.0169691481111111,0.1418239889444444,-0.9183918666666666,0.6535301955555556,0.1772220644444444
459,1778428735640,0.9376157,-0.013903251,0.15790555,-0.9231429,0.6639146,0.16928105
460,1778428735650,0.8918813157142856,-0.0081929878571428,0.2429017985714285,-0.8083908857142857,0.6293581042857143,0.15252638
461,1778428735660,0.8692885,-0.05808266,0.40731034,-0.6824691,0.4843255299999999,0.14362547
462,1778428735670,0.8692885,-0.05808266,0.40731034,-0.6824691,0.48432553,0.14362547
463,1778428735680,0.89547145,0.0054309565,0.3044537275,-0.661853,0.1470996577,0.1787491825
464,1778428735690,0.8990769,0.021220751,0.20184104,-0.6592569,0.0071774554,0.19982341
465,1778428735700,0.8990769,0.021220751,0.20184104,-0.6592569,0.0071774554,0.19982341
466,1778428735710,0.8903530562499999,-0.04475489975,0.14496653375,-0.6907919124999999,0.027039536225,0.20631365625
467,1778428735720,0.856117,-0.12104365,0.19351739,-0.706903,0.18439952,0.19371493
468,1778428735730,0.856117,-0.12104365,0.19351739,-0.706903,0.18439952,0.19371493
469,1778428735740,0.8941883333333335,-0.1513096366666666,0.26494433,-0.6640079466666666,0.3607986211111111,0.2112937622222222
470,1778428735750,0.926578425,-0.1173925175,0.322267295,-0.612068965,0.46493112,0.207459
471,1778428735760,0.9351527611111112,-0.08685466,0.3378720277777778,-0.5811363277777777,0.4862938055555555,0.2103435599999999
472,1778428735770,0.9532568375,-0.0697296825,0.355813435,-0.50349085125,0.482340275,0.23143475875
473,1778428735780,0.9525251,-0.07979124,0.35288644,-0.46378577,0.4647784,0.23830679
474,1778428735790,0.9525251,-0.07979124,0.35288644,-0.46378577,0.4647784,0.23830679
475,1778428735800,1.0129656,-0.0908928333333333,0.3074738977777778,-0.3989002333333333,0.3078585411111111,0.1804120455555555
476,1778428735810,1.004616575,-0.138133065,0.30126758,-0.40117393,0.301071345,0.140571225
477,1778428735820,0.9825878375,-0.1736381875,0.329455205,-0.3843756325,0.3326826875,0.138891395
478,1778428735830,0.958623005,-0.18940129,0.3935595525,-0.33016295625,0.372235045,0.1613400325
479,1778428735840,0.96886754,-0.17937022,0.41170084,-0.2585411,0.37009707,0.18699561
480,1778428735850,0.975213185,-0.17644321875,0.415363405,-0.23020351425,0.38002334125,0.17752747875
481,1778428735860,1.0196327,-0.15595421,0.44100136,-0.0051158454999999,0.4522560499999999,0.0972010725
482,1778428735870,1.0335358,-0.1703453,0.43197644,0.10369132625,0.46325129375,0.0378725304375
483,1778428735880,1.0346198777777778,-0.1695593477777777,0.4241643266666666,0.1658026155555555,0.4740768633333334,0.0020446413333333
484,1778428735890,1.03646285,-0.164979145,0.36197232,0.3111503175,0.5550310775,-0.0643680305
485,1778428735900,1.0159739,-0.17010139,0.36288702,0.40186113,0.6480326,-0.09093989
486,1778428735910,1.0241489125,-0.18022774125,0.37338306375,0.4075114675,0.6753680125,-0.0949867525
487,1778428735920,1.081374,-0.2511122,0.44685537,0.44706383,0.8667159,-0.12331479
488,1778428735930,1.1001556,-0.22915971,0.513719,0.43118182,0.86732674,-0.14469445
489,1778428735940,1.1045528888888887,-0.20589277,0.5330832888888889,0.4375617755555556,0.833119308888889,-0.1593717522222222
490,1778428735950,1.1219557249999998,-0.1150371975,0.607992825,0.46279314,0.6967477,-0.2157817974999999
491,1778428735960,1.13652975,-0.10323773,0.623237575,0.47019965375,0.6352811549999999,-0.23471805625
492,1778428735970,1.1701902,-0.11494574,0.6332992,0.46111333,0.55457294,-0.26144263
493,1778428735980,1.1519235888888888,-0.1278191166666666,0.6490453333333334,0.4007073166666666,0.4080374755555555,-0.3022336488888889
494,1778428735990,1.11822075,-0.1200679825,0.64000685,0.33169005375,0.288625325,-0.31733515125
495,1778428736000,1.1011313,-0.112994395,0.6303721,0.30534726,0.2577012,-0.30969957
496,1778428736010,1.1017546111111112,-0.0874305761111111,0.6452035777777777,0.2223399177777777,0.1998064411111111,-0.2716234133333333
497,1778428736020,1.1082048,-0.06369274,0.6655266,0.19356222,0.15202461,-0.25044736
498,1778428736030,1.1004538,-0.0752923366666666,0.6964227777777778,0.1760512755555555,0.0901084556666666,-0.2254705044444444
499,1778428736040,1.0877769,-0.0884579075,0.709866115,0.1471378375,0.0158820275,-0.196998245
500,1778428736050,1.0850328,-0.0983594,0.71775526,0.1345391075,-0.052609221,-0.19409672125
501,1778428736060,1.0679822555555556,-0.1262743011111111,0.6970189666666666,0.1383823533333333,-0.13107764,-0.2343617299999999
502,1778428736070,1.0486587,-0.13689823,0.6816251,0.1428619,-0.14370182,-0.26571855
503,1778428736080,1.0113564311111112,-0.1341338466666666,0.6576569555555556,0.1291517753333333,-0.1784522433333333,-0.3415314922222222
504,1778428736090,0.9830146575,-0.1175678337499999,0.6381775000000001,0.1126249655,-0.1915006175,-0.389415135
505,1778428736100,0.945688672222222,-0.0817662858888888,0.6112856888888889,0.108247226,-0.1520500633333333,-0.4377738733333334
506,1778428736110,0.906943175,-0.0589363626249999,0.59107109125,0.1191915725,-0.067345910625,-0.4668400125
507,1778428736120,0.8857681500000001,-0.0667417015,0.564971965,0.09918632,0.07563052875,-0.448667325
508,1778428736130,0.9002761,-0.084029295,0.5751453333333333,0.0665738653333333,0.1482916611111111,-0.4178195511111111
509,1778428736140,0.9315177,-0.094456725,0.6067122,0.017638214,0.18439952,-0.37506023
510,1778428736150,1.0108788444444443,-0.0647700411111111,0.6837458555555556,0.0060999894222222,0.1312558088888889,-0.3428210444444445
511,1778428736160,1.0484961999999998,-0.0086183886666666,0.7160377099999999,0.1069576644444444,0.0339105072888888,-0.3468933644444444
512,1778428736170,1.0586167,0.01053720054,0.6955283720000001,0.198815516,0.00119115224,-0.361255062
513,1778428736180,1.060389575,0.001341541775,0.670648905,0.262435255,0.003970507,-0.3707842775
514,1778428736190,1.0457318,-0.006341833,0.6604044,0.28030252,0.010842538,-0.35245886
515,1778428736200,1.0336714111111112,0.0105426212777777,0.6688974244444444,0.27785915,0.010231691,-0.28770906
516,1778428736210,1.0223767625,0.030401927875,0.6940686975,0.214178325,-0.0510057456249999,-0.1753036275
517,1778428736220,1.0075688777777776,0.0520965355555555,0.7191916666666667,0.1267762611111111,-0.1975921199999999,-0.04736612
518,1778428736230,0.96023895,0.1066830575,0.69749877375,0.0184781295,-0.4188885175,0.1009425087499999
519,1778428736240,0.9478907,0.12787332,0.66820973,-0.091092594,-0.6177193,0.22120306
520,1778428736250,0.9628000875,0.160950705,0.60085445375,-0.20391800025,-0.780281025,0.28793812
521,1778428736260,0.96139760625,0.17647371625,0.56878315,-0.3605526025,-1.022863725,0.31542625
522,1778428736270,0.96716005,0.16302781,0.5800948,-0.41186377,-1.1479347,0.25357798
523,1778428736280,0.9739897625,0.07540836575,0.626042615,-0.316542955,-1.267508025,0.0675749799999999
524,1778428736290,0.93875143625,-0.046915846875,0.61195265,-0.113770303,-1.2708676625,-0.10448351375
525,1778428736300,0.8133231944444445,-0.1252715355555555,0.4754512022222222,0.081777178,-1.0776872666666666,-0.1516937366666667
526,1778428736310,0.7354621375,-0.141685095,0.4031294475,0.21005510375,-0.8575531750000001,-0.144761258125
527,1778428736320,0.60370137375,-0.12680618125,0.29362231125,0.28610557375,-0.59275092625,-0.064520741875
528,1778428736330,0.53323233,-0.1144579,0.2367211299999999,0.3352787866666666,-0.1155773933333333,0.2346417
529,1778428736340,0.53323233,-0.1144579,0.23672113,0.3267269,0.14713784,0.42889112
530,1778428736350,0.53323233,-0.1144579,0.2367211299999999,0.3267269,0.14713784,0.42889112
531,1778428736360,0.5490945225,-0.116165315,0.21835878,0.3267269,0.14713784,0.42889112
532,1778428736370,0.8774025475,0.0086018736375,0.18218669375,0.28686915125,0.5832827575,0.6139778650000001
533,1778428736380,0.9437136,0.050277323,0.23013538,0.34993914,0.6437566,0.5834355
534,1778428736390,0.9871612025,0.01255789775,0.2555255837499999,0.49745871875,0.60634221875,0.3847574275
535,1778428736400,0.9384389333333332,-0.0717521556666666,0.109173038,0.5043477566666666,0.558713138888889,0.2723784911111111
536,1778428736410,0.8751426,-0.122507155,-0.012683666,0.46111333,0.5454103,0.21204035
537,1778428736420,0.79382680625,-0.15811898875,-0.13144440625,0.35222980125,0.760733915,0.27831727625
538,1778428736430,0.8087768666666667,-0.1391138033333333,-0.14260995,0.28091339,1.018206,0.3498882133333333
539,1778428736440,0.859478475,-0.08865608375,-0.086758115,0.28610559375,1.2572763375,0.40086851125
540,1778428736450,0.9090774,-0.050033405,-0.02268425,0.3212293,1.3584479,0.41728503
541,1778428736460,0.9090774,-0.050033405,-0.02268425,0.3212293,1.3584479,0.41728503
542,1778428736470,0.9090774,-0.050033405,-0.02268425,0.3212293,1.3584479,0.41728503
543,1778428736480,1.058952825,-0.268300730625,0.12500728875,0.58068668,0.99216865625,0.120871402125
544,1778428736490,1.050362788888889,-0.3223629766666667,0.1382702577777778,0.7429853866666667,0.7077598722222223,0.0320440283333333
545,1778428736500,0.996151825,-0.2702825375,0.060975361625,0.8589276,0.491121205,0.023746687375
546,1778428736510,0.939284925,-0.1783259625,-0.04129814275,0.8856522,0.41468894,0.06543701
547,1778428736520,0.9207311555555556,-0.1109312705555555,-0.1009882833333333,0.7933463599999999,0.3323602911111111,0.1657517155555555
548,1778428736530,0.9378596,-0.076864235,-0.13762999,0.6999546,0.26991814,0.19615832
549,1778428736540,0.9753956355555556,-0.043908387,-0.1818873055555555,0.5388945555555557,0.2219326811111111,0.1928326044444444
550,1778428736550,0.98008764,-0.039788906,-0.18741947,0.4928774,0.20822255,0.1918824
551,1778428736560,0.98008764,-0.039788906,-0.18741947,0.4928774,0.20822255,0.1918824
552,1778428736570,1.00531778,-0.0161137435,-0.15487184,0.2560786425,0.06778495125,0.158743935
553,1778428736580,1.081618,0.073937245,-0.07125416,-0.61099994,-0.5120427,0.08803836
554,1778428736590,1.081618,0.073937245,-0.07125416,-0.61099994,-0.5120427,0.08803836
555,1778428736600,1.06239815,0.036690405625,-0.1360254625,-0.8220476999999999,-0.6352811375,0.16989189625
556,1778428736610,1.027682,-0.03881324,-0.2616311,-1.3495144,-0.9475768,0.3818559
557,1778428736620,1.027682,-0.03881324,-0.2616311,-1.3495144,-0.9475768,0.3818559
558,1778428736630,1.027682,-0.03881324,-0.2616311,-1.3495144,-0.9475768,0.3818559
559,1778428736640,0.96530403625,-0.16811194125,-0.131150942,-1.407697525,-0.66681614375,0.41552885125
560,1778428736650,0.95642775,-0.13275166,-0.029544408,-1.3702831,-0.5725166,0.42766944
561,1778428736660,0.976707125,-0.16208262875,0.062412181875,-0.6239041187500001,-0.360552595,0.297558975
562,1778428736670,1.0401217,-0.1776628,0.06881499,-0.35505497,-0.49310645,0.1778329
563,1778428736680,1.0401217,-0.1776628,0.06881499,-0.35505497,-0.49310645,0.1778329
564,1778428736690,1.1409736,-0.1123846065,-0.0554529324999999,-0.05514805375,-0.6428404,-0.082473925
565,1778428736700,1.1833923,-0.081010826,-0.1232388999999999,0.13797513,-0.6617003,-0.31336465
566,1778428736710,1.1833923,-0.081010826,-0.1232389,0.13797513,-0.6617003,-0.31336465
567,1778428736720,1.1564225444444445,-0.091499239,-0.1245668893333333,0.2269552111111111,-0.5072916822222222,-0.4613933099999999
568,1778428736730,1.0925941,-0.09616415,-0.107628234,0.3029039,-0.3697153,-0.52655035
569,1778428736740,1.0925941,-0.09616415,-0.107628234,0.3029039,-0.3697153,-0.52655035
570,1778428736750,1.0925941,-0.09616415,-0.107628234,0.3029039,-0.3697153,-0.52655035
571,1778428736760,1.0925941,-0.09616415,-0.107628234,0.3029039,-0.3697153,-0.52655035
572,1778428736770,1.0925941,-0.09616415,-0.107628234,0.3029039,-0.3697153,-0.52655035
573,1778428736780,1.0925941,-0.09616415,-0.107628234,0.3029039,-0.3697153,-0.52655035
574,1778428736790,1.0925941,-0.09616415,-0.107628234,0.3029039,-0.3697153,-0.52655035
575,1778428736800,1.0925941,-0.09616415,-0.107628234,0.3029039,-0.3697153,-0.52655035
576,1778428736810,1.0925941,-0.09616415,-0.107628234,0.3029039,-0.3697153,-0.52655035
577,1778428736820,1.0759086875,-0.09771911875,-0.09435764225,0.32466533125,-0.38628453125,-0.5159368787499999
578,1778428736830,0.9707104622222222,-0.0127107691111111,-0.1940594255555555,0.5024473266666667,0.5374692155555555,-0.26748323
579,1778428736840,0.9698432,-0.013659334,-0.19571264,0.48432553,0.54296684,-0.2791572
580,1778428736850,0.954659375,-0.026304889,-0.22317614,0.248843905,0.3702497899999999,-0.3350497125
581,1778428736860,0.9507364133333334,-0.0318209626666666,-0.2619461666666666,0.17035003,0.31267744,-0.35368055
582,1778428736870,0.95130557,-0.032471407,-0.27675393,0.17035003,0.31267744,-0.35368055
583,1778428736880,0.95130557,-0.032471407,-0.27675393,0.17035003,0.31267744,-0.35368055
584,1778428736890,0.9514918877777778,-0.0316007597777777,-0.2751278266666666,0.0554343888888889,0.30806215,-0.3209578038888889
585,1778428736900,0.9676479,-0.039788906,-0.25772846,-0.58106846,0.27785915,-0.087274805
586,1778428736910,0.9500859,-0.03539841,-0.26260677,-0.7264501,0.19172968,-0.01641652
587,1778428736920,0.9422081775,-0.0299903189999999,-0.2686437075,-0.7562288875000001,0.14843588125,-0.0065666078125
588,1778428736930,0.922926487777778,-0.0243916673333333,-0.2799519688888889,-0.8699992066666666,0.09216158,0.021048779
589,1778428736940,0.9114556,-0.028911748,-0.2425294025,-0.8854230875,0.1506502075,0.0130568606
590,1778428736950,0.9053577125,-0.0377765944999999,-0.18467541,-0.8506047875,0.1763057875,-0.00450499845
591,1778428736960,0.919352375,-0.040703594375,-0.148442355,-0.7857023,0.1825669775,-0.013820419
592,1778428736970,0.935088775,-0.045368499375,-0.12756460675,-0.727061,0.19722731,-0.011529742
593,1778428736980,0.9574305444444444,-0.0532856313333333,-0.0608944768222222,-0.521748371111111,0.2382898133333333,-0.0159414162222222
594,1778428736990,0.970270025,-0.0355203645,0.010557018725,-0.3416163325,0.2685437125,-0.02008160275
595,1778428737000,1.007958975,-0.04247199,0.05238110625,-0.21477962,0.29641362625,-0.0206160941249999
596,1778428737010,1.068666711111111,-0.0566462584444444,0.0747231949999999,-0.0712061235555555,0.3262518155555555,-0.0422078477777777
597,1778428737020,1.1062536,-0.052472573,0.08344999,0.017638214,0.3652103,-0.059786674
598,1778428737030,1.1257872666666668,-0.043528963,0.0875355966666666,0.1015279082222222,0.3878116633333333,-0.0644019626666666
599,1778428737040,1.169458475,-0.04131338725,0.07418116,0.16958646875,0.28595286375,-0.06803311075
600,1778428737050,1.1660165555555553,-0.0478381565555555,0.0581334755555555,0.2009602611111111,0.1476044597777778,-0.0755329571111111
601,1778428737060,1.140401875,-0.062351199375,-0.0055910272499999,0.2331909449999999,-0.01030804875,-0.08903098875
602,1778428737070,1.11944795,-0.07076632375,-0.0569316745,0.2606027199999999,-0.0702474375,-0.098422766
603,1778428737080,1.1055218,-0.072229825,-0.09518848,0.28213507,-0.07711947,-0.102545984
604,1778428737090,1.0767397,-0.05198474,-0.12787332,0.29496288,-0.13759334,-0.08971819
605,1778428737100,1.063934,-0.05485076075,-0.1393373875,0.312524715,-0.2258607725,-0.06329905125
606,1778428737110,1.062440025,-0.0482650125,-0.1395508275,0.33344624,-0.22708247125,-0.041995748375
607,1778428737120,1.072132277777778,-0.0407645752222222,-0.1112056811111111,0.3806851,-0.23675421,-0.0011453386666666
608,1778428737130,1.0816485125000002,-0.0479906065,-0.0971398193749999,0.41163468125,-0.29412293875,0.021226942
609,1778428737140,1.0938139,-0.06271707,-0.102262065,0.44584215,-0.41064206,0.03245126
610,1778428737150,1.075173225,-0.0838577885,-0.194634063125,0.495855265,-0.5669425975,0.04245388375
611,1778428737160,1.0417071,-0.0999448595,-0.2993314775,0.56678992,-0.630088945,0.0797919225
612,1778428737170,1.0067927875,-0.11073816825,-0.39377679,0.59771408375,-0.5751890825,0.12446013
613,1778428737180,0.96816288,-0.1081905968888888,-0.5054631211111111,0.5278992866666666,-0.39211304,0.2293476866666667
614,1778428737190,0.968596915,-0.07021369525,-0.5888186625,0.375441994375,-0.20211408575,0.3251234475
615,1778428737200,1.0180776875,-0.0116127198749999,-0.62146155625,0.015948838125,0.06139969475,0.41186376625
616,1778428737210,1.0547295,0.0789036566666666,-0.5250950055555555,-0.501929788888889,0.2142631555555555,0.4829171922222222
617,1778428737220,1.0687018375,0.105951305625,-0.3796715175,-0.7594358250000001,0.13383280825,0.5189911199999999
618,1778428737230,1.0994925000000002,0.10627907375,-0.206521195,-1.0673028,-0.061848287,0.5602233
619,1778428737240,1.1172603,0.080279075,-0.11811664,-1.1324598666666668,-0.2388582363333333,0.5336175222222221
620,1778428737250,1.0922856125,0.0192084377499999,-0.0478343455,-1.091354975,-0.4156815625,0.44897274
621,1778428737260,1.0446476444444446,-0.0212275265555555,-0.0015990097777777,-0.8873744111111111,-0.5651864222222223,0.28602074
622,1778428737270,1.021248575,-0.079040435,0.0128970936875,-0.5709894675,-0.70232165,0.07704311075
623,1778428737280,1.0214620625,-0.1230254675,-0.0072565211875,-0.327395035,-0.6259657125,-0.09798372025
624,1778428737290,1.009876,-0.12592198,-0.013659334,-0.17241163075,-0.44515494125,-0.27930991625
625,1778428737300,0.9839903,-0.11128698,-0.015610667,-0.104531236,-0.26342788,-0.41293275
626,1778428737310,0.9716589888888888,-0.1013948072222222,0.0046886205555555,-0.0953006555555555,-0.1864611322222222,-0.4535201455555556
627,1778428737320,0.9714896,-0.09860331375,0.018903542125,-0.08452599,-0.28160059125,-0.381703195
628,1778428737330,0.9733393222222224,-0.093697877,0.0150415284444444,-0.0465007477777777,-0.3674076644444444,-0.3187944055555556
629,1778428737340,0.9744776,-0.097871564,0.012195834,0.05612159,-0.4369085,-0.21562909
630,1778428737350,0.9676479,-0.1205558166666666,0.0417944437777777,0.2021140844444444,-0.4187188133333333,-0.1917381777777777
631,1778428737360,0.9412401125,-0.11543356625,0.025576950125,0.30473644,-0.39048412,-0.22540264
632,1778428737370,0.918041375,-0.105829345,-0.019033122375,0.3673482675,-0.32581065,-0.2779355062499999
633,1778428737380,0.9061504666666668,-0.0941789377777777,-0.10047334,0.42222271,-0.11823288,-0.3574813955555556
634,1778428737390,0.93591971375,-0.069760165,-0.1397642575,0.38368843,0.2034884925,-0.4094203775
635,1778428737400,0.980487069,-0.03631614291,-0.11030217,0.2980171,0.5099811,-0.44836187
636,1778428737410,1.0218279,0.0036587503,-0.04369157,0.2980171,0.5099811,-0.44836187
637,1778428737420,1.0588829555555554,0.0837074565555555,0.0474959983333333,0.0639268616666666,1.0746755,-0.4449683044444444
638,1778428737430,1.0784471,0.17595538,0.1198240699999999,-0.06336013,1.0227263,-0.3451287019999999
639,1778428737440,1.0784471,0.17595538,0.11982407,-0.13812783,0.9235247,-0.21074231
640,1778428737450,1.1352559666666666,0.1249700244444444,0.1767989377777777,-0.2189717755555555,0.7840478933333334,-0.0280904912066666
641,1778428737460,1.1328709,0.04905774,0.21671996,-0.28847262,0.67979664,0.00068720314
642,1778428737470,1.1328709,0.04905774,0.21671996,-0.28847262,0.67979664,0.00068720314
643,1778428737480,1.1877996777777775,-0.0242798724444444,0.2958370511111111,-0.5474718444444444,0.5501612844444445,-0.1010018969844444
644,1778428737490,1.1450576099999998,-0.0305841032,0.384101674,-0.5851000479999999,0.627019428,-0.213552204
645,1778428737500,1.0955212,0.00512225,0.43417168,-0.51082104,0.6162685,-0.3323009
646,1778428737510,1.0955212,0.00512225,0.43417168,-0.51082104,0.6162685,-0.3323009
647,1778428737520,0.968230295,0.0719127287999999,0.469198085,-0.2390474439999999,0.329231395,-0.412321896
648,1778428737530,0.91419965,0.049301658,0.46392953,-0.19004986,0.10987615,-0.31886226
649,1778428737540,0.91419965,0.049301658,0.46392953,-0.19004986,0.10987615,-0.31886226
650,1778428737550,0.8130758611111111,-0.0648310211111111,0.3737718155555555,-0.040528022,-0.2958706622222222,-0.1212786411111111
651,1778428737560,0.793156,-0.08076691,0.30846313,0.04023956,-0.16996825,-0.10560022
652,1778428737570,0.793156,-0.08076691,0.30846313,0.04023956,-0.16996825,-0.10560022
653,1778428737580,0.7741076499999999,-0.04417940725,0.3007797325,0.05810684,0.1068028175,-0.134462755
654,1778428737590,0.7762241444444444,0.0116063672777777,0.3198729977777778,0.0456014444444444,0.2213218355555555,-0.1593547777777778
655,1778428737600,0.7870581,0.041008487,0.33264136,0.02985516,0.20089239,-0.17042638
656,1778428737610,0.7870581,0.041008487,0.33264136,0.02985516,0.20089239,-0.17042638
657,1778428737620,0.7870581,0.041008487,0.33264136,0.02985516,0.20089239,-0.17042638
658,1778428737630,0.7792527666666667,0.0348292663333333,0.3383327533333333,-0.0222704733333333,0.0917034453333333,-0.1422765066666666
659,1778428737640,0.7643806333333334,-0.0047902516666666,0.3577918777777777,-0.0535594271111111,0.0860531068888888,-0.1186995024444444
660,1778428737650,0.7414152,-0.049301658,0.34434935,-0.06543701,0.23998661,-0.12820157
661,1778428737660,0.7147232722222223,-0.0259432485111111,0.3513179333333334,-0.0990336151111111,0.4201865622222222,-0.1082472255555555
662,1778428737670,0.70918775,0.0041465834,0.3792599,-0.153399025,0.5496862,-0.0735307375
663,1778428737680,0.74091596875,0.022764285025,0.382003975,-0.19554748,0.6193228,-0.04512634
664,1778428737690,0.7599529,0.033934906,0.38365042,-0.19554748,0.6193228,-0.04512634
665,1778428737700,0.78917064,0.0219655672857142,0.4714647957142857,-0.2594682828571429,0.6798839428571428,-0.0108316304285714
666,1778428737710,0.8041323,-0.002927,0.5927785,-0.28725094,0.6675797,0.044668205
667,1778428737720,0.8041323,-0.002927,0.5927785,-0.28725094,0.6675797,0.044668205
668,1778428737730,0.8041323,-0.002927,0.5927785,-0.28725094,0.6675797,0.044668205
669,1778428737740,0.85537384375,-0.046241265625,0.6289277125,-0.1520532525,0.6118398875,0.133622833125
670,1778428737750,0.9128140722222222,-0.0828673027777777,0.6508340444444445,-0.0364557050222222,0.5691654222222222,0.1639191611111111
671,1778428737760,0.9715506,-0.10177423,0.6418362,0.04573719,0.550297,0.06543701
672,1778428737770,0.96203786,-0.08689531,0.6169567,0.05245651,0.5771743,-0.044515494
673,1778428737780,0.96203786,-0.08689531,0.6169567,0.05245651,0.5771743,-0.044515494
674,1778428737790,0.9404715533333334,-0.06932315,0.6474564633333333,0.0392214853333333,0.59102018,-0.106007448
675,1778428737800,0.9376157,-0.090554066,0.69308925,0.028633466,0.6016082,-0.1416402
676,1778428737810,0.9633895666666668,-0.1364171806666666,0.7472726255555555,-0.0161620002666666,0.6056805111111111,-0.1752368088888888
677,1778428737820,0.97304458375,-0.16936582375,0.78900945,-0.074141586,0.61016004,-0.216698065
678,1778428737830,0.95483464,-0.105966555,0.7972416250000001,-0.085594974,0.59183466,-0.22540264
679,1778428737840,0.9305691611111112,-0.0212749536888888,0.8085769422222222,-0.0712739995555555,0.5102525833333333,-0.1666764646666666
680,1778428737850,0.9315177,0.0041465834,0.81559634,-0.048944138,0.47699535,-0.100102596
681,1778428737860,0.99497044375,-0.005644384225,0.8353535875,-0.052761932,0.3989596125,-0.0242048217499999
682,1778428737870,1.0300398,-0.0334470733333333,0.8464416,-0.0938074746666666,0.34715637,0.0207094196666666
683,1778428737880,1.0593987,-0.037037222,0.85916596,-0.144694445,0.2730487125,0.0372616825
684,1778428737890,1.0816993222222222,-0.0165863342222222,0.868096031111111,-0.15523156,0.1928834977777777,0.0229491909111111
685,1778428737900,1.060694525,0.02385047725,0.86050755,-0.12117683,0.074580631175,0.002519745075
686,1778428737910,1.020086175,0.0305772415,0.836020645,-0.10880717,-0.0038177953,0.015347538
687,1778428737920,0.9854809777777778,0.0137406385555555,0.8072490088888888,-0.1405033466666666,-0.0789520077777777,0.0923821633333333
688,1778428737930,0.98813691125,-0.026049538125,0.8029736875,-0.157980365,-0.125070975,0.170960875
689,1778428737940,0.99545443,-0.04466724,0.8063275,-0.15339902,-0.14614521,0.19982341
690,1778428737950,0.98756776,-0.0629880902222222,0.8115039822222223,-0.1014091311111111,-0.1693574066666666,0.2093254722222222
691,1778428737960,0.97514837,-0.0732664735,0.8017540875,-0.029702448,-0.197456375,0.222424755
692,1778428737970,0.9749654,-0.074181154,0.78876555,-0.015958386,-0.19989976,0.22792238
693,1778428737980,0.9991233333333334,-0.072555046,0.80104267,0.0671168446666666,-0.17994542,0.25174543
694,1778428737990,1.047084725,-0.0601559475,0.835700415,0.14919944625,-0.196387395,0.2720560999999999
695,1778428738000,1.081099625,-0.047746685,0.860050185,0.16790664,-0.24449162,0.277401
696,1778428738010,1.1013753,-0.05052124,0.8756304,0.18562122,-0.36360684,0.277401
697,1778428738020,1.1027845444444444,-0.0602779066666666,0.8650064444444445,0.1910509711111111,-0.4046014711111111,0.2643695955555556
698,1778428738030,1.1045461,-0.07247374,0.8517265,0.19783816,-0.45584476,0.24808034
699,1778428738040,1.081997388888889,-0.0646684066666666,0.8219957888888889,0.2016389866666667,-0.4721340222222221,0.21984562
700,1778428738050,1.0141488714285714,-0.0393010742857142,0.8222866285714286,0.23920124,-0.5274011514285715,0.2429317799999999
701,1778428738060,0.9524602725,-0.0720202122499999,0.8397402875000001,0.2951155775,-0.55938337,0.2716743275
702,1778428738070,0.92663944,-0.10884781,0.8627028,0.3444415,-0.5315898,0.277401
703,1778428738080,0.9126141775,-0.1123236275,0.8636175,0.421560945,-0.501505615,0.2680855925
704,1778428738090,0.90639436,-0.09274931,0.8400186,0.4714977,-0.51021016,0.25846475
705,1778428738100,0.89834509,-0.06363938375,0.8048716499999999,0.4724139975,-0.52624489,0.26075543
706,1778428738110,0.8824675949999999,-0.03488770625,0.7422765250000001,0.4365267325,-0.570989475,0.2743467874999999
707,1778428738120,0.8610766833333333,-0.0109491482222222,0.6480154555555555,0.3599162911111111,-0.6202984422222222,0.3103867577777778
708,1778428738130,0.8384254275,-0.0159231855,0.6181153425,0.29649,-0.632074225,0.337722185
709,1778428738140,0.8232120022222222,-0.0370787213333333,0.6186099655555556,0.2873612177777778,-0.5730595577777778,0.3447299611111111
710,1778428738150,0.812364475,-0.065834633,0.638543375,0.40399912,-0.39491275,0.3221455775
711,1778428738160,0.8202307,-0.093481064,0.6528125,0.5112028,-0.28725094,0.2951156
712,1778428738170,0.832175105,-0.10619521975,0.6184773925,0.5993175125,-0.24281179125,0.24472069
713,1778428738180,0.8366274022222222,-0.0926104166666666,0.5366708655555557,0.6650005633333333,-0.1975921088888889,0.1738963399999999
714,1778428738190,0.8192551,-0.07198591,0.47807667,0.65414107,-0.17424418,0.1570641
715,1778428738200,0.8052434333333333,-0.0602237011111111,0.4353302555555555,0.6401594300000001,-0.2127954288888889,0.1953438622222222
716,1778428738210,0.8040103375000001,-0.051252993125,0.3587099475,0.662463825,-0.2889307625,0.26594762875
717,1778428738220,0.8031566,-0.049545575,0.33971494,0.7094227625,-0.358567345,0.2943520149999999
718,1778428738230,0.7880744222222222,-0.0432579461111111,0.3194292022222222,0.77814305,-0.45523393,0.3250471
719,1778428738240,0.7748623,-0.039788906,0.2550149,0.8202915,-0.4485146,0.3342098
720,1778428738250,0.8408112075,-0.04417940675,0.2340380475,0.8421293,-0.3066453162499999,0.2629697525
721,1778428738260,0.8721342133333334,-0.0389995656666666,0.2222995499999999,0.8527342777777778,-0.1715971766666666,0.1677199922222222
722,1778428738270,0.867885975,-0.02564174075,0.168900855,0.897563675,-0.142632835,0.0874275175
723,1778428738280,0.8382424875,-0.024086771,0.100790941,0.93360368125,-0.18852273,0.06039752375
724,1778428738290,0.81608415,-0.025367333,0.045155074,0.92291385,-0.24998924,0.05077668
725,1778428738300,0.80324807375,-0.0257636985,0.005129873125,0.8593093562499999,-0.2959554925,0.053983625
726,1778428738310,0.81752104125,-0.023324532625,-0.063544101125,0.72247958125,-0.24326993075,0.05627430525
727,1778428738320,0.8746852155555556,-0.0118706105555555,-0.0951071783333333,0.5052300822222222,-0.0605502364444444,0.0133113795555555
728,1778428738330,0.9100531,0.006341833,-0.110067405,0.3097759275,0.16897562,-0.08927915
729,1778428738340,0.94176227,0.025855167,-0.12811723,0.18928629,0.34260896,-0.1575986
730,1778428738350,0.93907917,0.0139032509999999,-0.11811664,0.10987615,0.43973368,-0.16737215
731,1778428738360,0.91877314,-0.000396364375,-0.10595130125,0.06497887525,0.4640148475,-0.1421174375
732,1778428738370,0.8810168533333333,-0.0316380246666666,-0.1001481216666666,-0.0074065235555555,0.4433308733333334,-0.0527279984444444
733,1778428738380,0.8624588333333334,-0.0441794066666666,-0.1148915349999999,-0.1134903333333333,0.3847574066666667,0.0581068453333333
734,1778428738390,0.8696543987500001,-0.022703306375,-0.13506886125,-0.2080221225,0.424767895,0.11491564
735,1778428738400,0.87066058875,-0.008171208625,-0.1419633125,-0.2579302525,0.5915292062499999,0.14293825375
736,1778428738410,0.874532725,-0.020065956875,-0.1545821925,-0.26403874,0.75493085,0.15400986
737,1778428738420,0.8822161,-0.037593655,-0.17400406,-0.2377723,0.9650623,0.14729054
738,1778428738430,0.8997475955555555,-0.0632082948888888,-0.2135693688888889,-0.1597280766666666,1.4187182111111112,0.10079828
739,1778428738440,0.9033454125,-0.0960726825,-0.2161597125,-0.075134214375,1.9596744375,0.0618482875
740,1778428738450,0.8936801944444444,-0.1126962826666666,-0.17172072,-0.0604144895555555,2.158047077777778,0.0598715144444444
741,1778428738460,0.87977695,-0.120067984,-0.07735208,-0.098422766,2.1873677,0.08376243
742,1778428738470,0.9288448866666664,-0.0685812367666666,0.0052848593333333,-0.1456616228888889,2.0972337444444444,0.1016806166666666
743,1778428738480,0.9986254,-0.0065857503,0.08713923,-0.15156648,2.085967,0.10392039
744,1778428738490,1.100895025,-0.0029346224999999,0.1805974275,-0.5643464837500001,0.82869066125,0.24578965875
745,1778428738500,1.161836025,-0.0932219025,0.204821405,-0.64826167,0.24609509,0.25541052
746,1778428738510,1.1711658,-0.18619989,0.19400522,-0.6500942,-0.2701472,0.21081866
747,1778428738520,1.1525976875,-0.2577513175,0.13229811125,-0.625813025,-0.4795151,0.1599656225
748,1778428738530,1.1378576777777778,-0.2630878288888889,0.0254181491111111,-0.517676091111111,-0.5116354777777778,0.0489441384444444
749,1778428738540,1.1365297,-0.21184163,-0.0043905,-0.44546035,-0.38193226,-0.028022617
750,1778428738550,1.152059122222222,-0.1326737333333333,0.0229383302222222,-0.4673151266666667,-0.3772490922222222,-0.1194715448888889
751,1778428738560,1.172206375,-0.07533976675,0.05735471775,-0.5126536,-0.42163733,-0.19241689
752,1778428738570,1.1914415,-0.051009074,0.09323715,-0.5126536,-0.42163733,-0.19241689
753,1778428738580,1.1921732,-0.049545575,0.1261659,-0.61161083,-0.6140542,-0.335966
754,1778428738590,1.151517077777778,-0.064966525,0.1797496444444444,-0.5322685566666667,-0.5442818611111111,-0.3955575388888889
755,1778428738600,1.0979605,-0.06540016,0.2376968,-0.43874106,-0.4485146,-0.42209545
756,1778428738610,1.0549260333333337,-0.0728260655555555,0.2762051355555555,-0.2924516088888889,-0.3788101388888888,-0.4277288255555556
757,1778428738620,1.0153640375,-0.055029884125,0.3023956975,-0.163477995,-0.36971530625,-0.43858832625
758,1778428738630,1.0025585,-0.021708583,0.27699786,-0.05444176,-0.4381302,-0.4471402
759,1778428738640,1.0097675333333334,0.0199300236666666,0.1697456722222222,0.0409861544444444,-0.5526979911111112,-0.4810761666666667
760,1778428738650,1.0235047874999998,0.040337716875,0.080058024125,0.1266744475,-0.612679795,-0.5506788125
761,1778428738660,1.0301211,0.035642326,-0.025855167,0.18989713,-0.5792359,-0.6230642
762,1778428738670,1.00316450875,0.0108276143749999,-0.068384327125,0.274957625,-0.4417189375,-0.674528065
763,1778428738680,0.96520877,-0.017805915,-0.08491349,0.39025503,-0.3037438,-0.67926216
764,1778428738690,0.96520877,-0.017805915,-0.08491349,0.39025503,-0.3037438,-0.67926216
765,1778428738700,0.8655764525,-0.05575782575,-0.1924349974999999,0.6115344625,-0.19791451625,-0.636426495
766,1778428738710,0.7978717633333333,-0.0693299255555555,-0.2862971744444444,0.7188230022222223,-0.0932729833333333,-0.59197888
767,1778428738720,0.78876555,-0.06759541,-0.31971377,0.7427139,0.02183779,-0.5583144
768,1778428738730,0.84129142875,-0.0735408774999999,-0.3393795575,0.77569965,0.2436326125,-0.502421865
769,1778428738740,0.8956619877777778,-0.0756988631111111,-0.3506912022222222,0.7659261088888889,0.39249482,-0.4437465933333333
770,1778428738750,0.9212733,-0.075888574,-0.34386152,0.72255594,0.4580591,-0.39643988
771,1778428738760,0.9212733,-0.075888574,-0.34386152,0.72255594,0.4580591,-0.39643988
772,1778428738770,0.9525691311111112,-0.0582113902222222,-0.2934859555555555,0.5896627311111111,0.527695688888889,-0.3333189888888889
773,1778428738780,1.0032902,-0.022196416,-0.20330454,0.34749573,0.65291935,-0.22295925
774,1778428738790,1.0032902,-0.022196416,-0.20330454,0.34749573,0.65291935,-0.22295925
775,1778428738800,1.0032902,-0.022196416,-0.20330454,0.34749573,0.65291935,-0.22295925
776,1778428738810,1.0032902,-0.022196416,-0.20330454,0.34749573,0.65291935,-0.22295925
777,1778428738820,1.0032902,-0.022196416,-0.20330454,0.34749573,0.65291935,-0.22295925
778,1778428738830,1.0032902,-0.022196416,-0.20330454,0.34749573,0.65291935,-0.22295925
779,1778428738840,1.089887411111111,0.0174163284444444,0.0110609455555555,-0.3394105033333333,0.255495344,0.0417157788888888
780,1778428738850,1.156043,0.03295924,0.2084268,-0.89870906,-0.18951537,0.26884916
781,1778428738860,1.156043,0.03295924,0.2084268,-0.89870906,-0.18951537,0.26884916
782,1778428738870,1.1936328625,0.014516852875,0.3016105775,-0.80097347625,-0.4656946675,0.22372281
783,1778428738880,1.2007103,0.007561417,0.33459267,-0.71667653,-0.65864605,0.18088715
784,1778428738890,1.1611654,-0.0012195833,0.27382696,-0.65559185,-0.84678704,0.15584241
785,1778428738900,1.124090022222222,-0.0081576577,0.1952857866666666,-0.6186694944444445,-0.9059713244444444,0.1829911744444444
786,1778428738910,1.06301165,-0.00420756275,0.02428495575,-0.5351785625000001,-0.85022303125,0.23349637
787,1778428738920,1.025134311111111,-0.0008943611111111,-0.0635843343333333,-0.5136038,-0.7859058999999999,0.2543924288888888
788,1778428738930,1.0155775375,-0.00100615625125,-0.08530986,-0.528764635,-0.73316945,0.266253045
789,1778428738940,1.0278382625,0.00161594803875,-0.084029295,-0.54037073375,-0.7239303500000001,0.26403873875
790,1778428738950,1.0758326,0.009329813175,-0.075766615,-0.5219689675,-0.7220214875,0.227769675
791,1778428738960,1.125736425,-0.014764581475,-0.07082730175,-0.4724903475,-0.7217160475,0.1627144375
792,1778428738970,1.1414346375,-0.0441794087499999,-0.058387549875,-0.40789324375,-0.7587486687499999,0.0870457355
793,1778428738980,1.0799004333333333,-0.0855741,-0.075573515,-0.23856131,-0.97038178,-0.0715963886666666
794,1778428738990,0.994067085,-0.100432685,-0.13849131125,-0.155766054,-1.0332481125,-0.121100471
795,1778428739000,0.92256397,-0.1048638366666666,-0.2062925233333333,-0.0372701671111111,-0.9972589666666668,-0.1432182322222222
796,1778428739010,0.860019665,-0.1068964775,-0.2739336599999999,0.069254806875,-0.88045995,-0.14871267375
797,1778428739020,0.8375183749999999,-0.0987214625,-0.304655715,0.10743276,-0.8021952,-0.13797513
798,1778428739030,0.8315424250000001,-0.0582579752499999,-0.3250113375,0.0860531074999999,-0.5581617025,-0.04451549675
799,1778428739040,0.8338290875000001,-0.00704309325,-0.2789720725,0.02741177,-0.37032616,0.047111593
800,1778428739050,0.8654739444444445,0.0208413235555555,-0.1059241977777777,-0.00516675,-0.22351919,0.1836020277777778
801,1778428739060,0.8962413499999999,-0.0010175904999999,0.1010958425,0.0675749775,-0.2828222724999999,0.3226037125
802,1778428739070,0.9085896,-0.029544408,0.17278448,0.17340426,-0.39231664,0.4105657
803,1778428739080,0.93744038,-0.06546114025,0.1236581324999999,0.38552097,-0.3336753025,0.5142570399999999
804,1778428739090,0.9674382875,-0.075431235375,0.0566153512124999,0.5403707249999999,-0.09826049875,0.5348731025
805,1778428739100,1.015296377777778,-0.055345369,-0.0184631373444444,0.7606321,0.35360422,0.4633021599999999
806,1778428739110,1.04994695,-0.0475332595,-0.0743107405,0.8355627,0.50142926,0.38429928
807,1778428739120,1.0662512,-0.040032823,-0.1171409859999999,0.8147939000000001,0.6203408466666667,0.2812697066666667
808,1778428739130,1.1097712375,-0.01454353175,-0.031126055,0.6112290575,0.896647425,0.0778066676
809,1778428739140,1.1315158777777778,-0.0168302496666666,0.0902932044444444,0.4629458522222222,0.8498836888888889,-0.0110546385777777
810,1778428739150,1.120206375,-0.026464957625,0.16064961,0.3331408125,0.4782170575,-0.05085303375
811,1778428739160,1.095460275,-0.026708874,0.16339367,0.2650313425,0.16956737625,-0.03413108965
812,1778428739170,1.0711296,-0.0219525,0.1615643,0.23937577,-0.069178455,-0.0011453386
813,1778428739180,1.0382786666666668,-0.0396533968888888,0.1507167888888889,0.2325207055555555,-0.2201256033333333,0.0167728482444444
814,1778428739190,1.02213275,-0.0466185735,0.126104915,0.21188763625,-0.31145575,-0.0095444876625
815,1778428739200,1.019510725,-0.033325116,0.10396948,0.18798825375,-0.36215609125,-0.0808704437499999
816,1778428739210,1.0039304666666666,-0.04653727,0.0827385666666666,0.1575901055555555,-0.3049654944444444,-0.2205158566666666
817,1778428739220,1.00332835,-0.0518018045,0.0905311975,0.1416402,-0.2622062,-0.24800399
818,1778428739230,1.022498725,-0.03014657585,0.1464795875,0.0492495595,0.0416139695,-0.3852919
819,1778428739240,1.0354873,-0.0041465834,0.17815064,0.05245651,0.04023956,-0.4086568
820,1778428739250,1.0301820875,0.01673878125,0.1558513175,0.05902311725,-0.1820324825,-0.367271905
821,1778428739260,1.01780335,0.013476395875,0.1323857699999999,0.04451549375,-0.474781035,-0.2611372
822,1778428739270,1.0261913333333332,0.0044989076111111,0.1258948722222222,-0.0027233606666666,-0.6482616666666667,-0.1579803766666666
823,1778428739280,1.0578094125,-0.0135106967499999,0.1039084975,-0.0582595574999999,-0.6476508249999999,-0.1581521699999999
824,1778428739290,1.0825937,-0.0585704929999999,0.10006681,-0.12835428,-0.5945071,-0.21135315
825,1778428739300,1.0440025714285714,-0.0992915071428571,0.1216708657142857,-0.1825451557142857,-0.4938918357142857,-0.3609234714285714
826,1778428739310,0.9922225175,-0.0796083055,0.14208527125,-0.1847049399999999,-0.2828223,-0.5010474625
827,1778428739320,0.95081764,-0.040764574,0.18863906,-0.1466797,-0.0697893,-0.5601469
828,1778428739330,0.92585432,0.0399032405,0.2454564,-0.106592845,0.048237846,-0.5619794875
829,1778428739340,0.9105409625,0.10616472,0.2606211475,-0.09659022,0.07505786,-0.5436541
830,1778428739350,0.9419795,0.1031729305,0.21165488625,-0.16135912375,0.072232689375,-0.4800495875
831,1778428739360,0.9716318666666668,0.0852183853333333,0.1810505344444444,-0.2271163977777777,0.1252152055555555,-0.43879194
832,1778428739370,0.9724347875,0.097444715,0.1824496775,-0.2762556875,0.20196137,-0.38575005
833,1778428739380,0.9531272,0.10616473,0.2113919074999999,-0.2856474587499999,0.24250635375,-0.32855946375
834,1778428739390,0.92322461,0.0868038433333333,0.2851995599999999,-0.3076803711111111,0.2511854688888889,-0.2334794077777778
835,1778428739400,0.88705638,0.0693638,0.372895235,-0.31641887375,0.2207449249999999,-0.12168267875
836,1778428739410,0.86782503,0.06735149,0.4182866,-0.2782239622222222,0.2250547977777777,-0.0570039253333333
837,1778428739420,0.8600197,0.07808383,0.4375865,-0.21089502,0.24731678,-0.010308048
838,1778428739430,0.861147825,0.07628494,0.4621611062499999,-0.1499057349999999,0.23112933,0.0544417605
839,1778428739440,0.86806895625,0.0745470337499999,0.46941762,-0.1210241099999999,0.1666849425,0.10224056
840,1778428739450,0.87660605,0.07027849,0.46514907,-0.12835428,0.12636903,0.1246892
841,1778428739460,0.8846781575,0.067351495,0.4530752175,-0.14622156,0.0470543295,0.1443890225
842,1778428739470,0.892735,0.08125474,0.42145753,-0.16439427,-0.008704574,0.15645325
843,1778428739480,0.924932,0.09933506,0.40243202,-0.19676918,-0.011147963,0.16011834
844,1778428739490,0.924932,0.09933506,0.40243202,-0.19676918,-0.011147963,0.16011834
845,1778428739500,0.919047525,0.07635735025,0.403621115,-0.16546325775,0.02376577725,0.08872556515
846,1778428739510,0.895662,0.054667823,0.38169912,-0.114304796,0.10682192,-0.0005344914
847,1778428739520,0.86825188,0.02648782475,0.404939785,-0.1309503845,0.16683766,0.006490252
848,1778428739530,0.8607514,0.005610083,0.45563635,-0.1996452466666666,0.1137448499999999,0.0707310233333333
849,1778428739540,0.8727034,0.006097917,0.4978644,-0.23716144,0.07261447,0.1130831
850,1778428739550,0.8727034,0.006097917,0.4978644,-0.23716144,0.07261447,0.1130831
851,1778428739560,0.8839920825,0.0701031749999999,0.4949907725,-0.2383831424999999,0.0532200699999999,0.18210883
852,1778428739570,0.895540055,0.0862778999999999,0.47344226,-0.2139301625,0.0700183675,0.1715717175
853,1778428739580,0.90761393,0.07710816,0.4500262399999999,-0.20654273,0.09704836,0.13996038
854,1778428739590,0.90761393,0.07710816,0.45002624,-0.20654273,0.09704836,0.13996038
855,1778428739600,0.899503715,0.03652271,0.43800957125,-0.21293753625,0.35925453625,0.076966755
856,1778428739610,0.9195759933333334,0.0118706113333333,0.5106192433333333,-0.1582858,0.4812713,0.09597938
857,1778428739620,0.9474029,-0.014147166,0.57277733,-0.1582858,0.4812713,0.09597938
858,1778428739630,0.96115365,-0.0514054385,0.622231435,-0.05505261,0.40796962,0.22059222
859,1778428739640,0.9805755,-0.05417999,0.6489098,0.04573719,0.3896442,0.25541052
860,1778428739650,0.9805755,-0.05417999,0.6489098,0.04573719,0.3896442,0.25541052
861,1778428739660,0.9584603777777778,-0.0509819742222222,0.6576298222222223,0.2044217255555555,0.32530162,0.3052285
862,1778428739670,0.9566717,-0.04198416,0.6735759,0.26014456,0.32794863,0.30794337
863,1778428739680,0.9566717,-0.04198416,0.6735759,0.26014456,0.32794863,0.30794337
864,1778428739690,0.9566717,-0.04198416,0.6735759,0.26014456,0.32794863,0.30794337
865,1778428739700,0.90706895,-0.00573585335,0.6943431,0.3148917575,0.37880164875,0.33940201625
866,1778428739710,0.9154192925,-0.01841570875,0.7211701150000001,0.29496288,0.41224554,0.38002336
867,1778428739720,0.92785907,-0.018049834,0.73873216,0.29496288,0.41224554,0.38002336
868,1778428739730,1.018280888888889,-0.0292428985555555,0.8020184,0.2483348444444444,0.4035579466666666,0.3866748
869,1778428739740,1.073812675,-0.026594539,0.8191408,0.2171562025,0.349939135,0.3082487862499999
870,1778428739750,1.1030827,-0.037593655,0.8334328,0.19234054,0.31939676,0.25174543
871,1778428739760,1.0821532444444444,-0.0457242144444444,0.8489350777777777,0.1293553955555555,0.2068651266666666,0.0967938375555555
872,1778428739770,1.0337188000000002,-0.0378909305,0.844287065,0.046958881,0.08941276875,-0.0608747495
873,1778428739780,1.0057294,-0.0160985,0.83148146,-0.013514996,0.046348035,-0.1575986
874,1778428739790,0.9903931325,0.0170208102499999,0.78040376,-0.0856713299999999,0.0103844028749999,-0.29954421625
875,1778428739800,0.9801960711111112,0.0321461844444444,0.7408189944444444,-0.1563344777777777,0.0166116513333333,-0.3976615788888888
876,1778428739810,0.9889029625,0.0301198975,0.7258960012500001,-0.21341475875,0.034131089,-0.43667944
877,1778428739820,1.0224783333333334,0.0105697223333333,0.7440169999999999,-0.2702829422222222,0.0187156819999999,-0.4381132322222222
878,1778428739830,1.034206675,-0.0180574555,0.7654486375,-0.32153472,-0.032374904625,-0.429502005
879,1778428739840,1.0270720375,-0.051649354375,0.79199741875,-0.340700055,-0.115908267,-0.423927995
880,1778428739850,1.0126161875000002,-0.06549162625,0.80120528,-0.31588438,-0.158820285,-0.4171323125
881,1778428739860,0.9612959133333332,-0.07507552,0.79096076,-0.27116527,-0.2277951233333333,-0.3909422533333333
882,1778428739870,0.90871158,-0.06491231825,0.7636954625,-0.20690542,-0.2583883975,-0.3407000575
883,1778428739880,0.88779569,-0.04826501125,0.71518655,-0.0988809044999999,-0.2367033175,-0.279462615
884,1778428739890,0.88996049875,-0.0386303045,0.65512586875,-0.01282779225,-0.23464170875,-0.2354816149999999
885,1778428739900,0.89102757,-0.059546154,0.6113466,0.034741938,-0.24265908,-0.20341213
886,1778428739910,0.8676992375,-0.0815634465,0.605340225,0.060321166,-0.243804405,-0.2102078175
887,1778428739920,0.8187635,-0.096286105,0.6260425875,0.1126249625,-0.253959745,-0.2336490749999999
888,1778428739930,0.7475029666666667,-0.0883588133333333,0.6380962,0.20516832,-0.2929521599999999,-0.27488126
889,1778428739940,0.6929063,-0.085912025,0.607009525,0.32336726,-0.2762556775,-0.29320669
890,1778428739950,0.6564915466666666,-0.0737746323333333,0.53999085,0.4899589,-0.1327574759999999,-0.2765101844444444
891,1778428739960,0.6517186724999999,-0.057259441125,0.4769752625,0.60557870625,0.071163703875,-0.25113459
892,1778428739970,0.67113671,-0.0116622664999999,0.3998023,0.63337225,0.22776967,-0.2131857
893,1778428739980,0.72318244,0.0439354886666666,0.3731416833333333,0.5644822488888889,0.5669935211111111,-0.0235430722222222
894,1778428739990,0.7678877799999999,0.046740533,0.4199406625,0.46645823625,0.6636855575,0.0926197174999999
895,1778428740000,0.8004736,0.039057158,0.4841746,0.32794863,0.67781137,0.22089764
896,1778428740010,0.84162426,0.06483102,0.5650533033333334,0.2796916966666666,0.6052733,0.310794
897,1778428740020,0.8721887975,0.079917015,0.57622266375,0.29068694375,0.53128445,0.35054998125
898,1778428740030,0.90456495,0.093846935,0.569720725,0.29587914,0.407893255,0.35306971625
899,1778428740040,0.9333064866666666,0.1120187266666666,0.52046736,0.2467059366666667,0.2395793899999999,0.3144590866666666
900,1778428740050,0.9411562775,0.1066182599999999,0.49271167,0.183025113,0.24983652875,0.309012375
901,1778428740060,0.95837907125,0.069573421125,0.4934434,0.083457009375,0.27740100625,0.32978116625
902,1778428740070,0.96520877,0.027074749,0.5120116,-0.007406523,0.28702185,0.36291963
903,1778428740080,0.9691927533333332,-0.0147772849999999,0.5218766666666667,-0.0726314357777777,0.3042613199999999,0.3841635466666666
904,1778428740090,0.9745385625,-0.0356956815,0.4991373375,-0.110639706,0.33894387,0.35803285
905,1778428740100,0.9638672125,-0.0018827315,0.4681370575,-0.079639212625,0.407435115,0.25869382125
906,1778428740110,0.9951630888888888,0.0551048413333333,0.4752309988888888,-0.0154832806666666,0.4136029822222222,0.1552315588888889
907,1778428740120,1.066983,0.13470298,0.47197875,0.043904647,0.38414657,0.03978143
908,1778428740130,1.0751033333333335,0.1530170566666666,0.4426986,0.098202183,0.2292458917777777,-0.1197345444444444
909,1778428740140,1.0482928,0.0943805059999999,0.410229705,0.06116108215,-0.018630844,-0.2347180549999999
910,1778428740150,1.022315766666667,-0.0033436906666666,0.3387291,-0.0025197451,-0.1777056533333333,-0.3357623833333333
911,1778428740160,0.97637559375,-0.048051585,0.248894085,0.00542126875,-0.0425684175,-0.4471402049999999
912,1778428740170,0.91688275,-0.06100966,0.18863906,0.02069245,0.087274805,-0.48928866
913,1778428740180,0.87853068125,-0.0209806455,0.161564305,0.15034478,0.465923745,-0.53288785
914,1778428740190,0.8751501575,-0.0006631477499999,0.13814067,0.271292535,0.732176795,-0.574807275
915,1778428740200,0.9034403033333334,0.0467608611111111,0.1075130444444444,0.2990351888888888,0.8229384888888889,-0.5934041888888888
916,1778428740210,0.945184745,0.09604218875,0.086994405,0.30473644,0.8086854,-0.5943544
917,1778428740220,0.9672820575,0.1022010812499999,0.095798275,0.28961795,0.658569675,-0.6131379625
918,1778428740230,0.9705749444444444,0.0994163688888888,0.1098234815555555,0.24019024,0.39005142,-0.6273401333333334
919,1778428740240,0.9500135,0.088042484375,0.098633801875,0.23235103,0.2454842375,-0.631157925
920,1778428740250,0.9185596125,0.080827885625,0.07813337,0.29511558625,0.1758476525,-0.5919873375
921,1778428740260,0.89422515,0.07305303925,0.0602169325,0.3706315825,0.141563850625,-0.53578939625
922,1778428740270,0.8820535,0.064668406,0.0401039683333333,0.43423605,0.115373775,-0.47646087
923,1778428740280,0.893305642857143,0.0712889985714285,0.0088158438571428,0.4960188942857143,0.0572232972857142,-0.3570838628571429
924,1778428740290,0.9149315,0.08174257,-0.013659334,0.50875944,0.030389652,-0.29809347
925,1778428740300,0.9612527475,0.1125141849999999,-0.01945235375,0.4594334949999999,-0.021532367,-0.235767955
926,1778428740310,1.0171121666666667,0.1367559366666666,-0.0199198613333333,0.37864894,-0.07711947,-0.13308835
927,1778428740320,1.0428047,0.11787273,-0.01975725,0.37864894,-0.07711947,-0.13308835
928,1778428740330,1.0586250499999998,0.09140776875,-0.0088724693625,0.2271588125,-0.2116585825,0.01656923175
929,1778428740340,1.0518296,0.06930282,0.008537084,0.1744902188888889,-0.3271596144444444,0.081997764
930,1778428740350,1.0518296,0.06930282,0.008537084,0.16485241,-0.35322243,0.09597938
931,1778428740360,1.0518296,0.06930282,0.008537084,0.16485241,-0.35322243,0.09597938
932,1778428740370,0.96771274375,0.1231131325,0.050822324375,0.22792238375,-0.29977329125,0.1430146112499999
933,1778428740380,0.96073698,0.1633530266666666,0.0347378,0.24976017,-0.19684553,0.14912309
934,1778428740390,0.96886754,0.17278448,0.010000584,0.24586601875,-0.18646112625,0.14813046375
935,1778428740400,1.00436502,0.1957812325,-0.02946056125,0.100408018125,-0.14950487,0.143014615
936,1778428740410,1.0347555,0.20915854,-0.03734974,-0.0086282175,-0.22005773,0.15217732
937,1778428740420,1.0347555,0.20915854,-0.03734974,-0.0086282175,-0.22005773,0.15217732
938,1778428740430,1.04283905,0.2082743425,-0.035333616375,-0.0360495315625,-0.23861221625,0.1532463025
939,1778428740440,1.1184798,0.1893708,-0.054423906,-0.59267455,-0.54991525,0.14240377
940,1778428740450,1.1184798,0.1893708,-0.054423906,-0.59267455,-0.54991525,0.14240377
941,1778428740460,1.1184798,0.1893708,-0.054423906,-0.59267455,-0.54991525,0.14240377
942,1778428740470,1.03403135,0.16088972375,-0.1066144545,-0.99591013125,-0.5995465612499999,0.11919156875
943,1778428740480,1.0085751333333333,0.10933565,-0.0777586053333333,-1.1815313,-0.52548134,0.09659022
944,1778428740490,1.0152422,0.08591965,-0.062473156,-1.1815313,-0.52548134,0.09659022
945,1778428740500,1.0079111444444446,0.0149229557777777,-0.0361708112222222,-1.2572764,-0.2316638199999999,0.026953636
946,1778428740510,1.0005767,-0.009756667,-0.020976834,-1.2475028,-0.0013744063,-0.0029778804
947,1778428740520,1.0005767,-0.009756667,-0.020976834,-1.2475028,-0.0013744063,-0.0029778804
948,1778428740530,1.0001091666666666,-0.0307436633333333,0.0424719919999999,-0.94798402,0.3961599,-0.0697638433333333
949,1778428740540,0.9834110525,-0.04000233475,0.0695581725,-0.7239303475,0.43049461375,-0.09674293375
950,1778428740550,0.96862364,-0.048082076,0.09274931,-0.51815116,0.42934927,-0.12270394
951,1778428740560,0.96862364,-0.048082076,0.09274931,-0.51815116,0.42934927,-0.12270394
952,1778428740570,0.96862364,-0.048082076,0.09274931,-0.51815116,0.42934927,-0.12270394
953,1778428740580,0.8248461325,-0.090729381,0.14673874625,0.43613540125,0.52059458875,-0.145419825
954,1778428740590,0.7729719133333334,-0.085096428,0.1464313033333333,1.030083577777778,0.5898663677777778,-0.0659630215555555
955,1778428740600,0.81754774,-0.053204324,0.12543415,1.1648093,0.59427804,-0.007253811
956,1778428740610,0.81754774,-0.053204324,0.12543415,1.1648093,0.59427804,-0.007253811
957,1778428740620,0.902918557777778,-0.0250827641111111,0.0996196335555555,1.1695603888888888,0.550229151111111,0.0369308065555555
958,1778428740630,1.0431859,0.011951917,0.0680832379999999,1.0824977225,0.448285535,0.07750124375
959,1778428740640,1.0628364,0.011708,0.06930282,0.99316126,0.39941776,0.0782648
960,1778428740650,1.070519825,0.0033843438749999,0.1080550775,0.79074177,0.23616881925,0.11453386125
961,1778428740660,1.0636393,-0.0006504444466666,0.16310912,0.5804321666666666,0.010078978,0.17762929
962,1778428740670,1.0535371,-0.00048783334,0.1730284,0.5099811,-0.07956286,0.20532103
963,1778428740680,1.049254988888889,0.0070193801733333,0.1480912944444444,0.3807529722222222,-0.2434056644444444,0.2710210366666666
964,1778428740690,1.0573901875,0.017196125125,0.10017734125,0.311455735,-0.3078670125,0.30152947
965,1778428740700,1.0625925,0.025123417,0.06540016,0.28030252,-0.28908345,0.30427828
966,1778428740710,1.0738668555555555,0.0484581125555555,0.0684355688888888,0.2504388755555555,-0.1975921144444444,0.2953191955555556
967,1778428740720,1.091077375,0.0552776147499999,0.0769328465,0.2207449225,-0.16172181,0.2940466075
968,1778428740730,1.120458311111111,0.0555350822222222,0.0889550535555555,0.1644451666666666,-0.1571404533333333,0.2930794266666667
969,1778428740740,1.1303707875,0.060277908125,0.0815482035,0.11712995625,-0.1949366237499999,0.27602660625
970,1778428740750,1.14543265,0.08627028,0.056863075,0.051998372,-0.2794626125,0.24174280625
971,1778428740760,1.15488445,0.09439575,0.0409398885,-0.003436016,-0.3781144475,0.1979908725
972,1778428740770,1.1597018555555556,0.0923427831111111,0.0269392395555555,-0.0587176933333333,-0.5124499433333334,0.1206168873333333
973,1778428740780,1.1717490125,0.0919527735,0.0239381335,-0.0794865,-0.58778775,0.061161082
974,1778428740790,1.2005510666666668,0.07979124,0.0367534988888888,-0.0399850453033333,-0.6773787166666667,-0.065284302
975,1778428740800,1.2400722875,0.06735149125,0.0436610849999999,0.0119878770675,-0.6971294125,-0.1654823425
976,1778428740810,1.246536125,0.0614365125,0.0439964699999999,0.0623827745,-0.6630746599999999,-0.2493783875
977,1778428740820,1.2339846,0.0382339356666666,0.0279894401666666,0.1180207788888888,-0.5699374377777777,-0.3005368422222222
978,1778428740830,1.2241873,0.01753151070875,0.0101225421875,0.17691663375,-0.41827766125,-0.33917293125
979,1778428740840,1.1891738625,-0.0038721773312499,-0.021659038,0.1992125549999999,-0.3135173425,-0.34818293
980,1778428740850,1.158665225,-0.011098209,-0.042075627,0.1957001925,-0.24288814375,-0.32710871625
981,1778428740860,1.1240798,-0.0098379726666666,-0.0790696566666666,0.1497848366666666,-0.2829749866666666,-0.2797680533333333
982,1778428740870,1.08258605,0.0010976249999999,-0.1237953349999999,0.098728185,-0.398577835,-0.2331909375
983,1778428740880,1.047774575,0.0111591875,-0.16577186875,0.051158457875,-0.5690805875,-0.1746164075
984,1778428740890,1.0315303333333334,0.0085912870444444,-0.1772020711111111,0.050420351,-0.8308371111111111,-0.0786550693022222
985,1778428740900,1.0399082125,-0.0056405728875,-0.139882395,0.1346154635,-1.054322375,0.0065666082475
986,1778428740910,1.0520736,-0.01097625,-0.11104306,0.20516832,-1.1687036,0.047722444
987,1778428740920,1.064056,-0.005854,-0.055399574,0.31267744,-1.3702831,0.101477005
988,1778428740930,1.0632022625,0.0001219583624999,-0.04472821925,0.31496811,-1.4965757375,0.127514366875
989,1778428740940,1.037896,0.0094822609999999,-0.06253795125,0.27801185125,-1.6794481625,0.158362155
990,1778428740950,1.0268688555555556,-0.0059895093333333,-0.1162229144444444,0.2439910544444444,-1.6782859666666663,0.1561817644444444
991,1778428740960,1.01490675,-0.013293458775,-0.18187037375,0.18233790125,-1.441523175,0.12759072375
992,1778428740970,0.992855185,0.00793491395,-0.1937003325,0.1234674957499999,-1.1917630125,0.1138466535
993,1778428740980,0.96276957,0.048813823,-0.180101975,0.03092414135,-0.80761644375,0.112243185
994,1778428740990,0.9617024375,0.05244208375,-0.17574196625,-0.008017369975,-0.68979927875,0.122780305
995,1778428741000,0.9610622,0.04539899,-0.18790731,-0.07215633,-0.64276403,0.1350736
996,1778428741010,0.92173064375,0.039148625,-0.21086597375,-0.17770883,-0.70316153875,0.11934428875
997,1778428741020,0.900052525,0.040032825,-0.22050067,-0.229220435,-0.69682402,0.12102412
998,1778428741030,0.8971255,0.04198416,-0.22037871,-0.23105298,-0.6574244,0.13018683
999,1778428741040,0.9152566166666666,0.051659517,-0.1621232766666666,-0.1741678266666666,-0.3631996033333333,0.1250964266666666
1000,1778428741050,0.91639495,0.050033405,-0.11933623,-0.13873868,-0.26953635,0.11002886
