id,timestamp,acc_x,acc_y,acc_z,gyro_x,gyro_y,gyro_z
0,1778428703140,0.8801794279999999,-0.0093664,0.256783278,0.32978117,0.14530529,-0.24739315
1,1778428703150,0.8932228700000001,-0.01683025,0.28651062,0.28580016,0.34993914,-0.2284568699999999
2,1778428703160,0.8968816177777779,-0.0136864351111111,0.2956744333333333,0.28580016,0.34993914,-0.2284568699999999
3,1778428703170,0.978387855,0.0168912295,0.445208895,0.20700087,0.39208758,-0.10315683
4,1778428703180,1.012803,0.017074168,0.4607586,0.20761171,0.1868429,-0.042682953
5,1778428703190,1.0164888444444444,0.0197911284444444,0.4422141511111111,0.2032679077777777,0.0927554555555555,-0.0401038198888888
6,1778428703200,1.0293893,0.02930049,0.37730858,0.1880646,-0.2365506,-0.031076854
7,1778428703210,1.0124777777777778,0.0117351026666666,0.2848878866666667,0.1339028111111111,-0.5541233,-0.1002383377777777
8,1778428703220,1.0084125,0.013903251,0.24257512,0.110487,-0.670863,-0.12942326
9,1778428703230,1.0084125,0.0139032509999999,0.24257512,0.110487,-0.670863,-0.12942326
10,1778428703240,0.9547203875,0.04905773975,0.12079973,-0.035505496,-0.6384881,-0.20280129
11,1778428703250,0.9577286833333332,0.0412524066666666,0.1208810366666666,-0.12530005,-0.56885153,-0.19974706
12,1778428703260,0.974355625,0.046801511,0.12098267,-0.18428498625,-0.530673575,-0.19188239625
13,1778428703270,0.9980087833333332,0.0517950275555555,0.1215585833333333,-0.3476569366666666,-0.44518888,-0.17809592
14,1778428703280,1.0416461888888888,0.0465033902222222,0.1167886611111111,-0.4400306,-0.4502113966666667,-0.1768742155555555
15,1778428703290,1.0740260375,0.02668982125,0.09162119875,-0.4776825425,-0.4401154475,-0.1937912975
16,1778428703300,1.0612305777777775,0.0849134944444444,0.0855605464444444,-0.4998257511111111,-0.4514330888888889,-0.1393919577777777
17,1778428703310,1.0458130666666667,0.064820853,0.0416487693333333,-0.5330151244444444,-0.5029478722222223,-0.0616870937777777
18,1778428703320,1.04170715,0.02396481425,0.00304895825,-0.5797704275,-0.4992149274999999,-0.0070247438749999
19,1778428703330,1.04106685,0.01372031275,-0.0042380523375,-0.62054447,-0.45828816125,0.03894151325
20,1778428703340,1.0354872666666666,0.0335080536666666,0.0122873028666666,-0.6373342977777777,-0.4910702933333333,0.0834230733333333
21,1778428703350,1.0408228875,0.04252915825,0.031831127,-0.6134434,-0.65070504,0.11002886
22,1778428703360,1.0664113,0.01622045875,0.0479601182499999,-0.53334605,-0.9558996,0.1417929145
23,1778428703370,1.0925941,-0.012683666,0.048325993,-0.4344651,-1.2322316,0.120413266
24,1778428703380,1.0762246666666668,-0.0394907864444444,-0.0405308226111111,-0.34874288,-1.2754660777777778,0.0395099371555555
25,1778428703390,1.052218375,-0.04430136525,-0.09156784875,-0.2906105825,-1.1560284,-0.001908897725
26,1778428703400,1.021096225,-0.042380521125,-0.1232503368749999,-0.23838314,-1.0318737,-0.0060321167
27,1778428703410,1.0024704222222225,-0.0293750196666666,-0.1486367233333333,-0.1452543955555555,-0.6658404955555556,0.0323833892222222
28,1778428703420,0.9927713,0.015610667,-0.16058864,-0.1582858,-0.37643462,0.075821415
29,1778428703430,1.0047918500000002,0.07065199,-0.1189627375,-0.2461618975,-0.31473904625,0.144541736875
30,1778428703440,1.0281425777777775,0.0949106866666666,-0.0574525388888888,-0.4067055088888889,-0.4409129444444444,0.2472658866666666
31,1778428703450,1.0399386625,0.07439458675,-0.015824095125,-0.53998899,-0.732405885,0.3325299774999999
32,1778428703460,1.0580123222222224,0.0410322046666666,0.0176195918888888,-0.60916746,-0.96834564,0.39162946
33,1778428703470,1.0625925,0.00804925,0.037593655,-0.60916746,-0.96834564,0.39162946
34,1778428703480,1.0666170875,-0.00262210425,0.0331993452075,-0.48898324375,-1.435949225,0.5137225087499999
35,1778428703490,1.0743004,-0.012927583,-0.00048783334,-0.3324536,-1.5077237,0.5425087
36,1778428703500,1.063507225,-0.02463558325,-0.059782448335,-0.277171935,-1.46374275,0.5287646500000001
37,1778428703510,1.0272822222222222,-0.0349037984444444,-0.13106117,-0.1277604004444444,-1.1470523955555556,0.4632343155555555
38,1778428703520,1.0036425777777778,-0.0372955361111111,-0.1398218433333333,-0.0517268857777777,-0.7600466933333334,0.3850458666666667
39,1778428703530,1.0004776,-0.04015478225,-0.08938784,-0.035505496,-0.6735354649999999,0.33695862
40,1778428703540,0.9953189222222222,-0.0405748615555555,-0.0493795774444444,-0.031229567,-0.6879667,0.26640576
41,1778428703550,0.9899663,-0.0592412624999999,-0.016220459,0.0397814275,-0.8119687125,0.1978381575
42,1778428703560,0.9549303888888888,-0.0784361533333333,-0.0290328594444444,0.1397397942222222,-0.9151340333333334,0.1638512966666666
43,1778428703570,0.9181023,-0.07710816,-0.05979007,0.19295138,-0.94269,0.16195089
44,1778428703580,0.848386211111111,-0.0434679837777777,-0.0982238866666666,0.2140595488888889,-0.8686417888888889,0.2000270155555555
45,1778428703590,0.8016931,-0.017074168,-0.11909231,0.20028155,-0.76554435,0.2541888
46,1778428703600,0.82170947,0.00451245865,-0.084806778,0.1006370845,-0.5985539562500001,0.3103104
47,1778428703610,0.8594572555555556,0.011084658,-0.0454193183711111,-0.0343516765555555,-0.5085133722222223,0.3275583444444445
48,1778428703620,0.91468745,0.014878917,-0.00024391667,-0.1523395874999999,-0.54915170625,0.3074088975
49,1778428703630,0.9273711633333332,0.0116808984,0.0547525159255555,-0.2455775666666666,-0.6931250222222222,0.22961918
50,1778428703640,0.888458875,-0.007256521025,0.1107457875,-0.25365433,-0.7368345,0.19493663
51,1778428703650,0.8561407333333333,-0.0266716106666666,0.1492600622222222,-0.2072893155555555,-0.7655443177777778,0.1912036777777777
52,1778428703660,0.8213589075000001,-0.053909396,0.184644915,-0.1549261325,-0.8258654775,0.2131093437499999
53,1778428703670,0.80492499875,-0.09991436975,0.191627035,-0.1309503775,-0.86160009,0.2338781425
54,1778428703680,0.80285851,-0.1266808322222222,0.1945472577777777,-0.1538147366666666,-0.8068104311111112,0.23131597
55,1778428703690,0.80827886,-0.13860564,0.20010313,-0.2777827949999999,-0.54670829,0.1929513775
56,1778428703700,0.8203934233333333,-0.10103232,0.2282653399999999,-0.3850543511111111,-0.3218655966666667,0.1700276355555555
57,1778428703710,0.8272128812499999,-0.0417669154375,0.2524575575,-0.45989162875,-0.1248419112499999,0.15362808875
58,1778428703720,0.8262105275,0.0030222799375,0.27745902375,-0.46004435125,-0.013047315375,0.176000365
59,1778428703730,0.8349200488888889,0.0420654624444444,0.3261369077777777,-0.4046693333333333,0.0559179751111111,0.24326144
60,1778428703740,0.8267554975,0.032223676,0.31748423625,-0.3368822825,0.06956022625,0.3458922625
61,1778428703750,0.8062733066666667,0.007127788,0.2815713155555556,-0.2842645533333333,0.1347851455555555,0.427805171111111
62,1778428703760,0.80380071375,-0.018510988625,0.23019253875,-0.2259275899999999,0.274041355,0.4896704362499999
63,1778428703770,0.8840454222222222,-0.0573780073333333,0.1715648866666666,-0.1935791999999999,0.64172052,0.49045095
64,1778428703780,0.91865490625,-0.07448604975,0.19519812625,-0.206475925,0.8359444975,0.447140185
65,1778428703790,0.9464271,-0.07662032,0.24964872,-0.21028417,1.018206,0.38674268
66,1778428703800,0.954476385,-0.0823676075,0.295413585,-0.187033795,1.0924239999999998,0.33573693
67,1778428703810,0.9478703166666668,-0.1029125076666666,0.3898194966666666,-0.1059565466666666,1.2138808,0.22405368
68,1778428703820,0.9004183775,-0.13016002925,0.44148535375,-0.0350473615625,1.2558256375,0.1650814675
69,1778428703830,0.845537105,-0.16610725375,0.46997023875,0.16294351,1.38677595,0.10934166125
70,1778428703840,0.84148204,-0.1893708,0.51737773,0.29496288,1.5038296,0.08315159
71,1778428703850,0.8820873555555555,-0.2496249955555555,0.6583751477777777,0.3998928577777778,1.5282635111111111,0.0781290633333333
72,1778428703860,0.9151754,-0.28773022,0.7631238,0.44828552,1.498332,0.0898709
73,1778428703870,0.9388086,-0.28931566125,0.8055005,0.50753773125,1.41456955,0.1002553075
74,1778428703880,0.9971957333333332,-0.2806295211111111,0.8268232755555556,0.61769382,1.2857571,0.0919070616666666
75,1778428703890,1.0374385,-0.2728513,0.85245824,0.6975112,1.2112337,0.076432265
76,1778428703900,1.0418899875,-0.26971086375,0.8492530375,0.77043110375,1.1196066325,0.073148959375
77,1778428703910,1.0430486,-0.25797236,0.79974174,0.9813515666666668,0.8123504733333333,0.0784684216666666
78,1778428703920,1.0439158888888889,-0.2523080933333333,0.74442686,1.0127084,0.7402705,0.076432265
79,1778428703930,1.0410668125,-0.25959595125,0.74285200375,0.9886562875,0.69926738,0.073072605
80,1778428703940,1.0352433111111112,-0.2817102155555555,0.777081251111111,0.870584581111111,0.5248450333333333,0.0431750241888888
81,1778428703950,1.0254866,-0.24135554,0.7616603,0.84777963,0.5069269,0.0019088977
82,1778428703960,1.019388725,-0.19788883375,0.745653275,0.81838261125,0.49241925625,-0.0145076227375
83,1778428703970,1.01573,-0.17180881,0.73604906,0.8007444,0.48371467,-0.024357535
84,1778428703980,1.01573,-0.17180881,0.73604906,0.8007444,0.48371467,-0.024357535
85,1778428703990,1.01573,-0.17180881,0.73604906,0.8007444,0.48371467,-0.024357535
86,1778428704000,1.01573,-0.17180881,0.73604906,0.8007444,0.48371467,-0.024357535
87,1778428704010,1.01573,-0.17180881,0.73604906,0.8007444,0.48371467,-0.024357535
88,1778428704020,1.01573,-0.17180881,0.73604906,0.8007444,0.48371467,-0.024357535
89,1778428704030,1.01573,-0.17180881,0.73604906,0.8007444,0.48371467,-0.024357535
90,1778428704040,1.01465524125,-0.12608586375,0.7612448775,0.5247941485000001,0.41300909875,0.044591849375
91,1778428704050,1.054326388888889,-0.0940501988888889,0.8587221755555555,0.0543569207777777,0.2919086333333333,0.087427513
92,1778428704060,1.0782031,-0.10445731,0.88736886,0.010918895,0.17951274,0.028786177
93,1778428704070,1.0782031,-0.10445731,0.88736886,0.010918895,0.17951274,0.028786177
94,1778428704080,1.0782031,-0.10445731,0.88736886,0.010918895,0.17951274,0.028786177
95,1778428704090,1.0782031,-0.10445731,0.88736886,0.010918895,0.17951274,0.028786177
96,1778428704100,1.0782031,-0.10445731,0.88736886,0.010918895,0.17951274,0.028786177
97,1778428704110,1.0782031,-0.10445731,0.88736886,0.010918895,0.17951274,0.028786177
98,1778428704120,1.0782031,-0.10445731,0.88736886,0.010918895,0.17951274,0.028786177
99,1778428704130,1.0920149,-0.1736763025,0.95827621875,-0.0045049986125,-0.046710725125,-0.2318738045
100,1778428704140,1.097662222222222,-0.2243356011111111,1.018223411111111,0.0070501955333333,-0.25100732,-0.3369840833333333
101,1778428704150,1.0872281,-0.2125734,1.0149982,0.024968382,-0.290916,-0.33413345
102,1778428704160,1.0872281,-0.2125734,1.0149982,0.024968382,-0.290916,-0.33413345
103,1778428704170,1.0872281,-0.2125734,1.0149982,0.024968382,-0.290916,-0.33413345
104,1778428704180,1.0872281,-0.2125734,1.0149982,0.024968382,-0.290916,-0.33413345
105,1778428704190,1.0872281,-0.2125734,1.0149982,0.024968382,-0.290916,-0.33413345
106,1778428704200,0.9982899555555556,-0.1437211288888888,1.0082430777777778,0.2017068593333333,-0.4100312222222222,-0.2487505766666666
107,1778428704210,0.9198098,-0.13226382,1.0386581,0.43423605,-0.5315898,-0.15271181
108,1778428704220,0.9083457,-0.12445848,1.0110955,0.60344076,-0.49005222,-0.15149012
109,1778428704230,0.86548494,-0.07004219375,0.93033624625,0.71010995125,-0.4080459775,-0.1570545575
110,1778428704240,0.8220194644444444,-0.0198114535555555,0.8540775755555556,0.7474649311111111,-0.3313676811111111,-0.1408257488888889
111,1778428704250,0.7975465,0.010732334,0.8034005,0.73416203,-0.27625567,-0.11231954
112,1778428704260,0.7539938644444445,0.0484411721111111,0.7472082111111111,0.7516730144444445,-0.1903298277777777,-0.0580220062222222
113,1778428704270,0.7209261825,0.087226885,0.6970795425,0.7941014625,-0.1181225925,0.0434465125
114,1778428704280,0.7537533422222222,0.0765119186666666,0.6254057466666666,0.8552455666666666,-0.1990174355555555,0.1629689633333333
115,1778428704290,0.7971844875,0.0432609085,0.59470317375,0.835562725,-0.24281178375,0.20799348625
116,1778428704300,0.8407503,0.0043905,0.6030535,0.7842515,-0.25670856,0.2138729
117,1778428704310,0.8844189325,0.011044851625,0.55886646,0.72774817,-0.2773246475,0.163325288125
118,1778428704320,0.8893709944444443,0.0329829534444444,0.4755799222222222,0.6871268277777778,-0.2609844933333333,0.0714776134755555
119,1778428704330,0.8617271475,0.019330395575,0.3521089425,0.60084465,-0.242353655,-0.023746687645
120,1778428704340,0.8279785533333334,-0.0071345625444444,0.2497198477777778,0.5005469044444445,-0.1737011966666666,-0.1107754555555555
121,1778428704350,0.7978514050000001,-0.04728934475,0.1285593215,0.40606070625,0.008408694375,-0.15751269375
122,1778428704360,0.7927765944444444,-0.0823964088888888,0.046374656,0.2351676961111111,0.3583552333333333,-0.1428618955555555
123,1778428704370,0.79394878125,-0.10302430625,0.05476310275,0.035352785,0.4892123,-0.0988809
124,1778428704380,0.8145157177777778,-0.1160298072222222,0.1178490155555555,-0.3082233533333333,0.4220191066666666,-0.02598646
125,1778428704390,0.86008072,-0.12128756375,0.15650303,-0.4651602,0.328712175,-0.01000262375
126,1778428704400,0.8886875249999999,-0.1151286649999999,0.1623570325,-0.5494570999999999,0.1950702514999999,-0.02863346625
127,1778428704410,0.9079391766666666,-0.10616473,0.1310645566666666,-0.5793037822222222,-0.008297342,-0.1090786577777777
128,1778428704420,0.90761393,-0.09884723,0.10031073,-0.53464407,-0.10094251,-0.20463383
129,1778428704430,0.8905600755555556,-0.0919836853333333,0.0756514328888889,-0.4499399088888889,-0.0424199466666666,-0.2403344644444444
130,1778428704440,0.8763315875,-0.0795892468749999,0.05674111625,-0.318404135,0.16683766,-0.2383831425
131,1778428704450,0.870020225,-0.100066818125,0.051771311875,-0.26541312625,0.36131615375,-0.22211933
132,1778428704460,0.8717277,-0.1290929,0.06393666,-0.2103509825,0.53907268125,-0.1984394525
133,1778428704470,0.9150161744444444,-0.134946906,0.0908792855555555,-0.1742356944444444,0.5191437855555555,-0.1296268844444444
134,1778428704480,0.95081770625,-0.100581329125,0.09939223125,-0.15324631625,0.31984535,-0.09361234375
135,1778428704490,0.9581275875,-0.0440498295,0.069912615,-0.13934954,-0.04902049,-0.06956023
136,1778428704500,0.9325747466666664,-0.0191881106666666,0.0573509066666666,-0.1574713311111111,-0.3806426688888888,-0.0481127085555555
137,1778428704510,0.91761455,-0.009939603675,0.0426473055,-0.113999371125,-0.5192965350000001,-0.028251684875
138,1778428704520,0.9117605,-0.0017074167,0.0278065019999999,-0.026342789,-0.4674508599999999,-0.02985516
139,1778428704530,0.9174010625,-0.0044514793874999,0.018507177625,0.067193197875,-0.35329877875,-0.0443627825
140,1778428704540,0.9524133066666668,-0.0210649145555555,-0.0043091942888888,0.2067293811111111,-0.1749229022222222,-0.0777048617777777
141,1778428704550,0.9846687275,-0.03466665625,-0.0214113095,0.2370850925,-0.13453911,-0.0959793775
142,1778428704560,1.00011174,-0.0457648622499999,-0.0434476575,0.21853061,-0.168822915,-0.09933903375
143,1778428704570,0.9875678066666668,-0.0619040146666666,-0.0673514913333333,0.1685853527777777,-0.2197183633333333,-0.1051251211111111
144,1778428704580,0.973319,-0.068205195,-0.07918906925,0.110257928875,-0.24380440625,-0.09017632375
145,1778428704590,0.9705749,-0.07149807,-0.094212815,0.074447006,-0.2261662,-0.08055548
146,1778428704600,0.9237695625,-0.0591764675,-0.1154945425,0.035963632,-0.1029277615,-0.0913980185
147,1778428704610,0.8672830266666666,-0.016450824,-0.1041795177777777,0.0451942126666666,0.050700324,-0.0766189133333333
148,1778428704620,0.8526107325,0.016799761125,-0.0481011251875,0.10040801625,0.1730988474999999,-0.05642701425
149,1778428704630,0.8526750688888889,0.0280267037777777,-0.0079645571111111,0.2152812411111111,0.1957341288888888,-0.0510990694444444
150,1778428704640,0.86416626,0.03369099,0.03369099,0.27297238,0.16790664,-0.05245651
151,1778428704650,0.923773398888889,0.0089368373333333,0.0693909067777777,0.3405049255555555,-0.0551289689333333,-0.1033095438888888
152,1778428704660,0.98033154,-0.03491057,0.09957898,0.36948624,-0.2518218,-0.15943113
153,1778428704670,1.0875262555555554,-0.0231585337777777,0.0109525377777777,0.3857755,-0.6895956666666666,-0.3243598866666667
154,1778428704680,1.090147475,-0.03002461875,-0.0792576725,0.350397255,-0.7233958625,-0.41705595
155,1778428704690,1.0487366333333332,-0.0267224277777777,-0.1504525433333333,0.2532216488888889,-0.5923352144444444,-0.5153514444444445
156,1778428704700,0.98502695,-0.020671938,-0.1960861325,0.054518115,-0.3152735455,-0.60954925
157,1778428704710,0.9591379222222224,-0.0279962131111111,-0.2157443044444444,-0.1462809577777778,0.0826595131111111,-0.6700994277777778
158,1778428704720,0.9444339,-0.026464958375,-0.189054475,-0.3438306525,0.663074705,-0.72415943375
159,1778428704730,0.93863325,-0.0183852181375,-0.14527142875,-0.42591324,0.94979113,-0.74095774
160,1778428704740,0.944475825,0.006227497475,-0.107140394,-0.5581616725,1.168627175,-0.758214155
161,1778428704750,0.9436017666666668,0.04160473,-0.0835821122222222,-0.7047989755555555,1.1082041933333333,-0.7415685444444444
162,1778428704760,0.93432278,0.0621987475,-0.0566458385,-0.8527427625,0.88045996125,-0.6995728
163,1778428704770,0.92663944,0.08418174,0.002927,-0.9671239,0.5533513,-0.6450547
164,1778428704780,0.92474229,0.08485929,0.0514731944444444,-0.9902003888888888,0.3733549533333333,-0.6325662822222222
165,1778428704790,0.92322457,0.08540133,0.09031015,-1.019046,0.14835952,-0.61695576
166,1778428704800,0.92322457,0.08540133,0.09031015,-1.019046,0.14835952,-0.61695576
167,1778428704810,0.92322457,0.08540133,0.09031015,-1.019046,0.14835952,-0.61695576
168,1778428704820,0.92322457,0.08540133,0.09031015,-1.019046,0.14835952,-0.61695576
169,1778428704830,0.92322457,0.0854013299999999,0.09031015,-1.019046,0.14835952,-0.61695576
170,1778428704840,0.88172823,0.0866514,0.06613191,-0.9732324,0.6003865,-0.23578705
171,1778428704850,0.9503298,0.031007906,0.17644322,-0.90054154,0.48615807,-0.017027367
172,1778428704860,0.9503298,0.031007906,0.17644322,-0.90054154,0.48615807,-0.017027367
173,1778428704870,0.9503298,0.031007906,0.17644322,-0.90054154,0.48615807,-0.017027367
174,1778428704880,0.9503298,0.031007906,0.17644322,-0.90054154,0.48615807,-0.017027367
175,1778428704890,0.9503298,0.031007906,0.17644322,-0.90054154,0.48615807,-0.017027367
176,1778428704900,1.197778233333333,0.0591447108333333,0.17616373,-0.62230065,0.78425155,0.07459972
177,1778428704910,1.1594579,0.0877828988888888,0.2359961577777777,-0.645954,0.7568991500000001,0.1129473588888888
178,1778428704920,1.1492134,0.07979124,0.26675338,-0.7252284,0.56251395,0.32199287
179,1778428704930,1.1492134,0.07979124,0.26675338,-0.7252284,0.56251395,0.32199287
180,1778428704940,1.1492134,0.07979124,0.26675338,-0.7252284,0.56251395,0.32199287
181,1778428704950,1.1492134,0.07979124,0.26675338,-0.7252284,0.56251395,0.32199287
182,1778428704960,1.1492134,0.07979124,0.26675338,-0.7252284,0.56251395,0.32199287
183,1778428704970,1.1630082555555556,0.0510361754444444,0.2327134555555555,-0.3143997,-0.113295202,0.5604947888888889
184,1778428704980,1.171044025,0.0373154398125,0.1999163925,-0.20668590125,-0.17714570875,0.5263212875
185,1778428704990,1.155646675,0.0107323338125,0.16784514625,-0.09636115625,-0.224180935,0.49516804375
186,1778428705000,1.110827,-0.0129275833333333,0.1422847266666666,0.0529994833333333,-0.2723191022222222,0.4693428033333333
187,1778428705010,1.0721585500000002,-0.03269245625,0.1293368174999999,0.206848155,-0.3168770125,0.45958621
188,1778428705020,1.0344303,-0.059952684,0.1011237899999999,0.3670428511111111,-0.3421593022222222,0.4514246088888889
189,1778428705030,1.010055125,-0.07747784275,0.082653450625,0.52242712125,-0.35635302625,0.4388937475
190,1778428705040,0.9792339625,-0.09744471125,0.0417059435,0.734772875,-0.3431434399999999,0.417590455
191,1778428705050,0.9750467333333334,-0.1057581983333333,-0.0474214646666666,0.9165339,-0.3158249988888889,0.3750008177777778
192,1778428705060,0.987774825,-0.091007597625,-0.09832890375,1.005836375,-0.32489438,0.32519982
193,1778428705070,1.005864922222222,-0.0675412049999999,-0.1472003188888889,1.0226856111111111,-0.3935383533333333,0.2640302433333333
194,1778428705080,1.0206083,-0.059302237,-0.18473639,1.002324,-0.43324342,0.24502611
195,1778428705090,1.0321943,-0.0575338417499999,-0.2261717325,0.8758785950000001,-0.5210527325,0.2473167875
196,1778428705100,1.0225868,-0.0543697025555555,-0.2585990755555555,0.7437998355555556,-0.5727202233333334,0.2711568011111111
197,1778428705110,1.0026804500000002,-0.06503427875,-0.292547545,0.57656346375,-0.652995725,0.31611346
198,1778428705120,1.0015016,-0.089232846,-0.3039100133333333,0.4972211655555555,-0.7060206666666667,0.3388929755555556
199,1778428705130,1.001339,-0.10323773,-0.3006578,0.4440096,-0.7392779,0.35314608
200,1778428705140,1.0013186,-0.1038339744444444,-0.2880283288888889,0.3806172311111111,-0.7364272777777778,0.3645485555555555
201,1778428705150,1.0150287375,-0.10735382875,-0.274192825,0.26472593,-0.7078192325,0.3749838675
202,1778428705160,1.0416157444444445,-0.1069235766666666,-0.2586194255555555,0.1725219258888889,-0.6696412988888889,0.3722859555555555
203,1778428705170,1.0579542625,-0.107384319375,-0.23595890625,0.044973628875,-0.63596834375,0.3518480149999999
204,1778428705180,1.024198525,-0.12201931625,-0.228610905,-0.05894676125,-0.6431458175,0.3319191225
205,1778428705190,0.990941995,-0.1188788925,-0.2183054087499999,-0.1624949225,-0.6763606475,0.314739045
206,1778428705200,0.9618752777777778,-0.1138887588888889,-0.2261242966666666,-0.2547402755555555,-0.7487799722222223,0.3079433922222222
207,1778428705210,0.96195654,-0.1240519466666666,-0.2363145933333333,-0.34263442,-0.8453617000000001,0.3244362533333333
208,1778428705220,0.985522405,-0.1315320625,-0.2388553875,-0.42163732,-0.88206345,0.3418453999999999
209,1778428705230,1.0026398,-0.1245397922222222,-0.2180445544444444,-0.4863871322222222,-0.7908605744444445,0.3534854144444444
210,1778428705240,1.012498075,-0.085424196,-0.136364665,-0.57938860125,-0.6243622687499999,0.344517855
211,1778428705250,1.0049977,-0.030520074,-0.03515449,-0.68307996,-0.53830916,0.29694813
212,1778428705260,0.9972668444444446,0.014912794,0.0576015978888888,-0.7109753177777778,-0.5906384066666667,0.2531707377777777
213,1778428705270,0.95040098,0.03490041,0.1187670866666666,-0.6826048222222222,-0.7202737888888888,0.2370850866666666
214,1778428705280,0.9143623355555556,0.0054169831111111,0.1116901144444444,-0.6164975777777778,-0.8917861333333335,0.2698672233333333
215,1778428705290,0.9020039,-0.042959824,0.06027791,-0.562743,-1.0514208,0.32687965
216,1778428705300,0.94346964,-0.09201756,-0.042715907,-0.5804576,-0.9512419,0.3519244
217,1778428705310,0.989173625,-0.12433652875,-0.068875967,-0.6577298025,-0.6846070375000001,0.3441360825
218,1778428705320,0.99637593,-0.1244550944444444,-0.0261770029999999,-0.77939022,-0.30170764,0.26192622
219,1778428705330,0.9958813025,-0.06770973775,0.09023392275,-0.85900399,-0.0231931074999999,0.170044609
220,1778428705340,0.9747824575,-0.02451362575,0.20438693,-0.880994445,0.13263021,0.0918561555
221,1778428705350,0.94715893,-0.0190255,0.26846078,-0.8535063,0.12026055,0.053830914
222,1778428705360,0.8889847999999999,-0.0757361233333333,0.27300374,-0.7299115833333334,-0.0593879322222222,0.0469079791111111
223,1778428705370,0.8676116,-0.1211084299999999,0.20579707875,-0.52151087,-0.2932066925,0.05551074425
224,1778428705380,0.87270335,-0.1623773533333333,0.0937961243333333,-0.39428494,-0.3170467022222222,0.0649619102222222
225,1778428705390,0.8902721811111112,-0.1739769555555555,0.0595190545555555,-0.2882690066666666,-0.2258947111111111,0.07616078
226,1778428705400,0.92956644,-0.17985806,0.06881499,-0.2239423325,-0.1278961462499999,0.07895200775
227,1778428705410,0.9433409577777778,-0.1823548177777777,0.0838666811111111,-0.137517,0.1051336,0.004284416
228,1778428705420,1.0535371,-0.20232888,0.20428021,0.02069245,0.42873842,-0.13919681
229,1778428705430,1.0000243822222223,-0.16166593,0.2994449722222222,0.1670921833333333,0.6213589333333334,-0.2036157533333333
230,1778428705440,0.9209607425,-0.1118967725,0.3284947725,0.2531198325,0.7854731925,-0.1992698299999999
231,1778428705450,0.8648709355555556,-0.0921259733333333,0.3699131822222222,0.2536967511111111,0.845336278888889,-0.1132018739999999
232,1778428705460,0.8633468624999999,-0.103420668,0.4086823725,0.20837527625,0.7391252075,-0.001450762625
233,1778428705470,0.8951742,-0.120067984,0.4182866,0.12392564,0.59427804,0.09903361
234,1778428705480,0.9416784625,-0.135560505,0.4371024925,0.0669641312499999,0.470886875,0.1814979925
235,1778428705490,0.9978326,-0.17262186,0.4987587733333333,0.0658272777777777,0.3278128955555555,0.1827875633333333
236,1778428705500,0.962883925,-0.178333585,0.5135894175,0.094146835,0.216469,0.128965129
237,1778428705510,0.8845434888888888,-0.1762264155555555,0.4922847988888889,0.1468663555555555,0.2306881555555555,0.0817262707777777
238,1778428705520,0.84221375,-0.18741947,0.51640207,0.24243,0.33711132,0.026342789
239,1778428705530,0.8726287844444445,-0.1869485777777778,0.4919426688888888,0.3559118555555555,0.4371545377777777,-0.0729029257777777
240,1778428705540,0.9501435188888888,-0.1242857139999999,0.4253872933333333,0.3967028866666666,0.5638035377777778,-0.2625285866666667
241,1778428705550,0.9869858975,-0.03386630625,0.4466571775,0.305194565,0.6081747875,-0.427287665
242,1778428705560,1.0256492,-0.015691973,0.51730663,0.1626126311111111,0.5073340866666667,-0.5733819555555555
243,1778428705570,1.0425608,-0.010488417,0.54692215,0.099491745,0.44828552,-0.6334486
244,1778428705580,0.9910982,-0.0183852185,0.5725333912499999,0.074752435,0.506697785,-0.671626555
245,1778428705590,0.9024611955555556,-0.0388911558888888,0.6057602933333334,0.0871390611111111,0.6349333066666667,-0.6371815866666667
246,1778428705600,0.83744976,-0.0342398,0.618237275,0.1482068225,0.66681613,-0.494022715
247,1778428705610,0.7986576688888889,-0.0301914634444444,0.6003128222222222,0.1789019,0.6626929,-0.37811446
248,1778428705620,0.7954160625,-0.013598355125,0.5643317000000001,0.1366770725,0.661776675,-0.22027724375
249,1778428705630,0.8536575555555556,-0.0124397506666666,0.5579254888888889,0.0610762408888888,0.7381664866666666,-0.1438799744444444
250,1778428705640,0.9385989875,-0.01539724025,0.60357941875,0.002137965625,0.7467607725,-0.1500489025
251,1778428705650,1.0388749666666668,-0.0118706117777777,0.6867541611111112,-0.0325191342222222,0.6474896,-0.2653792011111111
252,1778428705660,1.02328375,-0.0054881255,0.717625725,-0.006032117,0.5796177,-0.3654393775
253,1778428705670,0.9516781844444444,0.0150449155555555,0.7122231555555556,0.0284298499999999,0.5401162466666667,-0.431869
254,1778428705680,0.85319006,0.05344824,0.7072364,0.05245651,0.52341974,-0.431869
255,1778428705690,0.8321691933333333,0.0465372661111111,0.6882650666666668,0.0687457711111111,0.4976284122222222,-0.3925032944444444
256,1778428705700,0.835719525,-0.05348254075,0.675740675,0.075668703125,0.414688935,-0.2285332387499999
257,1778428705710,0.8845841833333333,-0.1222733906666666,0.7217189466666667,0.0765510375555555,0.3417266188888889,-0.1499120988888888
258,1778428705720,0.93557668875,-0.15763114125,0.7641032725,0.148359526,0.28412033,-0.1183612012499999
259,1778428705730,0.9741421775,-0.15707852375,0.794589075,0.3325299675,0.311303045,-0.1668376575
260,1778428705740,0.96155,-0.1188484,0.7807163,0.454394,0.3444415,-0.21013145
261,1778428705750,0.96155,-0.1188484,0.7807163,0.454394,0.3444415,-0.21013145
262,1778428705760,0.9271920125,-0.04485398875,0.73446739875,0.53991263125,0.3048891287499999,-0.20944425125
263,1778428705770,0.9444250566666668,-0.0153938516666666,0.7052308555555555,0.5143249111111111,0.2521356833333333,-0.19126306
264,1778428705780,0.9520373,0.009268833,0.7135782,0.4440096,0.19417307,-0.1808108
265,1778428705790,0.9209988875,0.02675079775,0.694125875,0.2890071,0.1153737775,-0.1526927225
266,1778428705800,0.9143080888888888,0.045155072,0.6761709,0.1801914542222222,0.0880892633333333,-0.1388574633333333
267,1778428705810,0.9095652,0.05881441,0.6442754,0.092772424,0.08238802,-0.13553174
268,1778428705820,0.896393775,0.06003399275,0.686267175,-0.027106348,0.129575978,-0.1364479999999999
269,1778428705830,0.8862636,0.0575948255,0.746789,-0.0883437874999999,0.16164546,-0.1117086915
270,1778428705840,0.8844114,0.054667823,0.7899851,-0.13324106,0.15752223,-0.084220566
271,1778428705850,0.8856784,0.0441455307777777,0.8403132111111111,-0.2005869644444444,0.0544756957777777,-0.0356242732222222
272,1778428705860,0.8703252125,0.025031947125,0.85480595,-0.25487602,-0.045966256,0.0098499125
273,1778428705870,0.8348962,0.010732334,0.8456286,-0.25487602,-0.045966256,0.0098499125
274,1778428705880,0.8348962,0.010732334,0.8456286,-0.25487602,-0.045966256,0.0098499125
275,1778428705890,0.8352485333333334,0.0010264835555555,0.8427253111111112,-0.2774094955555555,-0.0619840286666666,0.0354376266666666
276,1778428705900,0.85173415,-0.0842503375,0.82475085,-0.4457657825,-0.1798945175,0.23280917
277,1778428705910,0.8927349999999998,-0.10714039,0.8405064,-0.41003123,-0.14919944,0.21081866
278,1778428705920,0.9437571142857144,-0.1577879471428571,0.8622149285714286,-0.2895852457142857,-0.19448941,0.1446726371428571
279,1778428705930,0.97179448,-0.2062315433333333,0.8812404666666667,-0.1503447766666666,-0.23675422,0.09251791
280,1778428705940,0.98008764,-0.21208555,0.8851431,-0.07704311,-0.23838314,0.07459972
281,1778428705950,0.98008764,-0.21208555,0.8851431,-0.07704311,-0.23838314,0.07459972
282,1778428705960,1.0051568444444443,-0.1748984244444444,0.9026237466666668,0.1226360744444444,-0.2032254844444444,0.058514077
283,1778428705970,1.0062172,-0.17205273,0.90566254,0.12881242,-0.19989976,0.05932854
284,1778428705980,1.0062172,-0.17205273,0.90566254,0.12881242,-0.19989976,0.05932854
285,1778428705990,1.0062172,-0.17205273,0.90566254,0.12881242,-0.19989976,0.05932854
286,1778428706000,1.0308877142857142,-0.1161304742857142,0.9449201114285714,0.2454842485714286,-0.2245954428571428,0.0821044142857142
287,1778428706010,1.024320475,-0.0638146959999999,0.964355075,0.270834405,-0.3260397225,0.05688514875
288,1778428706020,0.9952105,-0.042959824,0.9654527,0.24976017,-0.414918,0.038559735
289,1778428706030,0.9952105,-0.042959824,0.9654527,0.24976017,-0.414918,0.038559735
290,1778428706040,0.9952105,-0.042959824,0.9654527,0.24976017,-0.414918,0.038559735
291,1778428706050,0.9952105,-0.042959824,0.9654527,0.24976017,-0.414918,0.038559735
292,1778428706060,0.948942565,-0.03585193941625,0.9119396575,0.193714935125,-0.30901235625,0.0711637076249999
293,1778428706070,0.8252107666666667,0.0085370834466666,0.7998230866666667,0.0986094122222222,-0.1141775355555555,0.2291440777777778
294,1778428706080,0.7941317,0.025123417,0.77608186,0.08910734,-0.17546588,0.3189386
295,1778428706090,0.8026688,0.006341833,0.7475131,0.09216158,-0.29763532,0.4062898
296,1778428706100,0.8026688,0.006341833,0.7475131,0.09216158,-0.29763532,0.4062898
297,1778428706110,0.8026688,0.006341833,0.7475131,0.09216158,-0.29763532,0.4062898
298,1778428706120,0.8026688,0.006341833,0.7475131,0.09216158,-0.29763532,0.4062898
299,1778428706130,0.8771853,-0.058743269,0.6635651333333333,0.1035640633333333,-0.3245126,0.2242573066666666
300,1778428706140,0.91194342,-0.0846924475,0.5511221,0.12362021,-0.3075616025,-0.0347610264499999
301,1778428706150,0.8917830044444445,-0.061470394,0.4971800800000001,0.1469342166666666,-0.3453492911111111,-0.1605170833333333
302,1778428706160,0.85489744,-0.033934906,0.41560352,0.19417307,-0.43874106,-0.19852535
303,1778428706170,0.85489744,-0.033934906,0.41560352,0.19417307,-0.43874106,-0.19852535
304,1778428706180,0.85489744,-0.033934906,0.41560352,0.19417307,-0.43874106,-0.19852535
305,1778428706190,0.8376751885714285,-0.0380466451428571,0.3689544571428572,0.22419185,-0.3972034428571429,-0.1966055442857142
306,1778428706200,0.7702278955555556,-0.0722569225555555,0.18629135,0.2879720644444444,-0.0765595199999999,-0.2042944766666666
307,1778428706210,0.7713661777777778,-0.0649055448888888,0.1328871588888888,0.2034715299999999,0.2122270066666666,-0.1965570766666666
308,1778428706220,0.8209422,0.0406832666666666,0.1389647455555555,0.0943334844444444,0.4455706577777777,-0.1602286253333333
309,1778428706230,0.8789270625,0.078358227875,0.17930923625,0.085289555,0.46760358,-0.12079504475
310,1778428706240,0.9244441333333332,0.0222065823333333,0.1970948266666666,0.0823880266666666,0.2558686483333333,-0.09603028
311,1778428706250,0.9317616,-0.035886243,0.1993714,0.07017108,0.109265305,-0.0988809
312,1778428706260,0.8899841333333333,-0.1065170566666666,0.1596332955555555,0.0244932789444444,-0.1187928222222222,-0.1512864955555555
313,1778428706270,0.80735066,-0.1411803233333333,0.0782904725911111,-0.0197592122777777,-0.2607808888888889,-0.1985932244444444
314,1778428706280,0.7398221524999999,-0.12927583875,-0.015313392505,-0.076737688,-0.24830941,-0.2035648475
315,1778428706290,0.6851009575,-0.1068355062499999,-0.0582046125,-0.1489703775,-0.051597505,-0.1591066175
316,1778428706300,0.68455213,-0.09713981,-0.05344824,-0.2034885,0.1440836,-0.11781716
317,1778428706310,0.7191442722222222,-0.07486209,0.00022359,-0.2400035888888889,0.4283311777777778,-0.0508275813333333
318,1778428706320,0.75215133875,-0.060883887125,0.05847902125,-0.23387814375,0.6326850325000001,0.01007898
319,1778428706330,0.8231645788888888,-0.0053593912222222,0.0595732584444444,-0.2154424366666666,0.6373088022222222,0.0261391723777777
320,1778428706340,0.8624589,0.030520074,0.029788323,-0.21639264,0.5954997,0.0019088977
321,1778428706350,0.80193704,0.012195834,-0.0041465834,-0.290916,0.44584215,-0.026190076
322,1778428706360,0.8277998175,0.033687179,0.015008498325,-0.3500154775,0.32435989625,-0.0204633828749999
323,1778428706370,0.884929661111111,0.0517374361111111,0.0413337151111111,-0.3475211811111111,0.2141952877777777,-0.0077967864444444
324,1778428706380,0.9298789625,0.02176956225,0.0265488045,-0.2505809875,0.0222004825,0.0544417625
325,1778428706390,0.978509825,0.02507005925,-0.01421576825,-0.16271444375,-0.19608196875,0.0964375125
326,1778428706400,1.0030463,0.041008487,-0.050277323,-0.11247225,-0.38315395,0.12102412
327,1778428706410,1.05336175,0.04008618,-0.127697995,-0.08727480425,-0.7085828224999999,0.1650051075
328,1778428706420,1.0682026,0.00219525,-0.16302781,-0.092314295,-0.7777613,0.18149799
329,1778428706430,1.0914018,-0.0220880095555555,-0.1831915788888888,-0.0483332896666666,-0.7560422511111111,0.2059318833333333
330,1778428706440,1.11511845,-0.055883596,-0.19860152,0.0324512597499999,-0.73958331,0.229754925
331,1778428706450,1.151273111111111,-0.1133501113333333,-0.2092364766666666,0.2422942611111111,-0.6863378,0.2581932655555555
332,1778428706460,1.1674538,-0.1625399675,-0.1989521575,0.45133978,-0.5865661,0.24013934
333,1778428706470,1.17827,-0.17278448,-0.2013532,0.6431458,-0.45645562,0.19249325
334,1778428706480,1.18924625,-0.1547803775,-0.18822362625,0.6720083375,-0.43874104875,0.166074105
335,1778428706490,1.198867411111111,-0.1165176399999999,-0.12738547,0.8048167133333334,-0.3451456544444444,0.0591927955555555
336,1778428706500,1.1926915875,-0.09719698125,-0.08591583725,0.9642987625,-0.36879902,-0.139511785
337,1778428706510,1.1533769444444444,-0.0546949248888888,-0.0648581227777777,1.1010776333333334,-0.5328115333333333,-0.3744493666666666
338,1778428706520,1.107678975,-0.051984739,-0.07335794125,1.152668775,-0.5757235425,-0.46401484375
339,1778428706530,1.0406094625,-0.03445322625,-0.08052680375,1.2110810375,-0.50310906,-0.52632128125
340,1778428706540,1.023809677777778,-0.0346395515555555,-0.1080381422222222,1.2770016333333334,-0.29580278,-0.5385636666666667
341,1778428706550,1.0818890111111112,-0.0569714786666666,-0.1791805044444444,1.2151024333333331,-0.19114429,-0.5933362999999999
342,1778428706560,1.0667582,-0.032033119125,-0.1744309124999999,1.087689825,-0.18279604375,-0.6605549475
343,1778428706570,1.0342677,-0.018293751,-0.15766165,1.0151517,-0.1797418,-0.68231636
344,1778428706580,1.0206083625,-0.0068601565625,-0.1528709637499999,0.9026031525,-0.113617588075,-0.6979693299999999
345,1778428706590,1.0005156333333334,0.0231009416666666,-0.1307190033333333,0.59407439,0.0371344236,-0.7246684533333334
346,1778428706600,0.96233129375,0.047533261375,-0.07299968125,0.3379512424999999,0.105982,-0.65452284
347,1778428706610,0.8961634144444446,0.0607928435555555,0.0064570177777777,0.1532463066666666,0.1110214881111111,-0.5354415666666666
348,1778428706620,0.7979124200000001,0.058936365,0.11334503,-0.0252738049999999,-0.0035123718749999,-0.22606120875
349,1778428706630,0.8089001,0.055978876125,0.132782134,-0.140141725,-0.0749815024999999,0.02932067125
350,1778428706640,0.8723036,0.0610096589999999,0.1158400842222222,-0.2357361444444444,-0.0906259813333333,0.1961583311111111
351,1778428706650,0.9514478,0.0754922066666666,0.1081973633333333,-0.3374761477777778,-0.0668029382222222,0.3017670322222222
352,1778428706660,0.999974525,0.0895783924999999,0.0976200275,-0.4934118549999999,-0.0186308415,0.37345673
353,1778428706670,1.0132366222222222,0.0981154811111111,0.0331896075555555,-0.6867449899999999,0.0794865013333333,0.3749329566666666
354,1778428706680,1.0125590333333334,0.0981967846666666,0.0043905001999999,-0.86775943,0.24466978,0.3673991766666666
355,1778428706690,1.0194428555555557,0.0864820097777777,0.0041736851333333,-1.0111049388888889,0.4060691977777778,0.3614264455555556
356,1778428706700,1.0256492777777777,0.0452296004444444,0.0370008022222222,-1.1121661777777778,0.5205012688888888,0.3586436955555556
357,1778428706710,1.0228037,-0.013415418,0.076864235,-1.1369394,0.54357773,0.36169794
358,1778428706720,1.0199308777777778,-0.0309367651111111,0.088741625,-1.1004243244444445,0.5101847388888889,0.37310042
359,1778428706730,1.009876,-0.09226148,0.13031249,-0.97262156,0.39330927,0.4130091
360,1778428706740,1.009876,-0.09226148,0.13031249,-0.97262156,0.39330927,0.4130091
361,1778428706750,1.009876,-0.09226148,0.13031249,-0.97262156,0.39330927,0.4130091
362,1778428706760,1.009876,-0.09226148,0.13031249,-0.97262156,0.39330927,0.4130091
363,1778428706770,1.0218279125,-0.0385617009125,0.1855062475,-0.47750121375,0.40865681125,0.3643703925
364,1778428706780,1.0233693222222222,-0.0078900266222222,0.2245523888888888,-0.0874953877777777,0.4953886311111111,0.3057036044444444
365,1778428706790,1.0005767,-0.033934906,0.24428254,0.08299887,0.6718556,0.27312508
366,1778428706800,1.0005767,-0.033934906,0.24428254,0.08299887,0.6718556,0.27312508
367,1778428706810,1.0005767,-0.033934906,0.24428254,0.08299887,0.6718556,0.27312508
368,1778428706820,1.0005767,-0.033934906,0.24428254,0.08299887,0.6718556,0.27312508
369,1778428706830,0.8911103571428571,-0.030890304,0.1833730657142857,0.5550092914285715,0.3423471571428571,0.3091650642857143
370,1778428706840,0.8739330999999999,-0.0134967223333333,0.0971194866666666,0.8475081666666667,0.0758044504444444,0.3464267455555555
371,1778428706850,0.8959059,0.006341833,0.0190255,0.96628395,0.08605310775,0.32397812
372,1778428706860,0.9181023,0.0012195833,-0.08076691,1.0304229,0.17951274,0.28228778
373,1778428706870,0.9181023,0.0012195833,-0.08076691,1.0304229,0.17951274,0.28228778
374,1778428706880,0.9181023,0.0012195833,-0.08076691,1.0304229,0.17951274,0.28228778
375,1778428706890,0.9181023,0.0012195833,-0.08076691,1.0304229,0.17951274,0.28228778
376,1778428706900,0.926189675,-0.0198601529375,-0.15862206125,0.8454889275,0.12864061625,0.188140949875
377,1778428706910,0.9486224,-0.057594825,-0.28821802,0.4010466844444444,0.0764152944444444,0.0282432021111111
378,1778428706920,0.9792377625,-0.057747271375,-0.25192780875,0.23112932375,0.1082726745,0.0377961737499999
379,1778428706930,1.0179253,-0.062473156,-0.15034413,0.07933379,0.084220566,0.066658705
380,1778428706940,1.0179253,-0.062473156,-0.15034413,0.07933379,0.084220566,0.066658705
381,1778428706950,1.0179253,-0.062473156,-0.15034413,0.07933379,0.084220566,0.066658705
382,1778428706960,1.0179253,-0.062473156,-0.15034413,0.07933379,0.084220566,0.066658705
383,1778428706970,1.03390185,-0.0596681145,-0.096042186,0.031993126,0.0230976629999999,0.0807081925
384,1778428706980,1.150764625,-0.1133869562499999,-0.042128982375,0.01214058825,-0.60191362,0.09261971125
385,1778428706990,1.1394452875,-0.141734645,-0.1971684999999999,-0.011758809375,-0.77608143125,0.044210068375
386,1778428707000,1.0930821,-0.13592257,-0.2821201,-0.055663455,-0.8211314,0.012904149
387,1778428707010,1.0855778375,-0.13766428625,-0.287185185,-0.061695571875,-0.81952793125,0.0115297425875
388,1778428707020,0.9789256822222224,-0.1729470822222222,-0.3368421377777778,-0.1466118266666666,-0.6989619522222221,-0.0064393481777777
389,1778428707030,0.947143705,-0.1561829,-0.2845592799999999,-0.1570640999999999,-0.412780035,0.000992627
390,1778428707040,0.9479516266666664,-0.126328515,-0.2323306266666666,-0.1521773244444444,-0.2696720955555556,0.0287861766666666
391,1778428707050,0.9688751,-0.08408265075,-0.1792025225,-0.172650255,-0.1490467412499999,0.096361154
392,1778428707060,1.0018268,-0.029544408,-0.11201873,-0.2538579333333333,-0.1530681433333333,0.1601183433333333
393,1778428707070,1.0086564625,-0.032471407875,-0.102715595625,-0.32184012875,-0.253577975,0.1853921425
394,1778428707080,1.0589185,-0.0682051985,-0.0255045364999999,-0.404533595,-0.402701065,0.245026105
395,1778428707090,1.0613729,-0.08344999,-0.013415418,-0.39903596,-0.45828816,0.26457322
396,1778428707100,1.0613729,-0.08344999,-0.013415418,-0.39903596,-0.45828816,0.26457322
397,1778428707110,0.9723399222222222,-0.1536370133333333,-0.1319250417777777,-0.1987544255555555,-0.6235562666666667,0.2148230977777777
398,1778428707120,0.9112116975,-0.0952951985,-0.1880292724999999,-0.2639814675,-0.4756973,0.1847049375
399,1778428707130,0.8941985400000001,-0.008537084,-0.18473639,-0.4381302,-0.2622062,0.18149799
400,1778428707140,0.940618905,0.0150923445,-0.1111230964999999,-0.681171065,-0.0079887424999999,0.17867282125
401,1778428707150,1.0286643777777775,-0.0004133033333333,0.0068364431111111,-0.8518095511111112,0.1563005377777777,0.1468154466666666
402,1778428707160,1.07917885,-0.069683945,0.1031005275,-0.8428165,0.10198285875,0.0376434625
403,1778428707170,1.0368974,-0.100188775,0.1007566412499999,-0.7773031575,0.00962084375,-0.020234315
404,1778428707180,0.9547431825,-0.09893489125,0.0540542233749999,-0.6173375275,-0.162256305,-0.0962847975
405,1778428707190,0.86441016,-0.07735208,0.020732917,-0.5376983,-0.22799873,-0.11231954
406,1778428707200,0.71222525,-0.08096127875,-0.0089334479375,-0.41781954,-0.2689254975,-0.140743025
407,1778428707210,0.716760575,-0.0856338074999999,-0.00640281225,-0.4730248499999999,0.0728721675,-0.20104511
408,1778428707220,0.791067485,-0.05698503,0.072229827,-0.63146335,0.534720415,-0.27946262
409,1778428707230,0.8326197066666666,-0.0379459807777777,0.1447408355555555,-0.7337802777777778,0.7016513966666666,-0.3181835377777777
410,1778428707240,0.8789308499999999,-0.05271649025,0.3104906775,-0.8525137025,0.66956496875,-0.34566317375
411,1778428707250,0.89718645,-0.0833318425,0.42813853125,-0.802958745,0.558085325,-0.32894124
412,1778428707260,0.8863017000000001,-0.0823320366666666,0.49410405,-0.5912492466666666,0.4643711833333334,-0.2962609266666666
413,1778428707270,0.8266742433333333,-0.073449405,0.5088406733333334,-0.3879049711111111,0.33636475,-0.2541803288888888
414,1778428707280,0.7821797850000001,-0.07912808875,0.467908385,-0.21927508,0.10206875925,-0.1925695925
415,1778428707290,0.8281377666666666,-0.0822507353333333,0.3702959999999999,-0.1992380133333333,0.0811154246666666,-0.1863084133333333
416,1778428707300,0.9243298425,-0.076620322,0.30413361,-0.298857025,0.380939615,-0.2363978875
417,1778428707310,0.97667277,-0.08174257,0.31456104,-0.3849865,0.66086036,-0.27304873
418,1778428707320,0.97667277,-0.08174257,0.31456104,-0.3849865,0.66086036,-0.27304873
419,1778428707330,1.0673489044444446,-0.1135025577777777,0.5282455877777777,-0.38037121,0.8852449244444444,-0.3106497711111111
420,1778428707340,1.0620017874999998,-0.10789121,0.64947003625,-0.25064782375,0.80242425,-0.2845784675
421,1778428707350,0.991079175,-0.0783277425,0.6815641225,-0.100255306625,0.6213843725,-0.2256221575
422,1778428707360,0.89516274,-0.0535397085,0.65456943625,0.06513159025,0.3939201275,-0.0915507265
423,1778428707370,0.8590440577777777,-0.0458868231111111,0.6020710533333333,0.2259371266666666,0.1770693466666666,0.098829996
424,1778428707380,0.88350811,-0.0496675335,0.49892011375,0.2788517625,0.16989188875,0.1971509525
425,1778428707390,0.9133535625,-0.071688632,0.4522138675,0.2681619425,0.25342525125,0.21310934125
426,1778428707400,0.9508990011111113,-0.0986304122222222,0.41663338,0.23571068,0.31756422,0.18943901
427,1778428707410,0.96716005,-0.09299323,0.40731034,0.16240901,0.45622656,0.1002553
428,1778428707420,0.96261715,-0.0237704436375,0.47314880625,0.04115583625,0.5530458250000001,-0.007406523125
429,1778428707430,0.9564209644444444,0.0050680465288888,0.5427247944444444,-0.0336729558888888,0.5549123444444445,-0.0607368824444444
430,1778428707440,0.94273794,-0.00024391667,0.5930224,-0.0298721278888888,0.5082164277777778,-0.0677276922222222
431,1778428707450,0.9306335925,-0.0001219583387499,0.622837375,0.0319931255,0.45469943,-0.0384070239749999
432,1778428707460,0.90273559,-0.00512225,0.6369579000000001,0.0999668522222222,0.4053904722222222,0.0099177843
433,1778428707470,0.88965176125,-0.021986800625,0.6420496375,0.14240377125,0.36696648875,0.05543439
434,1778428707480,0.8871283222222223,-0.0356965256666666,0.6284208444444445,0.1410293588888889,0.3471563644444444,0.0907532355555555
435,1778428707490,0.9046259625,-0.0185262331375,0.60648733125,0.1317139325,0.3824667475,0.0939941175
436,1778428707500,0.9073700666666666,0.0109051068666666,0.5978194,0.1239935066666666,0.42358017,0.0673374277777777
437,1778428707510,0.890532175,0.037349738,0.5946688,0.09987352375,0.4273640225,0.03726168475
438,1778428707520,0.8664428000000001,0.0424415004444444,0.5900174888888888,0.0618906993333333,0.3978566911111111,0.0203021873333333
439,1778428707530,0.8475189000000001,0.007256521,0.6250746150000001,0.068491248,0.3771218175,0.035658209
440,1778428707540,0.8638410333333334,-0.0281418863333333,0.7069213066666666,0.1591511611111111,0.3762734211111111,0.0710025077777777
441,1778428707550,0.879719775,-0.030459093875,0.72546915,0.2344889975,0.34551049,0.09605573125
442,1778428707560,0.9334759222222224,-0.0376478602222222,0.7095637555555556,0.3039898488888888,0.2668639044444444,0.1402318666666666
443,1778428707570,0.9707375144444446,-0.046374656,0.6847960166666667,0.30779067,0.2796917,0.1582858
444,1778428707580,1.000989978888889,-0.0385083435555555,0.6697206166666666,0.2718864044444444,0.3310707277777778,0.1483764988888888
445,1778428707590,1.0171629875,0.0005488125,0.6532088375,0.207459005,0.330086585,0.1205659799999999
446,1778428707600,1.009926788888889,0.0219016842222222,0.6566338444444445,0.1322060111111111,0.2545790711111111,0.1170196711111111
447,1778428707610,0.9920396,0.034232181,0.6569057,0.043904648875,0.1181225824999999,0.1344627474999999
448,1778428707620,0.9839903,0.01975725,0.6596726,-0.0092390645,0.04756973,0.15095563
449,1778428707630,0.9681967625,-0.0008537081875,0.7048391475,-0.0863585293749999,-0.016034740875,0.14064757625
450,1778428707640,0.9566953333333332,-0.0090283042222222,0.7199776600000001,-0.1295759766666666,-0.0592012806666666,0.1263181183333333
451,1778428707650,0.9331946625,-0.032776303125,0.7191540025,-0.15034479,-0.066124216,0.119802415
452,1778428707660,0.9115166,-0.047269018,0.7142388333333334,-0.20901157,-0.0675495266666666,0.10432762
453,1778428707670,0.89736565,-0.0442403855,0.7228775625,-0.23105297375,-0.0679567615,0.09361234
454,1778428707680,0.8778798088888888,-0.0426617008888888,0.7513886888888889,-0.2596949244444444,-0.0239757557777777,0.0701880471111111
455,1778428707690,0.8579464099999999,-0.047838156875,0.75882859625,-0.270834405,0.0137440629999999,0.0623064205
456,1778428707700,0.8660904777777777,-0.0500334072222222,0.78662451,-0.2770022755555555,0.0323579378888888,0.0695093266666666
457,1778428707710,0.8859087,-0.0551556533333333,0.8059481333333333,-0.2836537155555556,0.0049376819999999,0.0647582921111111
458,1778428707720,0.886881,-0.06710757,0.8131572,-0.28694550875,-0.01404948675,0.054518119125
459,1778428707730,0.91944389,-0.0813843215,0.8057787125,-0.2603736425,0.0131332155,0.02176143335
460,1778428707740,0.9412172525,-0.086956294625,0.8243506625,-0.2466295775,0.0059557602499999,-0.01412584295
461,1778428707750,0.958683945,-0.096347083125,0.86926186875,-0.22814190875,-0.028862533125,-0.060855658375
462,1778428707760,0.9622513275,-0.12580383625,0.91084583125,-0.18936265,-0.10254597875,-0.1217208593749999
463,1778428707770,0.9434087,-0.1406586133333333,0.9037824333333332,-0.1409784633333333,-0.1842892222222222,-0.1771457033333333
464,1778428707780,0.9334691,-0.13445906,0.8785574,-0.10819632,-0.2365506,-0.21562909
465,1778428707790,0.93240199375,-0.12955023125,0.8488910062499999,-0.07826481,-0.2386885662499999,-0.2610608487499999
466,1778428707800,0.9326018488888888,-0.1162703273333333,0.8314678955555554,-0.063400858,-0.2121167166666666,-0.30135132
467,1778428707810,0.92956644,-0.081010826,0.8324571,-0.058106847,-0.19867808,-0.31825143
468,1778428707820,0.92956644,-0.081010826,0.8324571,-0.058106847,-0.19867808,-0.31825143
469,1778428707830,0.9253588775,-0.1256856885,0.89330289875,0.011758809875,-0.195623835,-0.2970244812499999
470,1778428707840,0.9285908,-0.15717381,0.94249403,0.07933379,-0.19745637,-0.2663294
471,1778428707850,0.9285908,-0.15717381,0.94249403,0.07933379,-0.19745637,-0.2663294
472,1778428707860,0.9297532,-0.12251477125,0.9553835075,0.1391204631249999,-0.17897824125,-0.160681462125
473,1778428707870,0.95813519,-0.06320491,0.9749654233333334,0.2476561488888888,-0.1903976977777778,-0.0273438987777777
474,1778428707880,0.96252567,-0.03539841,0.97886807,0.3108449,-0.22983128,0.03061872
475,1778428707890,0.93987579625,-0.020218406,0.95944624625,0.39934140625,-0.3242835475,0.1349208949999999
476,1778428707900,0.9088606333333332,-0.0408458788888888,0.8530409388888889,0.4391228288888888,-0.3488786333333333,0.2398678488888889
477,1778428707910,0.8961498000000001,-0.05052124,0.7680021,0.41346723,-0.3037438,0.3030566
478,1778428707920,0.9034978125,-0.06616239475,0.731307925,0.32092388625,-0.149886652875,0.3590254725
479,1778428707930,0.9195963711111113,-0.0825048133333333,0.7557317822222223,0.2086297966666666,0.0833552013333333,0.3423544333333333
480,1778428707940,0.95301294,-0.0983594,0.83904284,0.17645851,0.18317783,0.3122193
481,1778428707950,0.9658049877777776,-0.0980070755555555,0.9316871933333332,0.2159599577777777,0.2389685466666666,0.2373565788888889
482,1778428707960,0.9720688625,-0.08548897875,0.984722125,0.3019876099999999,0.197074595,0.16775393
483,1778428707970,0.979112,-0.06540016,0.9983814,0.39636353,0.11231954,0.11186141
484,1778428707980,0.905620675,-0.0411609375,0.8949111775,0.5735092275,-0.2757116475,0.021456010825
485,1778428707990,0.78768696,-0.0412828975,0.6936646900000001,0.69407518,-0.6730773125,0.0059557612499999
486,1778428708000,0.75214756,-0.04783816,0.59497374,0.69140273,-0.7368345,0.020845164
487,1778428708010,0.7048547955555555,-0.0640992711111111,0.4908484244444444,0.6495936366666667,-0.6879667133333333,0.0599393915555555
488,1778428708020,0.6781493,-0.0772301175,0.43385917,0.6201626875,-0.374449354,0.1402658075
489,1778428708030,0.6765029,-0.08198649,0.42121363,0.5875587,-0.039857782,0.22792238
490,1778428708040,0.6765029,-0.08198649,0.42121363,0.5875587,-0.039857782,0.22792238
491,1778428708050,0.8429368428571429,0.0267480774285714,0.4789608657142857,0.5083230771428572,0.2614426282857143,0.3085542228571429
492,1778428708060,0.9493542,0.1144579,0.5083528,0.48249298,0.21310934,0.29450473
493,1778428708070,0.9493542,0.1144579,0.5083528,0.48249298,0.21310934,0.29450473
494,1778428708080,0.974260777777778,0.0683915265555555,0.4900251833333333,0.5643465266666667,0.02736087,0.15075201
495,1778428708090,0.9588669,0.030520074,0.428775,0.6553627,-0.1565296,0.004352287
496,1778428708100,0.929635025,0.015191435,0.323303915,0.62848546625,-0.28053160125,0.0182490613125
497,1778428708110,0.8990769,0.0043905,0.21379296,0.53197163,-0.38193226,0.091092594
498,1778428708120,0.8990769,0.0043905,0.21379296,0.53197163,-0.38193226,0.091092594
499,1778428708130,0.8968816111111111,-0.0133341112222222,0.1710228511111111,0.4449598055555556,-0.2106235333333333,0.1316800091111111
500,1778428708140,0.90889449375,-0.010214010375,0.1024450039999999,0.28160058125,0.05372592625,0.132172076875
501,1778428708150,0.9219779888888888,0.0531196326666666,0.1680111595555555,0.0694923633333333,0.2541039688888888,0.0785362949999999
502,1778428708160,0.9150229625,0.0708387392499999,0.2053359175,0.0204633844999999,0.19806722375,0.0401632081249999
503,1778428708170,0.8885541625000001,0.01463500125,0.2185188412499999,-0.041232188875,-0.070705571,-0.0527619315
504,1778428708180,0.8848992,-0.024635585,0.21232945,-0.07704311,-0.1925696,-0.08483142
505,1778428708190,0.888878075,-0.038554079,0.2015818775,-0.11583191,-0.3651339475,-0.120890495
506,1778428708200,0.8962107749999999,-0.0526555105,0.1700937575,-0.18540168875,-0.68987561,-0.18867545
507,1778428708210,0.895662,-0.046618573,0.1334834,-0.22127941,-0.8272399,-0.22662434
508,1778428708220,0.89401557375,-0.044240385625,0.1046593085,-0.24349898875,-0.85518616,-0.24494975
509,1778428708230,0.8595356325,-0.0510395624999999,0.0135145078125,-0.3144336299999999,-0.8756495425,-0.30481278
510,1778428708240,0.7930646,-0.0750755153333333,-0.0196759446666666,-0.3000787133333333,-0.7235994688888889,-0.3488616488888889
511,1778428708250,0.7601968,-0.074912906,-0.024391668,-0.24449162,-0.606724,-0.3426853
512,1778428708260,0.7485584571428572,-0.0553995757142857,0.003937512,-0.0470243308571428,-0.5981721857142858,-0.30289298
513,1778428708270,0.7635404666666666,-0.0398600493333333,0.018873052,0.2004172888888889,-0.6948896555555556,-0.2338866311111111
514,1778428708280,0.8073032,-0.017562,0.04247199,0.4751628,-0.7942541,-0.1551552
515,1778428708290,0.9556858666666668,0.0375360648888888,0.1019063508888888,0.8145224088888888,-0.9441153444444446,-0.1366261688888889
516,1778428708300,1.0483537875,0.0229586577,0.0048135431249999,1.167100075,-1.227268425,-0.18516307375
517,1778428708310,1.045060925,-0.0223259963,-0.090302528,1.106626125,-1.229024675,-0.266023985
518,1778428708320,1.02286455,-0.08156725625,-0.2444731175,0.89412769625,-1.0779927075,-0.3612398
519,1778428708330,1.0413141222222224,-0.0987659311111111,-0.31183054,0.6232593466666666,-0.8582573677777777,-0.4173444088888889
520,1778428708340,1.0335358,-0.10957957,-0.35093513,0.37620556,-0.75943583,-0.4086568
521,1778428708350,1.0221633375,-0.1041524175,-0.40874333125,0.01587248585,-0.47791163125,-0.31206658375
522,1778428708360,1.0141580222222224,-0.1117748133333333,-0.3811231855555556,-0.2706222977777778,-0.0986857644444444,-0.2843833433333333
523,1778428708370,1.0255780625000002,-0.12604393625,-0.2375786475,-0.4286620625,0.4052207875,-0.2731250875
524,1778428708380,1.0254866,-0.12128756,-0.19107822,-0.4576773,0.6938461,-0.255945
525,1778428708390,1.0082363333333335,-0.1077366355555555,-0.1460755955555555,-0.4239449688888889,0.9075069377777776,-0.2858086533333333
526,1778428708400,0.9866735,-0.09079798,-0.089822315,-0.41064206,0.94979113,-0.30053684
527,1778428708410,0.9504484111111112,-0.0318074112222222,-0.0500334083333333,-0.3145354266666667,0.89847998,-0.30583086
528,1778428708420,0.9672820375,-0.0204890005,-0.0771157825,-0.2750339687499999,0.7423321275,-0.2907633125
529,1778428708430,0.97981326625,-0.0326657773749999,-0.11244559,-0.2160681274999999,0.3589491299999999,-0.2623589175
530,1778428708440,0.96472096,-0.044423323,-0.10909174,-0.1674485,0.12759072,-0.22845687
531,1778428708450,0.9328254911111112,-0.0643431817777777,-0.0809905044444444,-0.07812906,-0.0606096233333333,-0.1542813544444444
532,1778428708460,0.9069431775,-0.074394579375,-0.05881441,0.0868166625,-0.3219165,-0.030924141
533,1778428708470,0.9168015,-0.0579200446666666,-0.0686625433333333,0.1512101433333333,-0.4855726644444444,-0.0073895548888888
534,1778428708480,0.92731021875,-0.05896685225,-0.0923834362499999,0.16805935875,-0.6131379100000001,-0.02023431525
535,1778428708490,0.91663885,-0.05491174,-0.12055582,0.15630054,-0.6281037,-0.046958882
536,1778428708500,0.9639316055555556,-0.0358320351111111,-0.1251089222222222,0.11476293,-0.46867257,-0.12392564
537,1778428708510,0.98008765875,0.0130190520625,-0.1426798175,-0.0804027722499999,-0.02157054125,-0.23860267
538,1778428708520,0.9340941125,0.018720604,-0.1388495625,-0.16928105,0.18134528,-0.27671382
539,1778428708530,0.8761182122222223,0.0112743707777777,-0.1181911733333333,-0.3127707777777778,0.5104561977777777,-0.2904239355555555
540,1778428708540,0.828783175,0.01420814625,-0.06485134175,-0.3451287025,0.6761315125,-0.284196685
541,1778428708550,0.7661117924999999,0.0048173539,-0.04472821925,-0.30114769375,0.72423576625,-0.20654273125
542,1778428708560,0.75824547,-0.0019513334,-0.044179406,-0.27747735,0.70056546,-0.15576605
543,1778428708570,0.76893586375,-0.0027135729,-0.045703885375,-0.28511294375,0.6562790225,-0.110668340625
544,1778428708580,0.824240125,0.025474047425,-0.050216344125,-0.345663195,0.5770979575,-0.053983626875
545,1778428708590,0.8568487,0.038569324,-0.04978949,-0.41736138,0.5368584,-0.03229855
546,1778428708600,0.8568487,0.038569324,-0.04978949,-0.41736138,0.5368584,-0.03229855
547,1778428708610,0.962727625,0.0268689465,-0.052137188125,-0.444391395,0.3971270775,-0.016721944
548,1778428708620,1.0474391,0.015854584,-0.072229825,-0.4729485,0.3248944,-0.057343286
549,1778428708630,1.0615519875,-0.0111972994375,-0.05735090825,-0.4550048625,0.296413645,-0.05604523925
550,1778428708640,1.0748493,-0.04762472925,-0.050490752,-0.35635302625,0.2425063625,-0.017867281625
551,1778428708650,1.0769836,-0.054667823,-0.05881441,-0.24571331,0.28152424,0.01901262
552,1778428708660,1.0750322125,-0.039807962125,-0.01979917425,-0.18847501375,0.39346200875,0.04008685125
553,1778428708670,1.0740565,-0.022196416,0.0248795,-0.10330954,0.59061295,0.06543701
554,1778428708680,1.0740565,-0.022196416,0.0248795,-0.10330954,0.59061295,0.06543701
555,1778428708690,1.0685819888888888,0.0202078192222222,0.1256509577777777,0.1186316288888889,0.7309042055555556,0.0648940377777777
556,1778428708700,1.0851547,0.0240257914999999,0.14888064,0.1935622225,0.74790609,0.0857476849999999
557,1778428708710,1.0964968,0.020001167,0.15327114,0.21372019,0.70850646,0.11186141
558,1778428708720,1.0964968,0.020001167,0.15327114,0.21372019,0.70850646,0.11186141
559,1778428708730,1.1249523714285714,0.0059933808999999,0.1249550271428571,0.1668594728571428,0.4928773785714285,0.1729461328571428
560,1778428708740,1.1520049222222224,-0.0043091946666666,0.0783006381111111,0.09093989,0.24792764,0.22914408
561,1778428708750,1.1548235,-0.011464084,0.054667823,0.09093989,0.24792764,0.22914408
562,1778428708760,1.1292257666666667,-0.0318717782222222,0.0203975314444444,-0.0458899002222222,0.0529655471111111,0.26715236
563,1778428708770,1.1009483625,-0.03469714625,-0.01519524625,-0.1116323362499999,0.027974895,0.27587389375
564,1778428708780,1.0823498,-0.03149574,-0.03808149,-0.15095563,0.046348035,0.277401
565,1778428708790,1.0823498,-0.03149574,-0.03808149,-0.15095563,0.046348035,0.277401
566,1778428708800,1.0594939875,-0.029235699375,-0.08947930875,-0.2725714999999999,-0.0341883582499999,0.2486911825
567,1778428708810,1.0764958,-0.02561125,-0.12958074,-0.37582377,-0.14125843,0.22364645
568,1778428708820,1.0744529625,-0.03690383025,-0.1393450275,-0.42469155875,-0.20936789875,0.20577916875
569,1778428708830,1.0556332249999998,-0.0674734509999999,-0.1716258725,-0.5392254375,-0.358414625,0.16508147
570,1778428708840,1.0281698,-0.075888574,-0.19742006,-0.5969505,-0.3605526,0.14423631
571,1778428708850,0.9786783955555556,-0.0734223066666666,-0.2151074077777778,-0.6340764177777778,-0.25324709,0.1340555244444444
572,1778428708860,0.919870755,-0.0650342842499999,-0.229403635,-0.67086299125,-0.136677065,0.12720894625
573,1778428708870,0.898833,-0.055155657,-0.22354963,-0.67513895,-0.0917798,0.14057122
574,1778428708880,0.898833,-0.055155657,-0.22354963,-0.67513895,-0.0917798,0.14057122
575,1778428708890,0.8936497075000001,-0.055094679625,-0.115620313625,-0.67941485625,-0.37506020125,0.2389176324999999
576,1778428708900,0.9246881,-0.048813824,-0.065887995,-0.66292197,-0.6800257,0.2902288
577,1778428708910,0.9246881,-0.048813824,-0.065887995,-0.66292197,-0.6800257,0.2902288
578,1778428708920,0.939460275,-0.0317244125,-0.0488138255,-0.63940436,-0.8419002499999999,0.313746415
579,1778428708930,0.9376157,-0.028294332,-0.029544408,-0.53892,-0.9591829,0.36597386
580,1778428708940,0.9376157,-0.0282943319999999,-0.029544408,-0.53892,-0.9591828999999998,0.36597386
581,1778428708950,0.88353861,-0.0359357845,-0.03679330575,-0.29974466525,-0.73943059375,0.3604762274999999
582,1778428708960,0.8470921,-0.04247199,-0.055399574,-0.085594974,-0.54502845,0.3537569
583,1778428708970,0.8559988625,-0.0530556875,-0.069279956,-0.0654370135,-0.50425439625,0.3364241125
584,1778428708980,0.9370566666666666,-0.1202305966666666,-0.16075124,0.0546962856666666,-0.1622308433333333,0.1863847733333333
585,1778428708990,0.9839331875,-0.100703286625,-0.14045788125,-0.02115058575,0.0359063675,0.0933832689999999
586,1778428709000,1.0532220333333333,-0.0506838533333333,-0.0504297755666666,-0.1436424286666666,0.3405049311111111,-0.0268009231111111
587,1778428709010,1.054169675,-0.0243535555,0.027943702475,-0.22784603,0.5342623,-0.080097345
588,1778428709020,1.0193800000000002,0.0041204494285714,0.1246762614285714,-0.28367312,0.5607687142857143,-0.11563557
589,1778428709030,0.9560144444444444,0.0332844625555555,0.1945472611111111,-0.3128386511111111,0.4852757511111111,-0.1417929233333333
590,1778428709040,0.8863855374999999,0.0438135335,0.1918709575,-0.31076854375,0.34482327125,-0.1527022675
591,1778428709050,0.8481287125,0.01069040975,0.17055873625,-0.2699181375,0.102440999125,-0.125681826875
592,1778428709060,0.8563609,-0.023172084,0.16644263,-0.2522290144444444,-0.0076780113333333,-0.1127267722222222
593,1778428709070,0.95733482,-0.0546602035,0.1658938225,-0.3202366725,0.2040993375,-0.1642606449999999
594,1778428709080,1.03725565,-0.061741408625,0.25206121125,-0.4853944875,0.68376714375,-0.2621298362499999
595,1778428709090,1.024747225,-0.0303904922499999,0.3858380725,-0.5911474,0.96765840625,-0.30954685125
596,1778428709100,0.9903864,0.0140726366666666,0.5128856111111111,-0.6369270666666667,1.0391784666666668,-0.3242920222222222
597,1778428709110,0.9598426,0.04539899,0.5603376,-0.5755708,0.850223,-0.2455606
598,1778428709120,0.9293835,0.03032951375,0.574972625,-0.4717268,0.57106584,-0.1563769
599,1778428709130,0.9205143333333332,5.081566666666667e-05,0.5607678444444444,-0.2733965677777777,0.0920343213777778,-0.0301436156666666
600,1778428709140,0.960681,-0.0652934444999999,0.4512458749999999,-0.0549762553875,-0.39445463,0.102851409125
601,1778428709150,1.0088799666666668,-0.0908792873333333,0.37298925,0.0005344912,-0.3900768866666666,0.1020878473333333
602,1778428709160,1.0557323,-0.10031073,0.32532385,0.005421269,-0.2560977,0.06543701
603,1778428709170,1.0885657875,-0.099914364375,0.36121773125,-0.00931542075,0.1979813225,-0.12111956125
604,1778428709180,1.04816076,-0.09247152,0.4224941444444444,-0.0391027087777777,0.4905697333333333,-0.3012834444444444
605,1778428709190,0.966956838888889,-0.0379053297777777,0.4994193777777778,-0.056070689,0.65332659,-0.3874807833333333
606,1778428709200,0.92340756,0.01714276725,0.543179565,-0.050853034375,0.7434011187499999,-0.3941492099999999
607,1778428709210,0.9094128375,0.0588753825,0.556282425,-0.039781428,0.665441725,-0.2809897475
608,1778428709220,0.9184073,0.0681442174999999,0.55112206,-0.02954973725,0.4020138762499999,-0.109169865
609,1778428709230,0.939678827777778,0.0598713817777777,0.5144473355555556,-0.0291255375555555,0.0624930711111111,0.0856628466666666
610,1778428709240,0.9636842875,0.0560703434999999,0.4468477,-0.063757183,-0.1899734924999999,0.23647425
611,1778428709250,1.001838175,0.044350910625,0.38324263,-0.1127776755,-0.3578037775,0.34123455
612,1778428709260,1.0296942,0.021708584875,0.37386707875,-0.14851224,-0.3733804,0.3586437
613,1778428709270,1.0343858125,-0.02323687325,0.394352295,-0.1605764824999999,-0.3008422675,0.20997874125
614,1778428709280,0.9805755,-0.051009074,0.40609077,-0.15095563,-0.21639264,0.05444176
615,1778428709290,0.843456225,-0.038477853,0.4183170825,-0.1104106425,-0.098499122,-0.06139014875
616,1778428709300,0.77223255,-0.0269756565,0.42823383,-0.075897773125,0.0126846245,-0.083762427875
617,1778428709310,0.7263465844444444,-0.0059082033333333,0.4615987533333333,-0.017180079,0.2446697733333332,-0.0027742646666666
618,1778428709320,0.727329005,0.004024625,0.4692346899999999,0.03107685475,0.36933351,0.064673454
619,1778428709330,0.7355612,0.002927,0.462466,0.09445226,0.48142398,0.1030041174999999
620,1778428709340,0.77291095,-0.020489,0.45295325,0.14713784,0.5606814,0.08742751
621,1778428709350,0.79065587625,-0.05191994925,0.45606700625,0.2921377075,0.7949413425,-0.13197164125
622,1778428709360,0.79486346,-0.074181154,0.49688876,0.39208758,0.9418501,-0.27610296
623,1778428709370,0.8015034266666666,-0.1183910517777777,0.5348482822222222,0.4283311933333333,0.96099,-0.37506022
624,1778428709380,0.81157175,-0.1784555325,0.61408305,0.4182013125,0.92474641875,-0.464243925
625,1778428709390,0.7898428555555557,-0.1275176044444444,0.6936075244444445,0.4096664222222222,0.8859915333333332,-0.52173146
626,1778428709400,0.7482753400000001,-0.07518731575,0.75879811625,0.43370156125,0.8800018162500001,-0.52929918125
627,1778428709410,0.7127889000000001,-0.0370922724444444,0.8056567455555554,0.4369509177777778,0.8279610300000001,-0.4991300744444444
628,1778428709420,0.7059634499999999,0.0363130925,0.85587309,0.4240043625,0.75890137,-0.39964683625
629,1778428709430,0.7197066,0.05149691,0.87782556,0.4207974,0.73538375,-0.3151972
630,1778428709440,0.83506011,0.014665490025,0.78415016875,0.37192962,0.64986515,-0.2339545
631,1778428709450,0.87806946,0.0041465834,0.7345855,0.3619524477777778,0.6493900444444445,-0.2321219588888888
632,1778428709460,0.8799674775,0.02592376825,0.7611190750000001,0.21540002,0.6437566699999999,-0.1864420425
633,1778428709470,0.8902348525,0.036705648125,0.7932169874999999,0.18920994125,0.6320742125000001,-0.139884025625
634,1778428709480,0.911486125,0.0250967386249999,0.7941622125,0.15141377,0.58664245,-0.08116632975
635,1778428709490,0.9592531333333332,0.0419841566666666,0.8138177666666667,0.109944022,0.5190759733333334,-0.0403074351111111
636,1778428709500,0.9903322,0.05564349,0.8458725,0.086663954,0.43973368,-0.025579229
637,1778428709510,0.996735025,0.0528994275,0.871666695,0.082693447,0.395141825,-0.0344365145
638,1778428709520,1.002365388888889,0.046564372,0.8739771511111111,0.0450584706666666,0.2756193744444444,-0.0655557875555555
639,1778428709530,1.005912325,0.0547897819999999,0.86581273,0.00236703375,0.2189123875,-0.06574243425
640,1778428709540,1.0031783888888888,0.0716606822222222,0.8537321088888888,-0.05932854,0.14347275,-0.046348035
641,1778428709550,1.0003327,0.07881558,0.8600197,-0.12224581,0.065284304,0.03061872
642,1778428709560,0.9893836144444444,0.0615516971111111,0.89318896,-0.1514986055555555,0.015067566,0.0867487911111111
643,1778428709570,0.97935593,0.034666654,0.92712724,-0.17607672125,-0.06826218125,0.1606528175
644,1778428709580,0.9502960088888888,-0.0146417765555555,0.937154951111111,-0.206559691111111,-0.1736333344444444,0.2080359066666666
645,1778428709590,0.9274321975,-0.04317325375,0.94033306375,-0.253043475,-0.2779355125,0.2227301824999999
646,1778428709600,0.89371073,-0.05149691,0.9439880000000002,-0.3074767522222222,-0.3655751177777777,0.2085788944444444
647,1778428709610,0.8756913625,-0.0634488275,0.955452075,-0.348641085,-0.4133908775,0.1685174924999999
648,1778428709620,0.86739819,-0.0843113275,0.972343275,-0.35322243,-0.42163733,0.14606886
649,1778428709630,0.85075086,-0.10518907,0.9725262,-0.2855710975,-0.4451549425,0.11018157125
650,1778428709640,0.85075086,-0.10518907,0.9725262,-0.22738789,-0.45706648,0.092314295
651,1778428709650,0.8194448333333333,-0.13557702,0.9599781222222222,-0.1956832211111111,-0.44423866,0.1113863055555555
652,1778428709660,0.82096255,-0.15229547,0.9715506,-0.16195089,-0.42713493,0.13324106
653,1778428709670,0.82129793125,-0.1538809275,0.9724043075,-0.1554606362499999,-0.42339349125,0.13713521125
654,1778428709680,0.8448968488888888,-0.1425083088888888,1.0001464,-0.0390348353333333,-0.36788276,0.2148909733333333
655,1778428709690,0.86928851,-0.1083295,1.02560865,0.021303298,-0.36788276,0.25907558
656,1778428709700,0.8761182,-0.10299382,1.0367068,0.0726144635,-0.3935383375,0.2884726225
657,1778428709710,0.8836965600000001,-0.1019368466666666,1.0081584088888889,0.1284051833333333,-0.4145107622222222,0.3071289166666666
658,1778428709720,0.8890763,-0.0983594,0.96472096,0.20089239,-0.42469156,0.32016033
659,1778428709730,0.85554154,-0.1086039043749999,0.9360949325,0.19539477,-0.4033119,0.3305447
660,1778428709740,0.85075086,-0.110067405,0.9320055,0.19539477,-0.4033119,0.3305447
661,1778428709750,0.8709180333333334,-0.1213959761111111,0.940952538888889,0.1865035466666666,-0.3498966955555556,0.3342776655555555
662,1778428709760,0.9286822375,-0.1434573,0.99771444,0.197380015,-0.3168006375,0.25029466875
663,1778428709770,0.9156632,-0.15522248,1.0579276,0.2839676,-0.3697153,0.15889664
664,1778428709780,0.902674625,-0.17900435,1.091611,0.41316182,-0.4356868,0.0695602325
665,1778428709790,0.89560105625,-0.19838429,1.112614425,0.45622656,-0.4576773,0.03978143
666,1778428709800,0.8939546300000001,-0.20525588,1.1184798,0.4562265599999999,-0.4576773,0.03978143
667,1778428709810,0.8812633225,-0.2041582575,1.111764475,0.5732038150000001,-0.4581354375,-0.0117683524999999
668,1778428709820,0.6006981625,-0.117472555,0.8784239625,1.2010784875,-0.49623704625,-0.09692428125
669,1778428709830,0.47051528,-0.06564408,0.60500485,1.23017,-0.44057357,0.18455222
670,1778428709840,0.5140374511111111,-0.0683271604444444,0.5452351011111111,1.176076111111111,-0.3034044377777778,0.3334632144444444
671,1778428709850,0.6724172975,-0.0503306805,0.4708811475,1.0585219375,-0.03724259125,0.5762580375
672,1778428709860,0.83514017,-0.01097625,0.4522215,0.97055995,0.071392775,0.6261948
673,1778428709870,0.83514017,-0.01097625,0.4522215,0.97055995,0.071392775,0.6261948
674,1778428709880,0.995552691111111,0.1216263322222222,0.4435726366666667,0.6398879399999999,0.2703253594444444,0.3464267511111111
675,1778428709890,1.0154861,0.15595421,0.45295325,0.4244625,0.3652103,0.16928105
676,1778428709900,0.9500783275,0.12946639,0.4614903425,0.37131879,0.39300385,0.12499462
677,1778428709910,0.80736040375,0.065003789125,0.4563338249999999,0.1798181575,0.3719296125,-0.0074065229
678,1778428709920,0.74287874,0.029788323,0.4185305,0.11109784,0.2967954,-0.022524992
679,1778428709930,0.74342754125,0.0243840443125,0.39208459875,0.09017632275,0.3264214937499999,-0.025350160625
680,1778428709940,0.7708512155555556,0.0131714997777777,0.2886787544444444,0.019470757,0.5099811,-0.039017867
681,1778428709950,0.81510854,0.015122834,0.29236463,0.040850412,0.7066739,-0.05428905
682,1778428709960,0.8244764675,0.014116677625,0.29370617,0.04482091925,0.72003618375,-0.054365405875
683,1778428709970,0.95002497125,-0.014726469625,0.3187152399999999,0.08544226,0.8190698,-0.028633466
684,1778428709980,0.96112315625,-0.011250656225,0.405004575,0.13797513,0.7133933,0.006795676
685,1778428709990,0.9547203,0.0041465834,0.4434405,0.13797513,0.7133933,0.006795676
686,1778428710000,0.8846172125,0.0613831525,0.3671098175,0.27289602125,0.1969123461875,0.10170606625
687,1778428710010,0.8326400388888889,0.0934539633333333,0.2522132211111111,0.21249849,0.0151184695,0.13751699
688,1778428710020,0.7999857,0.10445731,0.17229664,0.21249849,0.0151184695,0.13751699
689,1778428710030,0.7999857,0.10445731,0.17229664,0.21249849,0.0151184695,0.13751699
690,1778428710040,0.7941317028571427,0.0564797747142857,0.0739764434285714,-0.1955147471428571,-0.2639514629285714,0.3235636057142858
691,1778428710050,0.77364266,0.028050419,0.04564291,-0.45217967,-0.28358585,0.4130091
692,1778428710060,0.77364266,0.028050419,0.04564291,-0.45217967,-0.28358585,0.4130091
693,1778428710070,0.8733741428571429,-0.0427159071428571,0.1850935485714286,-0.5248705028571429,0.0711637090285714,0.3233018171428571
694,1778428710080,0.9008452375,-0.037707994,0.2217202475,-0.4133908825,0.34184541,0.1735569775
695,1778428710090,0.9020309722222222,-0.0259635752222222,0.1880868557777777,-0.33001024,0.43301436,0.06177193
696,1778428710100,0.9081018,-0.0274101366666666,0.0675242637666666,-0.3925202566666666,0.3841465666666666,-0.15714046
697,1778428710110,0.9381416625,-0.03433127125,-0.0143034268625,-0.49554983,0.35116082,-0.25777754
698,1778428710120,1.0085209222222222,-0.0668772099999999,-0.0462865782222222,-0.627357111111111,0.0054042977777777,-0.3208305666666666
699,1778428710130,1.007124285,-0.1569298949999999,0.03184636975,-0.607029485,-0.43324343,-0.3863608874999999
700,1778428710140,0.958432455,-0.1924273875,0.0861559425,-0.3868858524999999,-0.60504422,-0.409191315
701,1778428710150,0.9387045428571428,-0.2114583285714285,0.0693376742857142,-0.032364,-0.55803078,-0.3583927971428571
702,1778428710160,0.9456954,-0.21232945,0.04564291,0.19905984,-0.3721587,-0.28770906
703,1778428710170,0.9703043375,-0.16879796125,0.0708616045,0.27503397125,-0.2373905124999999,-0.2208976475
704,1778428710180,1.056667388888889,-0.1069168155555555,0.1373115344444444,0.3370434544444444,-0.1390186533333333,-0.0326463933333333
705,1778428710190,1.1564813875,-0.06418057725,0.18627231,0.3416163325,-0.23487076375,0.0580304875
706,1778428710200,1.2012794,-0.0403580456666666,0.2097276833333333,0.3641922233333333,-0.3560730466666666,0.0760250266666666
707,1778428710210,1.2210506,-0.042197585375,0.22379354875,0.39025503,-0.4534014,0.07154548
708,1778428710220,1.230917925,-0.0538750945,0.237818765,0.47821704125,-0.507308645,0.027259058875
709,1778428710230,1.2236385125,-0.07518731025,0.2083010187499999,0.5606050625,-0.4452312962499999,0.009697200375
710,1778428710240,1.1946124,-0.082230404,0.17327231,0.6156577,-0.31107396,0.025731942
711,1778428710250,1.1280705333333332,-0.0827927711111111,0.1406348966666666,0.7243884644444445,-0.1484528477777777,0.048944138
712,1778428710260,1.0650316,-0.06491233,0.10982348,0.75859594,-0.13087402,0.053220067
713,1778428710270,1.0326991111111112,-0.0384609166666666,0.063608048,0.7260853144444445,-0.2647174355555555,0.0623827768888888
714,1778428710280,1.0520736,-0.03734974,0.014635001,0.6199336,-0.458899,0.075821415
715,1778428710290,1.1253908444444445,-0.04978949,-0.0368077055555555,0.4280597133333333,-0.6798221333333333,0.0835588147777777
716,1778428710300,1.1324975,-0.056619156,-0.0431427602499999,0.27213245875,-0.8230403625,0.101095222125
717,1778428710310,1.0942673625,-0.0558264251249999,-0.035394595125,0.18615570625,-0.888782775,0.1256054631249999
718,1778428710320,0.9997534555555556,-0.0360759534444444,0.0037942595555555,0.1042427855555555,-0.8567641555555556,0.1804799044444444
719,1778428710330,0.9327374,-0.05808266,0.027318668,0.10376768,-0.7185091,0.23036577
720,1778428710340,0.90352835,-0.0333174935,0.04558192725,0.18936265,-0.3972034325,0.24090289
721,1778428710350,0.8843504000000001,-0.0125210556666666,0.0227045766666666,0.2283805199999999,-0.1208968533333333,0.18129438
722,1778428710360,0.8749291,-0.00582351075,0.0006669594999999,0.1761530691249999,-0.03955236,0.13201937125
723,1778428710370,0.872825375,-0.005000291875,-0.031617699125,-0.0100026236249999,-0.07727217875,0.075439633125
724,1778428710380,0.8506966,0.023172084,-0.0340907436666666,-0.2375092911111111,-0.2058724944444444,0.0327227497777777
725,1778428710390,0.82515865,0.0109152712499999,0.0050117247499999,-0.44301697,-0.3495573425,0.0090863532749999
726,1778428710400,0.8215189749999999,-0.0179354975,0.052419217,-0.5766397999999999,-0.4926483075,-0.0045813546
727,1778428710410,0.8380400222222222,-0.0472690177777777,0.0933726588888888,-0.6343479155555555,-0.6313615277777778,-0.0389499978888888
728,1778428710420,0.8828259022222222,-0.0915127866666666,0.1120187326666666,-0.5700731933333333,-0.7152512466666666,-0.09989898
729,1778428710430,0.9179270475,-0.1116528475,0.095485758,-0.511355515,-0.7287407925,-0.13409051625
730,1778428710440,0.951976275,-0.1340398325,0.063509803,-0.37276954,-0.66597622,-0.2015795974999999
731,1778428710450,0.9591108,-0.15180764,0.05052124,-0.2921377,-0.5706841,-0.21623993
732,1778428710460,0.9556959822222222,-0.1616185088888889,0.048109178,-0.1758476466666666,-0.3670682933333333,-0.19486028
733,1778428710470,0.94962859875,-0.15747488375,0.05448488875,-0.0758214135,-0.1936385825,-0.16446108375
734,1778428710480,0.956183795,-0.1372336075,0.0426206264999999,0.03626905425,-0.04902048975,-0.1378987717499999
735,1778428710490,0.968352591111111,-0.1231304944444444,0.0216272767333333,0.18195612,0.039781428,-0.1188352426666666
736,1778428710500,0.9810633,-0.11933623,-0.0017074167,0.28091338,0.06345176,-0.10743276
737,1778428710510,0.99420818125,-0.1197021049999999,-0.012836115125,0.39422555,0.103309543,-0.0791810745
738,1778428710520,1.02134005,-0.1088478125,-0.009634708,0.4889832425,0.1349209,-0.040621344
739,1778428710530,1.0395796222222222,-0.0953172111111111,-0.0220947845555555,0.5451387411111112,0.13424218,0.0002799718888888
740,1778428710540,1.053361825,-0.0766813025,-0.04619172,0.55350395625,0.1294232675,0.045584477625
741,1778428710550,1.0645438,-0.06296099,-0.06832716,0.490434,0.1336992,0.07765396
742,1778428710560,1.0750322,-0.048082076,-0.073937245,0.40812233875,0.1240783474999999,0.08567133125
743,1778428710570,1.0750322,-0.048082076,-0.073937245,0.39636353,0.12270394,0.08681667
744,1778428710580,1.0756725,0.004573438,-0.0430703501875,-0.035352782475,-0.0102316914999999,0.10544751125
745,1778428710590,1.0662817375,0.0118909386625,-0.0067038974375,-0.17845329,-0.09155073,0.111555979375
746,1778428710600,1.0613729,0.0012195833,0.038569324,-0.31107396,-0.21822518,0.09659022
747,1778428710610,1.054516575,-0.0096651973375,0.05478978175,-0.33550786,-0.2567849175,0.08666395125
748,1778428710620,1.0349689,-0.0231454051249999,0.05805216925,-0.3215347375,-0.314280925,0.0506239661875
749,1778428710630,1.0059733,-0.031983573,0.041252404,-0.2493784,-0.30191126,0.0122933015
750,1778428710640,0.960871575,-0.036678971,-0.012630311025,-0.10086615325,-0.2298312737499999,-0.04245388475
751,1778428710650,0.9317616,-0.039788906,-0.065156244,0.044515494,-0.16141638,-0.10498937
752,1778428710660,0.9317616,-0.039788906,-0.065156244,0.044515494,-0.16141638,-0.10498937
753,1778428710670,0.9310603875,-0.042624437625,-0.10161035125,0.07414158625,-0.153933505,-0.121654045
754,1778428710680,0.94365638875,-0.0585095141249999,-0.26501545625,0.06864396025,-0.1885990925,-0.0855949699999999
755,1778428710690,0.94496363,-0.056375243,-0.29724294,0.018249061,-0.19867808,-0.02741177
756,1778428710700,0.94088189125,-0.051710335375,-0.2741852,-0.031840413375,-0.16195088375,0.07528692375
757,1778428710710,0.937036375,-0.043996472125,-0.23095478875,-0.053830914,-0.13270657,0.14973393
758,1778428710720,0.9312738,-0.032471407,-0.1905904,-0.05688515,-0.15164283,0.21937053
759,1778428710730,0.92468805,-0.04344765775,-0.17632126,-0.04680617,-0.1653868949999999,0.2715979575
760,1778428710740,0.91901709,-0.06933331725,-0.2025385,-0.06360447,0.0046672546,0.3570402225
761,1778428710750,0.90615046,-0.06954674,-0.21062206,-0.091092594,0.20089239,0.3897969
762,1778428710760,0.90663824,-0.0420337026249999,-0.1838559975,-0.18282466925,0.44416231625,0.4243097637499999
763,1778428710770,0.9227367,-0.021220751,-0.1688818,-0.25426516,0.5173113,0.43866467
764,1778428710780,0.9227367,-0.021220751,-0.1688818,-0.25426516,0.5173113,0.43866467
765,1778428710790,0.9572433625,-0.0104274379374999,-0.13349101375,-0.499520355,0.209730593,0.4516451875
766,1778428710800,0.9832586375,-0.0296396864999999,-0.07929578175,-0.618482865,-0.047646086,0.47699535
767,1778428710810,0.9866735,-0.069790654,-0.015854584,-0.58595526,-0.14064758,0.49119756
768,1778428710820,0.9889296475,-0.1387619105,0.0101225415,-0.4136963074999999,-0.28633466,0.43858833875
769,1778428710830,0.9715505933333336,-0.1659548033333333,-0.0463644946666666,-0.3296708666666667,-0.28562198,0.3304089822222222
770,1778428710840,0.9500859,-0.15912513,-0.09323715,-0.3477248,-0.12171131,0.23158747
771,1778428710850,0.9442738125,-0.1326639875,-0.10246786725,-0.5188383999999999,0.43636445875,0.13095038625
772,1778428710860,0.9686506777777778,-0.0987049433333333,-0.0455480475555555,-0.6590533233333333,0.7050449866666667,0.082744354
773,1778428710870,0.9866735,-0.06320491,0.039301075,-0.75027317,0.77020204,0.056274302
774,1778428710880,0.9866735,-0.06320491,0.039301075,-0.75027317,0.77020204,0.056274302
775,1778428710890,0.9953362875,-0.088812345,0.161133644375,-0.8291487912500001,0.35131352325,0.064597096375
776,1778428710900,1.0047538,-0.12153149,0.2086707,-0.802806,0.1214822459999999,0.0794865
777,1778428710910,1.0047538,-0.12153149,0.2086707,-0.802806,0.121482246,0.0794865
778,1778428710920,1.0120331625,-0.14560300625,0.27814885,-0.61535225,0.1078049915,-0.0632322358749999
779,1778428710930,0.9988693,-0.11909231,0.3138293,-0.5737383,0.2619771,-0.32497075
780,1778428710940,0.9639790466666668,-0.0702886506666666,0.3256287666666666,-0.6187373666666667,0.2919086166666667,-0.3540878
781,1778428710950,0.8728290799999999,0.064054801,0.3656615737499999,-0.7631009,0.335889635,-0.40621342
782,1778428710960,0.92907864,0.038325407,0.3565452,-0.8174663,0.32000762,-0.40010494
783,1778428710970,0.9381984,0.0254113741111111,0.3587133422222222,-0.8687774822222222,0.2931303355555555,-0.3493367444444444
784,1778428710980,0.9656966,-0.09762765,0.39926112,-0.750884,0.234489,-0.1312558
785,1778428710990,0.9656966,-0.09762765,0.39926112,-0.750884,0.234489,-0.1312558
786,1778428711000,0.9656966,-0.09762765,0.39926112,-0.750884,0.234489,-0.1312558
787,1778428711010,0.978624195,-0.13752327125,0.41936517125,-0.5019637325,0.14133478875,-0.039246934625
788,1778428711020,0.967647925,-0.11512867,0.416640145,-0.27747735,0.1312558,-0.037185326
789,1778428711030,0.96504614,-0.0908521844444444,0.42107808,-0.23253767,0.2644883777777778,-0.1090022973333333
790,1778428711040,0.98283176875,-0.0913163062499999,0.402310045,-0.1078908935,0.40705335,-0.1989834875
791,1778428711050,0.984966,-0.09177365,0.39316317,-0.042835664,0.4592808,-0.22051586
792,1778428711060,0.95761302,-0.0991216375,0.4041127475,0.04062134225,0.4338542724999999,-0.20264858125
793,1778428711070,0.9257721422222224,-0.1506727477777777,0.4486237344444445,0.1567756455555555,0.2646919955555555,-0.1436678824444444
794,1778428711080,0.915449735,-0.19668830625,0.488248775,0.24036839375,0.0199002575,-0.0768903975
795,1778428711090,0.900967235,-0.16574136875,0.4664296625,0.266253035,-0.02275406,-0.073225315
796,1778428711100,0.9016786333333332,-0.1270704133333333,0.4477497,0.2373396033333333,0.0416139733333333,-0.09847367
797,1778428711110,0.9093213,-0.08247432,0.4334399,0.19417307,0.1349209,-0.13186665
798,1778428711120,0.96457605,-0.041618281,0.4745818125,0.13873868125,0.2707580525,-0.2418096187499999
799,1778428711130,1.0081414666666666,-0.0308148053333333,0.5004357377777777,0.13431004,0.32855946,-0.32252735
800,1778428711140,0.994680725,-0.0134459062749999,0.45533147625,0.1086544639999999,0.377579965,-0.4144598674999999
801,1778428711150,0.9431876075,-0.00048783355,0.4276393025,0.024128466125,0.36452309875,-0.41789588
802,1778428711160,0.89395463,-0.011464084,0.4095056,-0.037948886125,0.3429143675,-0.3713187725
803,1778428711170,0.86111728,-0.04460626,0.439766525,-0.09216157625,0.3207711725,-0.2701471925
804,1778428711180,0.8964547333333334,-0.0755633553333333,0.5421962766666666,-0.108399935,0.2817278466666667,-0.1904486055555555
805,1778428711190,0.9327374,-0.079303406,0.61232233,-0.0898709,0.22043951,-0.16004199
806,1778428711200,0.9314364666666668,-0.0514969053333333,0.6186641433333333,-0.0605502333333333,0.17401511,-0.1742950899999999
807,1778428711210,0.879750225,-0.0140899991249999,0.58488550625,-0.027717193875,0.100560729375,-0.1798181675
808,1778428711220,0.810176835,-0.0004878333499999,0.5209679075,-0.054899897,0.12774343625,-0.129900485
809,1778428711230,0.78590331125,9.146901250000044e-05,0.485428485,-0.104454879375,0.23571068875,-0.0439810035
810,1778428711240,0.8383653,-0.0275388693333333,0.5032339855555555,-0.1524488122222222,0.4305709611111111,0.0512517806666666
811,1778428711250,0.8978368999999999,-0.0570256859999999,0.6042629066666667,-0.1611364133333333,0.4611133333333332,0.1041240053333333
812,1778428711260,0.931407225,-0.0727176575,0.67503936,-0.14744325,0.3911713175,0.1150683545
813,1778428711270,0.94682355,-0.0727786325,0.695955215,-0.1228566631249999,0.3096232,0.1150683525
814,1778428711280,0.9478907,-0.08174257,0.6886987,-0.1025629555555555,0.2258013855555555,0.0947576794444444
815,1778428711290,0.935267965,-0.07424214025,0.6636057625,-0.110487,0.1766112074999999,0.047417018875
816,1778428711300,0.9248235977777776,-0.0670804708888889,0.6669630111111111,-0.10819632,0.2030642911111111,-0.0031136242777777
817,1778428711310,0.916974225,-0.063052454375,0.680134925,-0.0999498825,0.2431935674999999,-0.05092939075
818,1778428711320,0.8994732333333333,-0.0544239076666666,0.7438543666666666,-0.0607538513333333,0.2524071733333333,-0.0736325466666666
819,1778428711330,0.8734351,-0.056375243,0.7692217,-0.031840414,0.22960222,-0.06589515
820,1778428711340,0.83507160625,-0.067473447875,0.7840663125,0.0069483879499999,0.191118835,-0.0002290679999999
821,1778428711350,0.8167447999999999,-0.07092894,0.7870580866666667,0.051234814,0.1791055066666666,0.09862638
822,1778428711360,0.8336156875,-0.06491233,0.79355240875,0.1062110669999999,0.1712663,0.1527881725
823,1778428711370,0.8614222,-0.0732474175,0.80285172125,0.1573695299999999,0.1080436075,0.181650705
824,1778428711380,0.8629467,-0.08713923,0.79949784,0.16790664,0.06956023,0.19127154
825,1778428711390,0.8607819824999999,-0.088602729,0.7894363,0.1918823975,0.06436802875,0.17920731625
826,1778428711400,0.8494702949999999,-0.0871392275,0.7735130875,0.2137201875,0.08299887,0.14438903
827,1778428711410,0.843352051111111,-0.0850456111111111,0.7670603211111112,0.1977702811111111,0.1122516677777777,0.1024950842222222
828,1778428711420,0.8345304225,-0.077352071,0.7935828875,0.18783552875,0.14797775,0.0660478605
829,1778428711430,0.8335140999999999,-0.0894767643333333,0.8400794599999999,0.1927477722222222,0.1757797777777777,0.0376773991111111
830,1778428711440,0.8430065137499999,-0.112994394375,0.8830507249999999,0.1743969,0.16576867375,0.0155766053749999
831,1778428711450,0.8560628233333333,-0.1338899211111111,0.9202162333333332,0.1544680044444444,0.1365498077777777,-0.0168237514444444
832,1778428711460,0.86849577,-0.13293458,0.928773725,0.148054105,0.09941539375,-0.062611845
833,1778428711470,0.8873497875,-0.124610924,0.9532987775,0.13308835,0.03547686675,-0.1312844375
834,1778428711480,0.8963090733333333,-0.117764323,0.980738102222222,0.1314594237777777,-0.0274372233333333,-0.1821682222222222
835,1778428711490,0.876057215,-0.111591874375,0.9849660075,0.11514470975,-0.08177717725,-0.21990501125
836,1778428711500,0.845659115,-0.10049366875,0.95559316,0.0794865,-0.0649025225,-0.187052885
837,1778428711510,0.84123814,-0.0983594,0.94078666,0.0368035493375,-0.0738361657499999,-0.129728689625
838,1778428711520,0.8659550333333333,-0.1263386766666666,0.93054211,0.0064393481333333,-0.1001280473333333,-0.041257641
839,1778428711530,0.88040195,-0.1608325649999999,0.948973015,0.0289388885,-0.1070509799999999,0.002825169
840,1778428711540,0.8901129,-0.1722661549999999,0.95978155,0.0546708285,-0.1055238625,0.0106134715
841,1778428711550,0.9127362,-0.17376013,0.9713067,0.108654454,-0.07773031,0.007406523
842,1778428711560,0.945671702222222,-0.1714293744444444,0.9977919466666668,0.1633592266666667,-0.06836399,-0.0041317027999999
843,1778428711570,0.963501325,-0.147645815,1.01280305,0.2347944149999999,-0.107967255,-0.0283280414999999
844,1778428711580,0.9484280375,-0.13266018375,0.998522475,0.258770165,-0.1179698755,-0.0313059226249999
845,1778428711590,0.9334691000000002,-0.12519024,0.9832586,0.2813884866666666,-0.0881147186666666,-0.0061678605555555
846,1778428711600,0.92413925,-0.122629107,0.9735629,0.28946525,-0.04535541,0.027564483
847,1778428711610,0.90078425,-0.1364104,0.9698432,0.30656898,-0.0025961008,0.1002553
848,1778428711620,0.88512404125,-0.125369353125,0.9761545425,0.35581853625,0.01971891345,0.16126367125
849,1778428711630,0.8503163874999999,-0.07119318125,0.99314485,0.4476747,0.040850412,0.23525254
850,1778428711640,0.82852393,-0.04978949,1.0110955,0.5887804,0.027946262,0.26701662
851,1778428711650,0.82852393,-0.04978949,1.0110955,0.5887804,0.027946262,0.26701662
852,1778428711660,0.74482624125,-0.006749631675,0.9030633625,0.7330930825,-0.14835953425,0.3211529525
853,1778428711670,0.68308866,0.0248795,0.816816,0.82151324,-0.27564484,0.36963895
854,1778428711680,0.68308866,0.0248795,0.816816,0.82151324,-0.27564484,0.36963895
855,1778428711690,0.6884548,0.0048783333,0.6032974,0.6388699,-0.15469708,0.56327754
856,1778428711700,0.6884548,0.0048783333,0.6032974,0.6388699,-0.15469708,0.56327754
857,1778428711710,0.6884548,0.0048783333,0.6032974,0.6388699,-0.15469708,0.56327754
858,1778428711720,0.6884548,0.0048783333,0.6032974,0.6388699,-0.15469708,0.56327754
859,1778428711730,0.6884548,0.0048783333,0.6032974,0.6388699,-0.15469708,0.56327754
860,1778428711740,0.6884548,0.0048783333,0.6032974,0.6388699,-0.15469708,0.56327754
861,1778428711750,0.6884548,0.0048783333,0.6032974,0.6388699,-0.15469708,0.56327754
862,1778428711760,0.7394875777777777,-0.0172503274333333,0.5811145333333333,0.4634888577777778,-0.08137844,0.4351353568888889
863,1778428711770,0.9181023,-0.09470064,0.5034745,-0.23410721,0.092772424,-0.018249061
864,1778428711780,0.91395575,-0.1171409859999999,0.46295384,-0.29885703,0.024892027,-0.0432938
865,1778428711790,0.91395575,-0.1171409859999999,0.46295384,-0.29885703,0.024892027,-0.0432938
866,1778428711800,0.91395575,-0.117140986,0.46295384,-0.29885703,0.024892027,-0.0432938
867,1778428711810,0.91395575,-0.117140986,0.46295384,-0.29885703,0.024892027,-0.0432938
868,1778428711820,0.91395575,-0.117140986,0.46295384,-0.29885703,0.024892027,-0.0432938
869,1778428711830,0.91395575,-0.1171409859999999,0.46295384,-0.29885703,0.024892027,-0.0432938
870,1778428711840,0.91395575,-0.117140986,0.46295384,-0.29885703,0.024892027,-0.0432938
871,1778428711850,0.91395575,-0.117140986,0.46295384,-0.29885703,0.024892027,-0.0432938
872,1778428711860,0.9708188616666668,-0.11002675,0.33402355,-0.093446907,-0.1772856866666666,-0.1618363433333333
873,1778428711870,1.0140497000000002,-0.0834296644444444,0.2299117933333333,0.1206677884444444,-0.4629713,-0.2076202
874,1778428711880,1.0132909,-0.09616415,0.19156605,0.16057648,-0.5199837,-0.23151112
875,1778428711890,1.0132909,-0.09616415,0.19156605,0.16057648,-0.5199837,-0.23151112
876,1778428711900,1.00664035,-0.09820695125,0.1779295837499999,0.1537044475,-0.5439594625,-0.2463241674999999
877,1778428711910,0.9207041433333334,-0.0602779076666666,0.0453989903333333,-0.0179945425666666,-0.6143935488888889,-0.3550380077777777
878,1778428711920,0.9004107225,-0.0300855987499999,0.07589619275,-0.1065928475,-0.50196371875,-0.3185568374999999
879,1778428711930,0.885387,-0.012683666,0.1381178,-0.13812783,-0.46989426,-0.26938364
880,1778428711940,0.856696275,0.00246965625,0.19598704875,-0.07276718,-0.50715595,-0.20341213
881,1778428711950,0.8372812311111111,0.0063147314888888,0.1811589422222222,0.0267330519999999,-0.6154795555555554,-0.1413687177777778
882,1778428711960,0.83742309375,-0.0060979167625,0.1421691175,0.084220566,-0.7038488,-0.13614258
883,1778428711970,0.8265116275000001,-0.01439108425,0.10665256625,0.160423765,-0.8025005924999999,-0.1437781725
884,1778428711980,0.824385025,-0.012988563,0.08377775625,0.2019613774999999,-0.83243208375,-0.14576343
885,1778428711990,0.8295301,-0.01097625,0.06564408,0.20089239,-0.84312195,-0.14041851
886,1778428712000,0.859992985,-0.008201698125,0.0676258964999999,0.1660741,-0.85106295,-0.13186665
887,1778428712010,0.92048055,-0.013659333,0.0649123285,0.1064401355,-0.95643410625,-0.1578372025
888,1778428712020,0.94485866,-0.0120874263777777,0.0302422797111111,0.0685421533333333,-1.0854925,-0.2591349788888888
889,1778428712030,0.94831754875,0.0067077088875,-0.0131143327625,0.062382774625,-1.1337324999999998,-0.36459945625
890,1778428712040,0.9444758,0.028050419,-0.05881441,0.059175827,-1.1155598,-0.4709632399999999
891,1778428712050,0.936182665,0.01579360437625,-0.0524306502499999,0.0376434627499999,-1.04470155,-0.5094466
892,1778428712060,0.927371205,0.0001829375025,-0.017379063,0.02237228175,-1.033858925,-0.503032705
893,1778428712070,0.9128175,0.007724028,-0.0042278893333333,0.0356242735555555,-1.0776872777777775,-0.4800580644444445
894,1778428712080,0.89523516,0.03116797725,-0.028240977,0.06230642025,-1.1137272625,-0.443933235
895,1778428712090,0.9053644733333334,0.0620463034444444,-0.0655356653333333,0.1061431977777777,-1.0816238388888888,-0.3956253955555555
896,1778428712100,0.94844330375,0.085824369,-0.07869362125,0.1789019,-0.99583375,-0.35978904
897,1778428712110,0.98838085,0.08344999,-0.07783991,0.3857076222222222,-0.8670128555555556,-0.4075708555555555
898,1778428712120,1.028173625,0.0676868731249999,-0.12022804125,0.57198211,-0.7818844574999999,-0.508377625
899,1778428712130,1.05807245,0.04710640725,-0.2535056375,0.64833803,-0.7321004474999999,-0.6331431875
900,1778428712140,1.0466532333333332,0.0295715096666666,-0.3662815233333333,0.6248882555555556,-0.6793469944444445,-0.7301661
901,1778428712150,1.015567322222222,0.0276709908888888,-0.4312684022222222,0.5574235666666667,-0.4876767033333333,-0.7609799666666667
902,1778428712160,1.0040830375,0.0039903247499999,-0.40782107375,0.5425851125000001,-0.159268885,-0.7328639837500001
903,1778428712170,1.00475375,-0.053387261,-0.2821048725,0.5451811875,0.3650575875,-0.6464290925
904,1778428712180,1.013941288888889,-0.0848118586666666,-0.1708466822222222,0.5097095777777778,0.6211553311111111,-0.5397853611111112
905,1778428712190,1.0076808,-0.08787098,-0.08125474,0.4608079,0.632761405,-0.455233915
906,1778428712200,0.949834395,-0.05338725825,0.02080151875,0.44836189125,0.48631079,-0.37887802
907,1778428712210,0.9079358,-0.0327932408222222,0.0426583148888888,0.47027603,0.20516832,-0.30298024
908,1778428712220,0.8677030925,-0.0022257397249999,-0.00269070625,0.535789375,-0.269918135,-0.22448636875
909,1778428712230,0.8526209266666666,0.0135780276666666,-0.1537589666666666,0.6016082111111111,-0.6176514355555556,-0.1691368188888889
910,1778428712240,0.8828907374999999,0.020706239,-0.2777639,0.5692332875,-0.681171025,-0.15919253
911,1778428712250,0.966085275,0.0320026281249999,-0.37103916,0.3581855625,-0.5536566775,-0.130874025
912,1778428712260,1.0171934,0.02268425,-0.37243026,0.234489,-0.42041564,-0.1220931
913,1778428712270,1.039816825,0.0195743125,-0.2934546125,0.038101597,0.0902049574999999,-0.1737096875
914,1778428712280,0.97722927625,0.033397528375,-0.18593311625,-0.03611634475,0.42919654,-0.1980672175
915,1778428712290,0.9135695433333334,0.0453718886666666,-0.0860416022222222,-0.0551204819666666,0.6845476444444444,-0.1930956066666666
916,1778428712300,0.88252863,0.04686249,0.0167768925,0.0102316915624999,0.76081025,-0.1569591062499999
917,1778428712310,0.8907836699999999,0.04905774,0.06271707,0.030466007,0.702398,-0.14469445
918,1778428712320,0.93338145875,0.078270576875,0.06854058375,0.0303896504375,0.4000285907499999,-0.10216420325
919,1778428712330,0.97112374,0.110372295,0.064973303,-0.0352000721249999,0.045412677,-0.057801421
920,1778428712340,0.98886865,0.11567748,0.060033992,-0.10941801,-0.16630317,-0.026190076
921,1778428712350,1.0070099625000002,0.1132688077499999,0.0505212374999999,-0.25609771625,-0.3815504775,0.0113770303125
922,1778428712360,1.0149440333333333,0.1162466155555555,0.0448569555555555,-0.3961853433333333,-0.3802354533333333,0.0331978526666666
923,1778428712370,1.0060267,0.1096405415,0.06674932125,-0.4338542574999999,-0.242277300625,0.046042612375
924,1778428712380,0.9890855222222223,0.0942094308888888,0.1061105277777777,-0.3990359711111111,-0.0699250411111111,0.0751426966666666
925,1778428712390,0.981429185,0.0714370935,0.1393450175,-0.2820396324999999,0.04461094,0.09994988
926,1778428712400,0.98069747,0.059241258,0.1391773225,-0.1208714025,0.1291178425,0.1251473324999999
927,1778428712410,0.97520936,0.05174082,0.11665315,-0.03061872,0.1776802,0.14851224
928,1778428712420,0.97057489,0.045825843,0.0846771975,0.06971293875,0.21921781125,0.1929513725
929,1778428712430,0.9722823,0.03881324,0.05369216,0.2192178,0.23509984,0.2657949
930,1778428712440,0.9722823,0.03881324,0.05369216,0.2192178,0.23509984,0.2657949
931,1778428712450,0.999075075,0.028439159,-0.0672905125,0.34528141625,-0.04212937125,0.37246410625
932,1778428712460,1.0265978666666666,0.0134154166666666,-0.1814367366666666,0.4368830533333334,-0.36442129,0.4995457833333334
933,1778428712470,1.06086215,0.001219583335,-0.24691228,0.4485909575,-0.496007965,0.5553365125
934,1778428712480,1.0879598,0.00048783334,-0.28846195,0.42751673,-0.59267455,0.5919874
935,1778428712490,1.1281412375,0.0075919062925,-0.3195880212499999,0.3315373475,-0.68040748375,0.6124507225
936,1778428712500,1.1644717111111111,0.0087809994822222,-0.3503659711111111,0.1208714044444444,-0.8120365911111112,0.6296562855555555
937,1778428712510,1.171417375,0.0016464375025,-0.37118781,-0.0493259175,-0.843045575,0.61504682375
938,1778428712520,1.1708406666666666,0.0081034537777777,-0.3871736511111111,-0.2092067066666666,-0.7516984133333333,0.580245511111111
939,1778428712530,1.1459205,0.0295215395,-0.3951145,-0.33963108,-0.6064186025,0.5266266924999999
940,1778428712540,1.1085937,0.04027674,-0.37748391,-0.4599679725,-0.46745086,0.49073941
941,1778428712550,1.0723492,0.041740242,-0.34873986,-0.5584671,-0.38315395,0.47653723
942,1778428712560,1.0546516,0.0184055454444444,-0.3217159311111111,-0.6405242777777778,-0.3331323388888889,0.4757227499999999
943,1778428712570,1.032377275,-0.0370867693749999,-0.28074808125,-0.7763104937499999,-0.264725945,0.5035672025
944,1778428712580,1.0259744,-0.06637583,-0.27114385,-0.84312195,-0.28236416,0.5345677
945,1778428712590,1.0259744,-0.06637583,-0.27114385,-0.84312195,-0.28236416,0.5345677
946,1778428712600,1.0259744,-0.06637583,-0.27114385,-0.84312195,-0.28236416,0.5345677
947,1778428712610,1.0259744,-0.06637583,-0.27114385,-0.84312195,-0.28236416,0.5345677
948,1778428712620,1.007612075,-0.081506285,-0.278034505,-0.83411195,-0.3650576024999999,0.53975990875
949,1778428712630,0.9525251,-0.12689765,-0.29870647,-0.7529880377777779,-0.5613856022222222,0.5320564555555555
950,1778428712640,0.94911027,-0.10323773,-0.28773022,-0.66719794,-0.49677154,0.4826457
951,1778428712650,0.94911027,-0.10323773,-0.28773022,-0.66719794,-0.49677154,0.4826457
952,1778428712660,0.94911027,-0.10323773,-0.28773022,-0.66719794,-0.49677154,0.4826457
953,1778428712670,0.94911027,-0.10323773,-0.28773022,-0.66719794,-0.49677154,0.4826457
954,1778428712680,0.94911027,-0.10323773,-0.28773022,-0.66719794,-0.49677154,0.4826457
955,1778428712690,0.95077577625,-0.085927272,-0.2251998812499999,-0.62871454625,-0.21795794075,0.4315635925
956,1778428712700,1.0237793,-0.11079915,-0.16546696,-0.54197425,0.086663954,0.31832778
957,1778428712710,1.0131003,-0.15314536875,-0.1610993425,-0.4511870612499999,0.31710608175,0.17508409475
958,1778428712720,0.9810633,-0.1776628,-0.13762999,-0.37582377,0.5228089,0.053830914
959,1778428712730,0.96056288,-0.1720793975,-0.1153001795,-0.3363382225,0.5695387125,0.0091531629999999
960,1778428712740,0.8640036444444443,-0.1269247511111111,-0.0166676384444444,-0.1679236066666666,0.7522159666666668,-0.1855618288888889
961,1778428712750,0.8463603,-0.08860273,-0.007561417,-0.17600037,0.78974915,-0.20646638
962,1778428712760,0.9111947777777776,-0.0413574267777777,0.0415403648888888,-0.2716234255555555,0.8629150622222223,-0.2082310455555555
963,1778428712770,0.9768558375,-0.0130495425,0.11534971875,-0.41438350375,0.937497815,-0.23212195875
964,1778428712780,1.0003327,-0.007073583,0.2086707,-0.44912544,0.9284115,-0.24922568
965,1778428712790,0.99727235,-0.041370552875,0.304491845,-0.30113815625,0.81364854,-0.1882841224999999
966,1778428712800,0.9718690688888888,-0.0849744666666666,0.3149370777777778,-0.0811832962222222,0.6628286688888889,-0.1093331755555555
967,1778428712810,0.926029635,-0.1053110215,0.2767539575,0.0871220915,0.6170320825,-0.0677276924999999
968,1778428712820,0.88761276,-0.109335646,0.25846022,0.19295138,0.63215053,-0.0640626
969,1778428712830,0.86782503,-0.110067405,0.24672171,0.2680856,0.69628954,-0.07200362
970,1778428712840,0.86782503,-0.110067405,0.24672171,0.2680856,0.69628954,-0.07200362
971,1778428712850,0.86782503,-0.110067405,0.2467217099999999,0.2680856,0.69628954,-0.07200362
972,1778428712860,0.86782503,-0.110067405,0.2467217099999999,0.2680856,0.69628954,-0.07200362
973,1778428712870,0.8789706755555555,-0.0681713264999999,0.23452249,0.2775876666666666,0.7323973977777778,-0.0576826447777777
974,1778428712880,0.9032234255555556,-0.0506025455555555,0.2742436377777777,0.35156804,0.7809936766666666,0.0741924906666666
975,1778428712890,0.88785666,-0.07905949,0.34752026,0.3975852,0.76226103,0.14179292
976,1778428712900,0.88785666,-0.07905949,0.34752026,0.3975852,0.76226103,0.14179292
977,1778428712910,0.88785666,-0.07905949,0.34752026,0.3975852,0.76226103,0.14179292
978,1778428712920,0.8845468533333333,-0.0815020444444444,0.35204966,0.3960920188888889,0.7531661888888889,0.1441005655555555
979,1778428712930,0.845384705,0.06326588325,0.4211602275,0.1927986675,0.95788486,-0.0168746562499999
980,1778428712940,0.911036375,0.12726352,0.4713156,0.06100837,1.1012813,-0.08788565
981,1778428712950,0.9512445675,0.12458044,0.501889025,-0.167839825,1.1879452125,-0.115908266875
982,1778428712960,0.939563979,0.1006430619999999,0.5586911299999999,-0.391094968,1.14025336,-0.11036483
983,1778428712970,0.9086437777777778,0.0639366544444444,0.6252228,-0.5605032866666666,0.9088643333333332,-0.0455335691666666
984,1778428712980,0.8927312000000001,0.037986213,0.654855275,-0.666128945,0.6190173325,0.043293801875
985,1778428712990,0.8608870155555555,0.0089165098522222,0.6541676,-0.748033348888889,0.2905511911111111,0.1519737144444444
986,1778428713000,0.856879235,-0.00240867720625,0.6269763625,-0.7875348225,0.081309498,0.22784602375
987,1778428713010,0.8681908825,-0.00890295875,0.592839525,-0.80723465,-0.075286927,0.2839676225
988,1778428713020,0.8790147687500001,-0.0185414785,0.569053825,-0.77608146,-0.047798796,0.245942385
989,1778428713030,0.8758743,-0.0482040325,0.530976125,-0.7288934724999999,0.04200529275,0.1923405375
990,1778428713040,0.8619711,-0.06540016,0.5051819,-0.6775823,0.13186665,0.14423631
991,1778428713050,0.85940991,-0.0954323965,0.50524289,-0.5784723425,0.2767901625,0.0862058155
992,1778428713060,0.85855622,-0.1050535535555555,0.5367352622222222,-0.4814324677777779,0.3331747533333333,0.0718169688888888
993,1778428713070,0.8619711,-0.10543298,0.55667883,-0.39353836,0.34932828,0.07276718
994,1778428713080,0.8678250011111112,-0.1178185211111111,0.5876901222222222,-0.2426336333333333,0.3177678466666667,0.0615683146666666
995,1778428713090,0.8763621,-0.12445848,0.6006143,-0.16683766,0.3132883,0.047722444
996,1778428713100,0.8860043975,-0.12384869,0.573935925,-0.0443627842,0.3113030375,0.0112243185
997,1778428713110,0.9054796625,-0.1221412774999999,0.5422191,0.01397313065,0.3392492925,-0.0234412635
998,1778428713120,0.93081309,-0.0985694386666666,0.523096211111111,0.0527279944444444,0.3994177644444444,-0.0673883288888888
999,1778428713130,0.9418232875,-0.0805229905,0.5251907,0.084220566,0.46294588,-0.10376768
1000,1778428713140,0.94127446,-0.07027849,0.5457026,0.10682192,0.45866993,-0.1551552
