id,timestamp,acc_x,acc_y,acc_z,gyro_x,gyro_y,gyro_z
0,1778428911710,0.293096365,0.02440691215,1.1211477,-0.2899997274999999,0.0726144675,-0.0614665035
1,1778428911720,0.2984625433333333,0.0031438150777777,1.1386978444444444,-0.2017153383333333,-0.0764492322222222,-0.046415908
2,1778428911730,0.248932205,0.0028050418,1.1123668,-0.0438282926874999,-0.1779092675,-0.0636808275
3,1778428911740,0.225647324,0.00580521694,1.06634276,0.02687727915,-0.179329483,-0.0649177901999999
4,1778428911750,0.2204600166666666,0.0024391668,0.9825370133333332,0.090812625,-0.1610855166666666,-0.05713967
5,1778428911760,0.2189423055555555,0.0067212593111111,0.9321411066666668,0.0847041533333333,-0.1533481133333333,-0.0481805786666666
6,1778428911770,0.2195656511111111,0.0301508106666666,0.8868132599999999,0.0032578526666666,-0.12850699,-0.0379997906666666
7,1778428911780,0.21915914,0.038569324,0.87758166,-0.023212196,-0.118122585,-0.03657448
8,1778428911790,0.2268831566666667,0.0288837983333333,0.8895437533333335,-0.0944098388888888,-0.0359975693333333,-0.0293800574444444
9,1778428911800,0.2447805433333333,0.0253673326666666,0.9155920066666666,-0.1071018833333333,0.0710364453333333,-0.0170273673333333
10,1778428911810,0.26182083,0.0217356853333333,0.9518746266666668,-0.098617896,0.1505144566666666,-0.0078646587111111
11,1778428911820,0.2674580244444444,0.0200011673333333,0.98415971,-0.0852471291111111,0.1824142566666666,-0.0033172399888888
12,1778428911830,0.26992428,0.016586334,1.0035341,-0.077638687,0.164516441,-0.00615428613
13,1778428911840,0.2718756266666666,0.0091062222,0.9880556333333332,-0.0728944366666666,0.08712209,-0.0082718899999999
14,1778428911850,0.2775162037499999,0.0234160000624999,0.9899663,-0.07330167,0.07857023,-0.010308048
15,1778428911860,0.2510275166666667,0.0180566092777777,0.9730954333333334,-0.0941383488888888,0.1069406902222222,0.0093069366666666
16,1778428911870,0.225622925,0.0328906385,0.9740507,-0.1284306325,0.0348946487499999,0.0437519335
17,1778428911880,0.232940415,0.014086188,0.9811853,-0.1546970624999999,-0.08941276375,0.0301605827499999
18,1778428911890,0.2351763155555555,-0.0168573518444444,0.9710086133333332,-0.1524403244444444,-0.1920350977777777,0.0115467101111111
19,1778428911900,0.23916028,0.0009756667,0.96228176,-0.1365243625,-0.15706409875,0.01351499525
20,1778428911910,0.2573998533333334,0.0274541771888888,0.9616313066666669,-0.11728267,-0.090634465,0.046500746
21,1778428911920,0.2620647633333333,0.0317125558888888,0.961658407777778,-0.11728267,-0.090634465,0.046500746
22,1778428911930,0.280046825,0.03374816075,0.99703987,-0.047264306625,-0.09529217375,0.05512896425
23,1778428911940,0.2774857,0.022196416,0.98935646,-0.056808796,-0.14072394,0.037948888
24,1778428911950,0.2774857,0.022196416,0.98935646,-0.056808796,-0.14072394,0.037948888
25,1778428911960,0.2638454125,0.01451304175,0.95614193,-0.053754559,-0.0965902235,0.01855448635
26,1778428911970,0.25672227,0.011708,0.9373718,-0.03603999,-0.008170082,0.0055739814
27,1778428911980,0.25687853125,0.013689823125,0.94085142125,-0.034818295125,0.0012216944999999,0.00519220185
28,1778428911990,0.2485104333333333,0.0312416599999999,0.98130727,-0.0175109546666666,0.013413188,-0.0078646583999999
29,1778428912000,0.25160006,0.020976834,0.97935593,-0.02443389,-0.02893889,-0.021303298
30,1778428912010,0.25160006,0.020976834,0.97935593,-0.02443389,-0.02893889,-0.021303298
31,1778428912020,0.24916088375,0.034899139,0.95782646625,-0.0477224415,-0.05879404975,-0.023823042875
32,1778428912030,0.25647837,0.04247199,0.94273794,-0.070247434,-0.07841752,-0.021914145
33,1778428912040,0.2567870775,0.039815585125,0.9438698725,-0.0716218409999999,-0.0765849775,-0.020997874125
34,1778428912050,0.2473450588888888,-0.0021681481,0.9777569577777778,-0.0421484623866666,0.0553580334444444,-0.0061678604777777
35,1778428912060,0.24696562,-0.006341833,0.99179566,0.00061084726,0.14087665,-0.0066429637
36,1778428912070,0.257187255,0.0009184986249999,0.971634415,0.0099262676025,0.15767494875,-0.0086282172375
37,1778428912080,0.325100271111111,0.06323878,0.8585425888888889,0.0876226444444444,0.5654155,-0.0724787233333333
38,1778428912090,0.2989198675,0.1323057375,0.9921729875,0.067193195,0.8818344,-0.13614258
39,1778428912100,0.27651003,0.1803459,1.0513418,0.067193195,0.8818344,-0.13614258
40,1778428912110,0.26023876,0.1999608566666667,1.0577853,0.27773188,0.9767193166666668,-0.1324775
41,1778428912120,0.24748396,0.16220077875,1.00191439625,0.29946786,0.9662839975,-0.141029355
42,1778428912130,0.23233064,0.09494456,0.96496487,0.29626092,0.9923977000000002,-0.17401512
43,1778428912140,0.23233064,0.09494456,0.96496487,0.29626092,0.9923977,-0.17401512
44,1778428912150,0.2020815733333333,-0.0397076025555555,0.99440418,0.1474178055555555,1.3103862,-0.2792844666666667
45,1778428912160,0.19620048,-0.041008487,1.1069853,0.14171657,1.3070605,-0.24792764
46,1778428912170,0.19620048,-0.041008487,1.1069853,0.14171657,1.3070605,-0.24792764
47,1778428912180,0.20165811,-0.0082931669,1.1100851333333337,-0.0376689173333333,0.7358418666666666,-0.1339028133333333
48,1778428912190,0.2165980137499999,0.0236408608124999,1.1593169,-0.20555011,0.4183540249999999,-0.0742943005
49,1778428912200,0.21598822,0.06954674,1.2180284,-0.31458634,0.2062373,-0.011529742
50,1778428912210,0.2042497275,0.1001544749999999,1.33744085,-0.3461976725,0.0429883725,0.02061609525
51,1778428912220,0.2025728,0.08640748,1.4613657,-0.36223242,-0.2641151,0.06604786
52,1778428912230,0.2025728,0.08640748,1.4613657,-0.36223242,-0.2641151,0.06604786
53,1778428912240,0.21418933375,0.0371248786249999,1.6361206,-0.43919918375,-1.166890125,0.1372115649999999
54,1778428912250,0.2175330133333333,0.027420299,1.6794374333333333,-0.40987851,-1.7463105666666667,0.2148909733333333
55,1778428912260,0.22647662,0.017318083,1.6826897,-0.33535513,-1.9446323,0.25479966
56,1778428912270,0.2325474377777777,0.0163966202222222,1.6691319666666666,-0.2981613233333333,-1.9849481888888891,0.2628085444444444
57,1778428912280,0.28494803625,0.0092078544375,1.5777559625,-0.068720318125,-2.1294898625000003,0.29465744625
58,1778428912290,0.3490752566666666,-0.0039026666666666,1.5338396,0.15087928,-2.0894032,0.2810661
59,1778428912300,0.37316203,-0.017562,1.5338396,0.15087928,-2.0894032,0.2810661
60,1778428912310,0.3878580025,-0.0416106595,1.523953275,0.5318188675,-2.0153378374999997,0.185239435
61,1778428912320,0.3815123675,-0.03640075225,1.4975873875,0.7828770975,-1.9945689875,0.1279725075
62,1778428912330,0.3494716,0.00951275,1.4591706,0.9736905,-2.0918465,0.11247225
63,1778428912340,0.3456773666666666,0.0422246854444444,1.3922796888888889,1.023847822222222,-2.228269033333333,0.1221779366666666
64,1778428912350,0.3401417875,0.07314451,1.315831375,0.991710525,-2.398491775,0.13293563
65,1778428912360,0.3438920099999999,0.0764069025,1.22131365,0.9134457125,-2.589686925,0.1397313125
66,1778428912370,0.3527035175,0.06314393075,1.1031589,0.8396859124999999,-2.715521475,0.15798038125
67,1778428912380,0.3541873266666667,0.058733102,1.0410973,0.7696675566666666,-2.766629,0.1780365233333333
68,1778428912390,0.34654462,0.05905832,1.0147543,0.72690827,-2.7833254,0.17966545
69,1778428912400,0.3263808511111111,0.0581910666666666,1.0012847,0.6563214522222222,-2.808302377777778,0.1807514055555555
70,1778428912410,0.3057800499999999,0.0796692797499999,0.932455315,0.56732439375,-2.793175425,0.22624255125
71,1778428912420,0.3079753,0.069790654,0.88834447,0.55770355,-2.7081914,0.26151899
72,1778428912430,0.3372486799999999,0.0697635579999999,0.83277552,0.5164374466666666,-2.624233777777778,0.3084863322222222
73,1778428912440,0.36191136,0.073937245,0.79632694,0.46607646,-2.6275594,0.3189386
74,1778428912450,0.3828068922222222,0.0952393,0.7425026855555555,0.3432961533333333,-2.6348896111111113,0.3431688911111111
75,1778428912460,0.3887726975,0.09505890125,0.7198209925,0.294122945,-2.645121425,0.353298775
76,1778428912470,0.3829187,0.082962155,0.70187026,0.24922568,-2.6611562,0.3519244
77,1778428912480,0.3723578675,0.068449115125,0.66096466,0.164776045,-2.603507375,0.35681115125
78,1778428912490,0.3787721,0.048325993,0.60524875,0.0684149,-2.4931731,0.39712706
79,1778428912500,0.4236603949999999,0.05003340675,0.602664765,0.0018325415,-2.37833385,0.4102602975
80,1778428912510,0.46423102,0.0490306384444444,0.620696791111111,-0.0249089935555555,-2.3648272444444447,0.4159276088888888
81,1778428912520,0.4959131,0.05271649,0.6389092,-0.036650835,-2.440640175,0.40781691
82,1778428912530,0.5059949722222222,0.0544781105555555,0.6294506777777777,-0.0471709837777777,-2.531520722222222,0.4022174666666667
83,1778428912540,0.5010048375,0.042319541875,0.57366914875,-0.04871506825,-2.625116025,0.40674793
84,1778428912550,0.4993279,0.03881324,0.51737773,-0.0367865796666666,-2.648939144444445,0.4142308066666667
85,1778428912560,0.4978644,0.032471407,0.45319718,-0.028709821,-2.5976279,0.42278266
86,1778428912570,0.5081360266666667,0.0327695273333333,0.3866418,-0.0357006286666666,-2.320710477777778,0.4415831866666666
87,1778428912580,0.5352560625,0.03451420825,0.3786920675,-0.0352764275,-2.04343685,0.4701233
88,1778428912590,0.569553,0.0389961765,0.40762286,-0.01878355225,-1.91714415,0.489365
89,1778428912600,0.6111027,0.0556434899999999,0.4422209,-0.009162709,-1.8804933,0.489365
90,1778428912610,0.654245525,0.0749129043749999,0.47533264625,0.01000262375,-1.906530625,0.45874629875
91,1778428912620,0.6389905333333333,0.0711728543333333,0.4816642699999999,0.060270262,-1.9311936,0.4529177933333332
92,1778428912630,0.6270792625,0.051192011375,0.48248623875,0.1730988399999999,-1.917296775,0.4601207025
93,1778428912640,0.6325674333333333,0.0403580463333333,0.4570896933333333,0.29850069,-1.861557033333333,0.4586190366666667
94,1778428912650,0.6463563075,0.03704484375,0.41114443,0.4017847775,-1.774358575,0.4519506225
95,1778428912660,0.66577053,0.03539841,0.3670336,0.4563029,-1.6960174,0.4478273999999999
96,1778428912670,0.7192187875,0.018537667,0.3008102475,0.4912739,-1.584919575,0.43347249
97,1778428912680,0.7486615799999999,-0.007896802,0.2433983533333333,0.4998766666666667,-1.4849951666666668,0.4085295666666667
98,1778428912690,0.7886778600000001,-0.043905,0.16362997,0.4790569675,-1.2764417,0.355131335
99,1778428912700,0.8497209333333333,-0.0653459511111111,0.0688149933333333,0.38999205,-1.009959597777778,0.2842560888888888
100,1778428912710,0.8539759333333333,-0.0487291331111111,0.0858112422222222,0.3051521322222222,-0.8435376388888889,0.2431256922222222
101,1778428912720,0.823859,-0.0252209844,0.14676466,0.226807589,-0.783885017,0.2168660499999999
102,1778428912730,0.8076284266666667,-0.020245084,0.1872026533333333,0.1469426955555555,-0.8627454111111111,0.2074929366666666
103,1778428912740,0.8083059688888888,-0.0148518153333333,0.2000015055555555,0.1300425891111111,-0.9061834577777778,0.2144158777777777
104,1778428912750,0.81340112,-0.0034148333,0.197069425,0.1172826745,-0.968116545,0.2332672975
105,1778428912760,0.81754774,0.0019513334,0.19107822,0.12461284,-1.0185114,0.24563695
106,1778428912770,0.8243849999999999,0.007378479675,0.1193895875,0.18600299,-1.010570425,0.271750665
107,1778428912780,0.8356822666666666,-0.0003252223444444,0.0602440317777777,0.2278460288888889,-0.9615669333333332,0.2907039088888889
108,1778428912790,0.8570317375000001,-0.0273262905,-0.00165406025,0.2790044775,-0.866868615,0.2960318425
109,1778428912800,0.8875953571428571,-0.0724040528571428,-0.1115962357142857,0.3390202371428571,-0.6721610485714287,0.2739104542857143
110,1778428912810,0.9014347222222222,-0.0853267966666666,-0.1749323033333333,0.3524588733333333,-0.5236572933333333,0.2513381977777777
111,1778428912820,0.917126677777778,-0.0933455555555555,-0.2287802933333333,0.3491331466666666,-0.2635721055555555,0.2179452177777777
112,1778428912830,0.9228180422222222,-0.0960015355555555,-0.2422770111111111,0.336848331111111,-0.1305431531111111,0.2017238244444444
113,1778428912840,0.92907864,-0.1013168862499999,-0.2268730012499999,0.30679804,0.0475697315,0.1708081575
114,1778428912850,0.9287534222222222,-0.1055413844444444,-0.2042802155555555,0.2816005933333333,0.1209223099999999,0.1476977766666666
115,1778428912860,0.9224319,-0.1102503275,-0.20263377,0.269689065,0.1561478325,0.1301868275
116,1778428912870,0.902949,-0.12360477125,-0.212055045,0.237161455,0.271445255,0.07887565
117,1778428912880,0.90340633125,-0.11857399,-0.20732916375,0.2035648475,0.393614705,0.0365744793749999
118,1778428912890,0.9052018222222222,-0.1171680766666666,-0.1991003666666666,0.1587524122222222,0.5219096022222223,-0.0034529841666666
119,1778428912900,0.9016786355555556,-0.1240519566666666,-0.1795057355555555,0.0805639666666666,0.6322014555555556,-0.0560537211111111
120,1778428912910,0.90255264375,-0.1121406864999999,-0.15389998375,-0.0760504875,0.7590540625,-0.10453123625
121,1778428912920,0.9181023225,-0.110128378,-0.12281205125,-0.203412145,0.840754875,-0.1329356325
122,1778428912930,0.9264768533333332,-0.1050264566666666,-0.0876744961111111,-0.3380700222222222,0.8933047444444444,-0.1602371133333333
123,1778428912940,0.9115165725,-0.0864265337499999,-0.0526860024999999,-0.4593571275,0.8786274000000001,-0.1756949475
124,1778428912950,0.8950826499999999,-0.0839479866666666,-0.0403580453333333,-0.4829086833333333,0.8252970444444444,-0.1861641833333333
125,1778428912960,0.87550835625,-0.0873221674999999,-0.036404563,-0.45836451375,0.8008207625,-0.22005772125
126,1778428912970,0.8638613425,-0.0850926167499999,-0.03524214875,-0.43629765125,0.8367844,-0.24823305375
127,1778428912980,0.8497751766666667,-0.0719046026666666,-0.013984556,-0.4011909044444444,0.9724603777777776,-0.27772342
128,1778428912990,0.83953065,-0.06393666,0.005854,-0.37933615,1.0993724,-0.29862794
129,1778428913000,0.83953065,-0.06393666,0.005854,-0.37933615,1.0993724,-0.29862794
130,1778428913010,0.80144541,-0.041240973375,0.043653463375,-0.383764785,1.39777125,-0.33955471
131,1778428913020,0.77068526,-0.023903834,0.073937245,-0.40682426,1.5880501,-0.34993914
132,1778428913030,0.77068526,-0.023903834,0.073937245,-0.40682426,1.5880501,-0.34993914
133,1778428913040,0.7049230125,-0.0030794479999999,0.166107255625,-0.505189755,1.6702091,-0.3200839675
134,1778428913050,0.66991717,-0.020489,0.23086715,-0.54678464,1.5623946,-0.2992388
135,1778428913060,0.66991717,-0.020489,0.23086715,-0.54678464,1.5623946,-0.2992388
136,1778428913070,0.6365513666666667,0.012927583,0.3145712033333333,-0.80374772,1.5992490333333331,-0.3029038733333333
137,1778428913080,0.638604325,0.0162814375,0.3868061175,-0.9330692,1.852241575,-0.2913741325
138,1778428913090,0.6472024,0.026343001,0.47173482,-0.9945357,2.0614567,-0.28030252
139,1778428913100,0.6821671555555555,0.0467235935555555,0.6339292688888889,-1.0086530333333334,2.281361677777778,-0.2368645111111111
140,1778428913110,0.7226336,0.064424485,0.8978573,-0.8864157,2.2386024,-0.17279342
141,1778428913120,0.7226336,0.064424485,0.8978573,-0.8864157,2.2386024,-0.17279342
142,1778428913130,0.7224506749999999,0.058936361875,0.8405635625,-0.692366715,1.94539575,-0.134997245
143,1778428913140,0.6657841,0.0132799082,0.5957088722222222,-0.23544768,1.3460867555555556,-0.0782478388888889
144,1778428913150,0.6496416,-0.0036587503,0.5432329,-0.13011047,1.3192774,-0.08177718
145,1778428913160,0.6409418666666666,-0.0241037092555555,0.5469831555555555,-0.06590363,1.4178274,-0.0785193288888888
146,1778428913170,0.650137025,-0.026975659,0.57905819,-0.03115321,1.563310875,-0.0823880225
147,1778428913180,0.6677219,-0.021464668,0.59058326,-0.034818295,1.6082082,-0.07322531
148,1778428913190,0.6918967222222222,-0.0001084077777777,0.6533172522222223,-0.0441846183333333,1.4407680777777778,0.0012301798888888
149,1778428913200,0.7052851,0.011220166,0.69089395,-0.028709821,1.2362021,0.041003123
150,1778428913210,0.6989432,0.014391083,0.68455213,0.014660334,0.9844567,0.055663455
151,1778428913220,0.6775661875,0.0014330106,0.68369841875,0.11315945675,0.92673165,0.043293798875
152,1778428913230,0.6493977,-0.0248795,0.68357646,0.21990502,1.0284377,-0.028633466
153,1778428913240,0.6493977,-0.0248795,0.68357646,0.21990502,1.0284377,-0.028633466
154,1778428913250,0.65221034,-0.012134854,0.6922431425,0.254112465,1.406284925,-0.1170536105
155,1778428913260,0.6648423133333333,0.013659334,0.7258587833333334,0.2446103977777778,1.868564777777778,-0.2231543855555555
156,1778428913270,0.6564712,0.023903834,0.7584894,0.17286977,1.8348324,-0.23265645
157,1778428913280,0.6159636057142857,0.016176902,0.8520662742857142,0.1487849385714285,1.2925309142857144,-0.1521991442857143
158,1778428913290,0.5912878577777777,-0.001280563,0.86521648,0.1751095488888888,0.9958591155555556,-0.1094689222222222
159,1778428913300,0.5647281,-0.030520074,0.82706046,0.2907633,0.59351444,-0.08177718
160,1778428913310,0.5647281,-0.030520074,0.82706046,0.2907633,0.59351444,-0.08177718
161,1778428913320,0.56240705,-0.004401933625,0.8270757125,0.38429928125,0.8000572025,-0.15736952375
162,1778428913330,0.5725943675,0.017870707625,0.83931728375,0.44683477625,1.1417212475,-0.26709297375
163,1778428913340,0.59180284,0.031983573,0.86684936,0.42087376,1.4341166,-0.3951418
164,1778428913350,0.5913048311111111,0.0354526117777777,0.8781677577777778,0.4164620866666666,1.496966022222222,-0.4571088833333333
165,1778428913360,0.55447974125,0.03914862875,0.844683375,0.4147652987499999,1.5607910875,-0.516547735
166,1778428913370,0.4929860799999999,0.06540016,0.8329449,0.36773005,1.6179817,-0.51547873
167,1778428913380,0.47677706,0.075583676,0.8865227625000001,0.21242213875,1.5720918375,-0.4272876525
168,1778428913390,0.5044502,0.063448824,0.9173706,0.11606098,1.4390035,-0.38414657
169,1778428913400,0.5044502,0.063448824,0.9173706,0.11606098,1.4390035,-0.38414657
170,1778428913410,0.49108432375,0.08789003775,0.90217915,-0.1790546075,1.1958480625,-0.3623851437499999
171,1778428913420,0.4533725125,0.1133602775,0.945070375,-0.425149705,1.02523075,-0.3473430375
172,1778428913430,0.4230328388888889,0.1217482977777777,1.066664588888889,-0.5141297944444445,0.9755654666666664,-0.3354145411111111
173,1778428913440,0.43368387,0.09811548,1.1755869,-0.49295375,0.9337564,-0.30229303
174,1778428913450,0.4579975888888889,0.0817493506666666,1.2126656777777778,-0.4315296433333333,0.9446837666666666,-0.2874290766666666
175,1778428913460,0.4915226,0.05344824,1.2795259,-0.29503924,0.9765157,-0.28824356
176,1778428913470,0.5225000277777778,0.0342533533333333,1.2508452666666667,-0.1581415699999999,0.953575,-0.3077227822222222
177,1778428913480,0.5341470100000001,0.02317208375,1.1882019,-0.0839914975,0.921692175,-0.33359895
178,1778428913490,0.52006084,0.026830835,1.1294562,-0.10323319,0.9019923,-0.34871742
179,1778428913500,0.4739033975,0.056401918125,1.066628525,-0.2256317075,0.8768712249999999,-0.3187859275
180,1778428913510,0.4408184,0.08207795625,1.0703064125,-0.4730343999999999,0.8577058875,-0.21517095
181,1778428913520,0.4383114866666666,0.0803061788888888,1.1105221666666667,-0.5836390888888888,0.8223107222222222,-0.1403506411111111
182,1778428913530,0.43634406,0.0553309755,1.192356225,-0.6429931,0.675826155,-0.041461259
183,1778428913540,0.4612464,0.023659917,1.2060765,-0.6200863,0.49577892,-0.008475506
184,1778428913550,0.46527103,0.0137203126675,1.1886021375,-0.569204645,0.421255545,0.003970507125
185,1778428913560,0.4753936,-0.009024917,1.1311636,-0.46485478,0.28992337,0.026953636
186,1778428913570,0.4753936,-0.009024917,1.1311636,-0.46485478,0.28992337,0.026953636
187,1778428913580,0.4812543822222222,0.0179278754444444,1.0986752444444443,-0.4747640666666666,0.3682475711111111,0.0304829752222222
188,1778428913590,0.4937991555555556,0.0617143062222222,1.0494717777777778,-0.5516798888888889,0.4397167011111111,0.042224817
189,1778428913600,0.4937449444444444,0.0744521733333333,1.066878,-0.6073942622222224,0.4099209155555556,0.043989487
190,1778428913610,0.49008574875,0.069058909625,1.1036963375,-0.62924904,0.39376742,0.050165832
191,1778428913620,0.486312685,0.046435636125,1.1533067,-0.598620775,0.28854896125,0.077119465625
192,1778428913630,0.5217140288888888,0.0250929274444444,1.2345639,-0.4782934,0.12927055,0.08620582
193,1778428913640,0.5360449825,-0.002256229375,1.239211,-0.2962609175,0.006108473,0.051158456625
194,1778428913650,0.5423588933333333,-0.0208955286666666,1.203301966666667,-0.0940704833333333,-0.0464498413333333,0.0118860694333333
195,1778428913660,0.5395742,-0.02853825,1.1684829,0.01099525,-0.052151084,-0.0035887277
196,1778428913670,0.5237466755555555,-0.0276303386666666,1.1198519333333334,0.0946134544444444,-0.0103419833333333,-0.0168916228222222
197,1778428913680,0.51323116,-0.023172084,1.0908868,0.11850437,0.001603474,-0.02069245
198,1778428913690,0.5102431875,-0.022165927375,1.1073893125,0.15271181625,0.05337277625,-0.0131332155
199,1778428913700,0.5201150333333333,-0.0260245538888888,1.1954864777777778,0.2285926133333333,0.080267024,0.0042165430555555
200,1778428913710,0.5271344,-0.036861908,1.2378161,0.24922568,-0.023441264,-0.0066429637
201,1778428913720,0.5383888925,-0.045063605,1.2610492,0.2473167799999999,-0.095215824,-0.0116060976375
202,1778428913730,0.54399514,-0.048813824,1.2809894,0.22784603,-0.23907034,-0.023746688
203,1778428913740,0.53171551,-0.02601523775,1.3058916875,0.19738002125,-0.3687226825,-0.025808296625
204,1778428913750,0.5305493,-0.009268833,1.3354132,0.18203248,-0.46019706,-0.024968382
205,1778428913760,0.5579458555555555,0.0235040798888888,1.3352676,0.1971679211111111,-0.6119586733333333,-0.0200816033333333
206,1778428913770,0.5758872199999999,0.049088227125,1.3086129750000002,0.2137965425,-0.723166795,-0.02298312775
207,1778428913780,0.5896888566666667,0.0583265756666666,1.2882559999999998,0.2089097566666666,-0.7587656133333334,-0.0288370801111111
208,1778428913790,0.6007744125000001,0.04881382275,1.294496225,0.1898207875,-0.8039513699999999,-0.04054498625
209,1778428913800,0.6100728888888889,0.0371871276666666,1.320212522222222,0.1554266877777778,-0.86892176,-0.0565966937777777
210,1778428913810,0.6096392,0.031983573,1.3722751,0.10384403,-0.98186064,-0.060397524
211,1778428913820,0.6096392,0.031983573,1.3722751,0.10384403,-0.98186064,-0.060397524
212,1778428913830,0.6096392,0.031983573,1.3722751,0.10384403,-0.98186064,-0.060397524
213,1778428913840,0.5995558757142857,0.033551608,1.3707419714285716,0.0364763055714285,-1.2064779085714286,-0.0323858132857142
214,1778428913850,0.5858573687499999,0.0372887595,1.36422595,-0.0392469364999999,-1.6124268,0.01611109675
215,1778428913860,0.5965795555555555,0.0338807026666666,1.3361687555555557,-0.0040723153333333,-1.7746131333333333,0.0230849358888888
216,1778428913870,0.611102725,0.034971555,1.271126025,0.01282779225,-1.87469025,0.02038702725
217,1778428913880,0.6241522924999999,0.0337214795,1.2042433875,0.016492875,-1.940661675,0.02092151975
218,1778428913890,0.61817634,0.033934906,1.1692146,0.016492875,-1.9470756,0.02145601
219,1778428913900,0.58024729875,0.023812365875,1.079197825,0.044820918,-1.9725020875,0.033596599125
220,1778428913910,0.5658934344444444,0.0168302506666666,1.0361580444444445,0.0961745031111111,-1.9674372333333332,0.0295327684444444
221,1778428913920,0.55451068,0.0101631951111111,0.9895191,0.1878015888888889,-1.8897917333333336,0.0154154098888888
222,1778428913930,0.56911856,0.010732334,1.0003327,0.26571855,-1.817576,0.0092390645
223,1778428913940,0.56911856,0.010732334,1.0003327,0.26571855,-1.817576,0.0092390645
224,1778428913950,0.5724636971428572,0.0438527317142857,0.9617154857142856,0.3449541671428571,-1.8634768,0.0064466201114285
225,1778428913960,0.5671672,0.07320549,0.9095652,0.42087376,-1.9360803,0.0080173705
226,1778428913970,0.5671672,0.07320549,0.9095652,0.42087376,-1.9360803,0.0080173705
227,1778428913980,0.56497195625,0.070400448375,0.90056697125,0.4244624899999999,-1.951885975,0.0066429641375
228,1778428913990,0.55984974,-0.00073175,0.7267802,0.3610107466666666,-2.218563222222222,-0.0687457675555555
229,1778428914000,0.4982531475,0.007656696675,0.64102062625,0.29717720125,-2.2253165125,-0.0575723533749999
230,1778428914010,0.41633525,0.03295924,0.54936135,0.15943113,-2.189582,-0.007253811
231,1778428914020,0.40731034,0.039057158,0.56302065,0.0659715,-2.0496979,0.09903361
232,1778428914030,0.40731034,0.039057158,0.56302065,0.061695569625,-2.04633825,0.10666920125
233,1778428914040,0.47761932375,0.0135373755,0.6442792374999999,0.0302369397499999,-2.08527975,0.17485502625
234,1778428914050,0.4744179,0.012683666,0.6579652,0.0452027,-2.0179338,0.19249325
235,1778428914060,0.4795096642857143,0.0129275827142857,0.6590802471428571,0.0506130607142857,-2.0128725000000003,0.19790361
236,1778428914070,0.5271344,0.0400328239999999,0.6053503844444444,0.08110694,-2.003137777777778,0.2334200066666666
237,1778428914080,0.5329884,0.05369216,0.5339641,0.06536066,-2.1682024,0.2578539
238,1778428914090,0.5329884,0.05369216,0.5339641,0.06536066,-2.1682024,0.2578539
239,1778428914100,0.5531305875,0.0632963725,0.44565864375,0.012675081875,-2.18500065,0.2280751
240,1778428914110,0.5652159,0.0690589,0.39267537,-0.018936265,-2.1950796,0.21020782
241,1778428914120,0.5652159,0.0690589,0.39267537,-0.018936265,-2.1950796,0.21020782
242,1778428914130,0.5676202285714286,0.0606568442857142,0.3821433885714286,-0.0084645981428571,-2.1442047714285715,0.2004342614285714
243,1778428914140,0.5927785,0.012927583,0.32654345,0.076355904,-1.9214201,0.14729054
244,1778428914150,0.5957702874999999,0.013019051875,0.3252323975,0.083915141,-1.92149645,0.1436254575
245,1778428914160,0.6311581199999999,0.0217627873333333,0.2971887622222222,0.2203122466666666,-1.8811041333333336,0.0813190393333333
246,1778428914170,0.64500713,0.013415418,0.26968038,0.2675511,-1.8383448,0.06177193
247,1778428914180,0.64500713,0.013415418,0.26968038,0.2675511,-1.8383448,0.06177193
248,1778428914190,0.6885903333333333,0.0059082039999999,0.1957024755555555,0.2801074022222222,-1.6631674666666667,0.0165013606666666
249,1778428914200,0.6982115,0.011464084,0.18741947,0.27060533,-1.6251591,0.014125843
250,1778428914210,0.6982115,0.011464084,0.18741947,0.27060533,-1.6251591,0.014125843
251,1778428914220,0.72658965,0.02470418475,0.128551705,0.2307475525,-1.63323375,0.017790927
252,1778428914230,0.74001265,0.028805035,0.0920175625,0.19424942,-1.6098115,0.025121093
253,1778428914240,0.7475131,0.022928167,0.08909056,0.19424942,-1.6098115,0.025121093
254,1778428914250,0.75684295,0.0053661667449999,0.0876270624999999,0.1619508862499999,-1.7025840875,0.09330691625
255,1778428914260,0.77961864375,-0.0165253545,0.028469649875,0.17531316,-1.765654,0.11735903
256,1778428914270,0.78900945,-0.022928167,-0.030276157,0.17531316,-1.765654,0.11735903
257,1778428914280,0.8072498425000001,-0.01811081225,-0.07418115875,0.13133216,-1.6353049625,0.1492758
258,1778428914290,0.8391512855555556,-0.0026288795555555,-0.0805771955555555,0.08429692,-1.5139086,0.1674485
259,1778428914300,0.86684936,0.006097917,-0.08247432,0.08429692,-1.5139086,0.1674485
260,1778428914310,0.8865625622222222,0.0099734821111111,-0.1003344444444444,0.0530758404444444,-1.4149513555555555,0.1650051111111111
261,1778428914320,0.8959059,0.010000584,-0.11689706,0.057419643,-1.2976687,0.15278818
262,1778428914330,0.8936293866666666,0.019188112,-0.1248650166666666,0.0936632466666666,-1.0571984666666667,0.1505483933333333
263,1778428914340,0.9006623375,0.022653760375,-0.12372673625,0.132248435,-0.8564842375,0.15691138875
264,1778428914350,0.9254198333333332,0.013334111,-0.12372673,0.1885481822222222,-0.6757583,0.1520415811111111
265,1778428914360,0.93988332375,-0.000121958,-0.13706211125,0.242353645,-0.5466319325,0.13522631
266,1778428914370,0.94691503,-0.009268833,-0.14790498,0.28404397,-0.47424653,0.1246892
267,1778428914380,0.95895841125,-0.02590471425,-0.1800714924999999,0.37200597875,-0.38506284625,0.08338064875
268,1778428914390,0.965127431111111,-0.0494371672222222,-0.2597373877777778,0.4304436911111111,-0.26011063,0.0353018802222222
269,1778428914400,0.9477573125,-0.04594780275,-0.2875472624999999,0.4466820575,-0.0733016698749999,0.009086353375
270,1778428914410,0.938598975,-0.03997184425,-0.298096675,0.44423867,0.035352784,0.0156529615
271,1778428914420,0.953609177777778,-0.037431044,-0.2925543444444444,0.4468686911111111,0.0918052488888888,0.0213881380444444
272,1778428914430,0.9877749,-0.0367704369999999,-0.31142441875,0.429196565,0.1562241825,-0.003588727525
273,1778428914440,1.002863425,-0.04204513375,-0.3204988875,0.376434625,0.263351525,-0.04650074725
274,1778428914450,0.9998957888888887,-0.0452363792222222,-0.3029072355555555,0.3206269555555556,0.3481574733333333,-0.0808948433333333
275,1778428914460,0.9837464,-0.0480820759999999,-0.27407086,0.2583884,0.42369893,-0.1098761499999999
276,1778428914470,0.9595445222222224,-0.0540715826666666,-0.2218693144444444,0.1852224633333333,0.4400560444444444,-0.1231790444444444
277,1778428914480,0.9566445955555556,-0.0610096597777777,-0.2007840711111111,0.1159931077777777,0.4899419111111112,-0.1372285333333333
278,1778428914490,0.96313547,-0.06415009,-0.2015018475,0.06360447125,0.5559473625,-0.14690877
279,1778428914500,0.96911144,-0.05881441,-0.19742006,-0.029931515,0.6521558,-0.16240901
280,1778428914510,0.968379675,-0.0350858884999999,-0.1635080225,-0.2269297524999999,0.702092555,-0.20318306
281,1778428914520,0.9665502675,-0.02555027075,-0.13208087875,-0.3243598825,0.70827738875,-0.20944424625
282,1778428914530,0.9748434275,-0.02585516725,-0.11616531625,-0.412169175,0.669717675,-0.22074493
283,1778428914540,0.9700871,-0.025123417,-0.12055582,-0.4575246,0.6069531,-0.22899136
284,1778428914550,0.93834746,-0.01683025,-0.1334834,-0.48440188,0.53242975,-0.22899136
285,1778428914560,0.8939410422222223,-0.0111930651111111,-0.1489992133333333,-0.4340409044444444,0.4926567988888888,-0.2171816533333333
286,1778428914570,0.8496532,-0.007104073125,-0.1719917425,-0.36826453,0.51486789375,-0.2222720475
287,1778428914580,0.8455066575,-0.007134562625,-0.1804678425,-0.33749311,0.633066865,-0.2528144075
288,1778428914590,0.8726796488888888,-0.0114098800555555,-0.1680382677777777,-0.3348121577777778,0.8016097866666666,-0.3012749633333333
289,1778428914600,0.9115166,0.0026830835,-0.13592257,-0.3764346325,1.030900175,-0.4134672375
290,1778428914610,0.8988803644444445,0.0158613582777777,-0.0968755753333333,-0.4173444366666666,1.1998906666666669,-0.4687828433333332
291,1778428914620,0.8489481725000001,0.06433301875,0.050006729,-0.4618005237499999,1.349437875,-0.48088951125
292,1778428914630,0.79812582375,0.08003516125,0.135903515,-0.4408790125,1.327981925,-0.425989605
293,1778428914640,0.7576390677777778,0.0797912448888888,0.1555205966666666,-0.3669155899999999,1.2421070111111112,-0.3546901533333333
294,1778428914650,0.711520195,0.06600995,0.12593723,-0.2347180562499999,1.1958098875,-0.26411508375
295,1778428914660,0.6941733033333333,0.0458292324444444,0.0942907311111111,-0.1478929022222222,1.2632151777777778,-0.2168422977777777
296,1778428914670,0.70089453,0.0043905,0.03442274,-0.09468132,1.640583,-0.24181916
297,1778428914680,0.7111161725,0.0087276435,0.072946330625,-0.10636377875,2.0632129375,-0.25105823125
298,1778428914690,0.7281217575000001,0.0407074067499999,0.19237022375,-0.1320193674999999,2.661919575,-0.2491493225
299,1778428914700,0.73921996,0.096651986,0.32605562,-0.16248538,2.8415086,-0.24487339
300,1778428914710,0.73921996,0.096651986,0.32605562,-0.16248538,2.8415086,-0.24487339
301,1778428914720,0.73921996,0.096651986,0.32605562,-0.16248538,2.8415086,-0.24487339
302,1778428914730,0.73921996,0.096651986,0.32605562,-0.16248538,2.8415086,-0.24487339
303,1778428914740,0.7467242075,0.1021096215,0.3475317175,-0.16095826,2.82967345,-0.24021568
304,1778428914750,0.7963269575,0.0717496129999999,0.399413555,0.4401154499999999,1.00033875,-0.17920731
305,1778428914760,0.775254855,0.023781876175,0.3751095225,0.52655035,1.0406547,-0.23571068
306,1778428914770,0.72320912375,0.008022571725,0.3669764499999999,0.68430165,1.6314203125,-0.362690565
307,1778428914780,0.6762047777777778,0.0446401388888888,0.4502329022222222,0.7972235111111111,2.3123113444444443,-0.4251412111111111
308,1778428914790,0.68284476,0.07783991,0.5637524,0.8893936,2.6301556,-0.4360686
309,1778428914800,0.7367808375,0.07569420375,0.6046580125,1.048366525,2.5686890375,-0.42255358375
310,1778428914810,0.7453179,0.04564291,0.5642402,1.1306783,2.3051848,-0.40491536
311,1778428914820,0.73781745,0.033256515825,0.56265475,1.1306783,2.3051848,-0.40491536
312,1778428914830,0.7056089999999999,0.0085485170625,0.5643926875,1.1284639875,2.2704429375,-0.4085804575
313,1778428914840,0.693668525,0.0707243999999999,0.57887525,1.0550859625,2.328015175,-0.429043865
314,1778428914850,0.7104174333333333,0.1641660833333333,0.56407762,0.9700254,2.3112934,-0.4580591
315,1778428914860,0.7153161,0.19278565,0.55350786,0.9700254,2.3112934,-0.4580591
316,1778428914870,0.66153251,0.1850616133333333,0.5578171,0.5397853433333333,1.9873407333333333,-0.44855702
317,1778428914880,0.62866473,0.16034472,0.5698503,0.40010494,1.8049009,-0.42385164
318,1778428914890,0.6240540266666668,0.1558966288888889,0.5713138,0.3670513177777778,1.7934984222222223,-0.4191006066666666
319,1778428914900,0.5853796777777779,0.1224800488888888,0.5831301999999999,0.0605417511111111,1.7241333555555558,-0.3859791199999999
320,1778428914910,0.57911915,0.13006857,0.5835096,-0.08674031,1.800625,-0.40308285
321,1778428914920,0.57911915,0.13006857,0.5835096,-0.08674031,1.8006249999999997,-0.40308285
322,1778428914930,0.5249392,0.19668831,0.6574469,-0.3854446,1.9319571,-0.38109234
323,1778428914940,0.500222288888889,0.2155240944444444,0.7050716555555555,-0.4777504311111111,1.895034877777778,-0.3582873622222222
324,1778428914950,0.4920104,0.22940363,0.7501962,-0.48928866,1.8904196,-0.35543674
325,1778428914960,0.49777294,0.2274827862499999,0.76556295,-0.7319382175,1.7508409625,-0.3232145462499999
326,1778428914970,0.4736861599999999,0.2330013925,0.8384177850000001,-0.81464118625,1.726254325,-0.33329353875
327,1778428914980,0.45246542,0.23135497,0.8944424400000001,-0.82838523,1.7377077,-0.34321982
328,1778428914990,0.4253677925,0.22476922,0.951907635,-0.8109760875,1.728086925,-0.3308501299999999
329,1778428915000,0.38752261125,0.2084877825,1.0534989,-0.7351547174999999,1.677310275,-0.2967954075
330,1778428915010,0.38340652,0.20647547,1.0652755,-0.7251521,1.6705146,-0.29251948
331,1778428915020,0.3908154849999999,0.1837797837499999,1.0547451625000002,-0.68391990125,1.6345509375,-0.27213245125
332,1778428915030,0.40316376,0.14595364,1.0371946,-0.61519957,1.5746115,-0.23815407
333,1778428915040,0.40316376,0.14595364,1.0371946,-0.61519957,1.5746115,-0.23815407
334,1778428915050,0.40316376,0.14595364,1.0371946,-0.60526374875,1.5720917625,-0.23647424125
335,1778428915060,0.3943827488888888,0.2064178655555555,1.0289014555555556,-0.6238192666666666,1.6744511555555557,-0.2661851744444444
336,1778428915070,0.38584566,0.21623214,1.009876,-0.6341358,1.6680712,-0.2656422
337,1778428915080,0.38584566,0.21623214,1.009876,-0.6341358,1.6680712,-0.2656422
338,1778428915090,0.38334552,0.20476043,1.003404575,-0.73141325,1.5128969,-0.2036412035
339,1778428915100,0.36117962,0.13323948,1.0123152,-1.093493,0.9869001,0.042835664
340,1778428915110,0.34312975,0.11323831,1.0281698,-1.1277004666666668,1.079816811111111,0.0775860871111111
341,1778428915120,0.35649181875,0.0782172141249999,1.13908325,-1.07012805,1.2998066125,0.10017895375
342,1778428915130,0.3873667622222222,0.0326577295555555,1.2655447333333334,-0.8841081111111111,1.6377324333333332,0.1005946666666666
343,1778428915140,0.44246486,0.016586334,1.3195586,-0.7563053,1.7517573,0.07398888
344,1778428915150,0.459660965,0.01457402175,1.2981550249999998,-0.6362738,1.85208885,0.00664296525
345,1778428915160,0.4204920133333333,0.023497305,1.2688851,-0.5583398333333334,1.8305564999999997,-0.0439046463333333
346,1778428915170,0.39804152,0.028294332,1.2578174,-0.5393781,1.8030684,-0.057954133
347,1778428915180,0.3647240175,0.01972676025,1.25061805,-0.349022855,1.412880155,-0.049936762375
348,1778428915190,0.329348485,0.0215332685,1.16515185,-0.1265981,0.978500955,-0.05551074375
349,1778428915200,0.32239684,0.03491057,1.1221386,-0.09407048,0.9331455,-0.048180576
350,1778428915210,0.32239684,0.03491057,1.1221386,-0.09407048,0.9331455,-0.048180576
351,1778428915220,0.3220411455555556,0.0507380543333333,1.0978079333333333,-0.1271919757777778,0.9328061744444444,-0.0617549594444444
352,1778428915230,0.31309754,0.065156244,1.1106441,-0.20096874,0.8421293,-0.062230065
353,1778428915240,0.31309754,0.065156244,1.1106441,-0.20096874,0.8421293,-0.062230065
354,1778428915250,0.31309754,0.065156244,1.1106441,-0.20096874,0.8421293,-0.062230065
355,1778428915260,0.3020670844444444,0.0408052282222222,1.0992037111111113,-0.2410131777777777,0.6488979555555555,-0.0391536128
356,1778428915270,0.28269941875,0.006372323,1.052500425,-0.30466008,0.403693685,0.0092390648
357,1778428915280,0.2717943111111111,0.0195201086666666,1.0448644777777778,-0.3092244555555555,0.4635397533333333,0.0388990928888888
358,1778428915290,0.268338825,0.038660790125,1.05512245,-0.3156553099999999,0.4823402625,0.060550235
359,1778428915300,0.26989379375,0.048204032375,1.0564373500000002,-0.32184014125,0.47081051875,0.065666081875
360,1778428915310,0.2663265087499999,0.07088828375,1.0733857375,-0.3318427825,0.4447731625,0.07795938125
361,1778428915320,0.2632775475,0.0745546525,1.083569275,-0.33932566,0.41209282125,0.08437328
362,1778428915330,0.26236287,0.08738314,1.0967407,-0.35632758,0.5053488466666667,0.0800973466666666
363,1778428915340,0.26236287,0.08738314,1.0967407,-0.36895174,0.7517239,0.07154548
364,1778428915350,0.303535245,0.08115183625,1.5051944875,-0.303591075,0.891187975,0.091245308
365,1778428915360,0.3207809177777778,0.0233245313333333,1.6139355666666666,-0.16492876,0.5666372,0.09659022
366,1778428915370,0.35142294,-0.009756667,1.4974654,0.045813545,-0.2799970975,0.047111595
367,1778428915380,0.3653262,-0.025855167,1.2927278,0.2348707725,-0.95773215,0.009086353375
368,1778428915390,0.2965925,-0.0540173786666666,0.9052560333333334,0.2420991288888888,-0.912563388888889,0.0055739814222222
369,1778428915400,0.2616311,-0.053204324,0.7965709,0.152100965,-0.495626185,-0.00114533865
370,1778428915410,0.23970910625,-0.0175620012525,0.77292238125,0.094375899,-0.217079835,0.0003817795999999
371,1778428915420,0.23696505,-0.00048783334,0.81852335,0.045813546,0.02481567,0.0122933015
372,1778428915430,0.2538639075,0.0193380183324999,0.94286748125,0.01863084175,0.162867145,0.01824906205
373,1778428915440,0.2601337411111111,0.0346666566666666,1.0620064,0.0139137432222222,0.1646996833333333,0.0020446415111111
374,1778428915450,0.2519049575,0.036827606125,1.1345212375,0.01420219875,0.1297286815,0.0020616095749999
375,1778428915460,0.2320257375,0.026586918125,1.2260586125,0.0161874515,0.08742751525,0.02069245125
376,1778428915470,0.2239019544444444,0.0242019539999999,1.2973995777777778,0.013777999,0.0185714543333333,0.0477903145555555
377,1778428915480,0.2284279575,0.0270213934999999,1.38624715,0.008399150125,-0.0910925965,0.0681094714999999
378,1778428915490,0.2428766433333333,0.0348834682222222,1.4410665555555555,0.0070586793333333,-0.2473507188888889,0.0726993128888889
379,1778428915500,0.26205796875,0.035642321,1.4768849375,0.0003054236249999,-0.50341449125,0.0468061715
380,1778428915510,0.2865106133333333,0.0458055176666666,1.4916114666666669,-0.0137101276666666,-0.6999206688888889,0.0136507404444444
381,1778428915520,0.291388935,0.05503369725,1.477159425,-0.0496313425,-0.898632725,-0.0136677075
382,1778428915530,0.29349273,0.06207679125,1.45958595,-0.11239589875,-1.1144145125,-0.01572931725
383,1778428915540,0.29943818,0.06100966,1.4513347,-0.14904673,-1.2335297,-0.008475506
384,1778428915550,0.309141525,0.046191721125,1.4311810875,-0.1815743525,-1.431444175,0.016340164875
385,1778428915560,0.3181283325,0.0285001375,1.4052268,-0.1845522375,-1.56300545,0.02802261825
386,1778428915570,0.32361645,0.013659334,1.3971547,-0.16370706,-1.5988164,0.026953636
387,1778428915580,0.34688000875,0.0066467294375,1.386727225,-0.095444884375,-1.6837241125,0.00832279475
388,1778428915590,0.3545396522222221,0.0112472692222222,1.3727901111111112,-0.061084725,-1.7222838,-0.005421269
389,1778428915600,0.3578867275,0.021342709,1.35026165,0.009162709125,-1.7923021875,-0.01756185825
390,1778428915610,0.3653024811111111,0.0208684255555555,1.3459016888888888,0.043234412,-1.8378018111111112,-0.0242896617777777
391,1778428915620,0.38264427875,0.0117689788124999,1.3337059,0.104607595,-1.968302475,-0.0428356624999999
392,1778428915630,0.38590665,0.006524771,1.311440825,0.14217470125,-2.0993292,-0.05818320125
393,1778428915640,0.38608962,0.0026830835,1.2848921,0.16126367,-2.1565962,-0.06161922
394,1778428915650,0.399870895,-0.0031099375,1.256109825,0.1894389974999999,-2.22310215,-0.0660478625
395,1778428915660,0.4189370566666667,-0.0104071113333333,1.2144712,0.2281175088888888,-2.3086293444444443,-0.06426622
396,1778428915670,0.425512645,-0.0100920526125,1.163257575,0.28969431,-2.416511725,-0.05428905
397,1778428915680,0.4248723366666666,-0.0047970280444444,1.1196655777777778,0.3456716755555555,-2.5102089777777774,-0.0640626055555555
398,1778428915690,0.42002449625,0.01173848975,1.01157961875,0.35650573625,-2.548149325,-0.07826480375
399,1778428915700,0.4121277,0.0348305375,0.9362931925,0.2599155012499999,-2.5069935,-0.091474376
400,1778428915710,0.413473025,0.04707591425,0.90306717625,0.19424942,-2.4669065,-0.090329036
401,1778428915720,0.4478038933333333,0.0432037406666666,0.8630009488888889,0.0429629260666666,-2.5002996666666664,-0.05388182
402,1778428915730,0.46027076,0.040764574,0.85270226,-0.0018325418,-2.553647,-0.03840702
403,1778428915740,0.4946935,0.023659917,0.79803437,-0.059252184,-2.7613351,-0.015194826
404,1778428915750,0.4831455775,0.01597654275,0.7652656925,-0.0762031934999999,-2.843799475,-0.0261900765
405,1778428915760,0.46482389,0.015529362,0.7380816933333334,-0.0842290499999999,-2.8879162555555555,-0.0460086788888888
406,1778428915770,0.44966037,0.02342362125,0.6873495199999999,-0.07956285625,-2.856932625,-0.0727671795
407,1778428915780,0.43978173,0.04027674,0.6576908,-0.08735116,-2.7882123,-0.08605311
408,1778428915790,0.45920364375,0.056100833875,0.62234960875,-0.08246437875,-2.796916825,-0.0568851484999999
409,1778428915800,0.4864613133333332,0.0675141033333333,0.5587826133333333,-0.071061898,-2.8830972,-0.0233394561333333
410,1778428915810,0.48761994,0.07027849,0.5268905,-0.059252184,-2.9299288,-0.0029778804
411,1778428915820,0.482657715,0.0616804299999999,0.495402365,-0.0395523585,-2.93817535,0.0002290676999999
412,1778428915830,0.4835114325,0.04783815825,0.453563035,-0.0056503355,-2.8180674750000003,-0.0072538111
413,1778428915840,0.50127923,0.038325407,0.43709868,0.03420745,-2.6629887,-0.01641652
414,1778428915850,0.535069325,0.04119142775,0.4159693875,0.0877329425,-2.553265125,-0.026419144375
415,1778428915860,0.5588741,0.04320374,0.41048127,0.13072132,-2.5035574,-0.024357535
416,1778428915870,0.5588741,0.04320374,0.41048127,0.13072132,-2.5035574,-0.024357535
417,1778428915880,0.5588741,0.04320374,0.41048127,0.13072132,-2.5035574,-0.024357535
418,1778428915890,0.5588741,0.04320374,0.41048127,0.13072132,-2.5035574,-0.024357535
419,1778428915900,0.574035035,0.03612253425,0.37759825375,0.16225631,-2.54555315,-0.0070247435
420,1778428915910,0.6259003466666666,0.009350139,0.2150938566666666,0.2727772366666667,-2.6378080555555554,0.0553240977777777
421,1778428915920,0.65239322,0.014147166,0.2001260249999999,0.2780882075,-2.5793024625000003,0.06314633625
422,1778428915930,0.6855278,0.017805915,0.18254115,0.31764057,-2.5664747,0.07276718
423,1778428915940,0.68772305,0.01469597925,0.1565640225,0.3423798825,-2.5673911250000003,0.0622300655
424,1778428915950,0.6733048844444445,0.0114911853333333,0.0904964777777777,0.38177955,-2.3850532,0.03978143
425,1778428915960,0.6982114800000001,0.0307487455,0.082840195,0.4350759525,-2.16110125,0.03489465
426,1778428915970,0.7135782,0.040032823,0.08149865,0.47096324,-2.109561,0.03489465
427,1778428915980,0.7135782,0.040032823,0.08149865,0.4709632399999999,-2.109561,0.03489465
428,1778428915990,0.7234720775000001,0.043752552,0.037395470625,0.4805077225,-2.0568753749999997,0.035581853375
429,1778428916000,0.7391386733333333,0.0418215466666666,-0.0336706653333333,0.4385204511111111,-1.9274606333333333,0.0647582943333333
430,1778428916010,0.7453179,0.035642326,-0.04783816,0.38483378,-1.8994296,0.10514209
431,1778428916020,0.765448625,0.0234198115,-0.0730606665,0.27052898875,-1.9528787125,0.1817270574999999
432,1778428916030,0.7807163,0.017318083,-0.096895896,0.1876658566666666,-1.9922104333333333,0.2313159755555555
433,1778428916040,0.79461956,-0.0024391667,-0.1334834,0.11056335,-1.9916675,0.27801186
434,1778428916050,0.8022080577777778,-0.0185647690444444,-0.1619640588888888,0.0661751166666666,-1.945650366666667,0.3036674466666667
435,1778428916060,0.8233216274999999,-0.0508185134999999,-0.208815535,-0.0148894028749999,-1.765272225,0.35452048375
436,1778428916070,0.8463603,-0.066863656,-0.2367211299999999,-0.0574196429999999,-1.6141639,0.38246673
437,1778428916080,0.8463603,-0.066863656,-0.2367211299999999,-0.0574196429999999,-1.6141639,0.38246673
438,1778428916090,0.8463603,-0.066863656,-0.2367211299999999,-0.0574196429999999,-1.6141639,0.38246673
439,1778428916100,0.8463603,-0.066863656,-0.2367211299999999,-0.0574196429999999,-1.6141639,0.38246673
440,1778428916110,0.8463603,-0.066863656,-0.2367211299999999,-0.0574196429999999,-1.6141639,0.38246673
441,1778428916120,0.8693570899999999,-0.049842846175,-0.2508149475,-0.07146912975,-1.5196162000000002,0.3716241925
442,1778428916130,0.93834746,0.0012195833,-0.2930964,-0.11361759,-1.2359731,0.33909658
443,1778428916140,0.9335504333333334,0.0403478847666666,-0.3411784599999999,0.0077373988888888,-0.8329496200000001,0.18054778
444,1778428916150,0.9327374,0.061497495,-0.37779644,0.12705623,-0.5255577,0.07154548
445,1778428916160,0.93249345,0.0553995739999999,-0.4014563599999999,0.19180603,-0.3795652,0.0538309139999999
446,1778428916170,0.9332522722222222,0.0342465782222222,-0.4154544577777778,0.2607638966666666,-0.2196589688888889,0.0494871113333333
447,1778428916180,0.9368635555555556,-0.0029879792777777,-0.4413536577777778,0.3745172322222222,0.0580050377777777,0.0365914472222222
448,1778428916190,0.9461832,-0.040764574,-0.47075918,0.4709632399999999,0.3302393,0.0104607595
449,1778428916200,0.944176992,-0.0504297711999999,-0.4784730439999999,0.472917952,0.40671738,0.002031067
450,1778428916210,0.937104112222222,-0.0889821527777777,-0.5061812933333333,0.4638367,0.7838952100000001,-0.040239564
451,1778428916220,0.94471973,-0.088114895,-0.48100364,0.40763876,0.9585974866666668,-0.067116842
452,1778428916230,0.93993286,-0.0694003906,-0.439336604,0.34256315,1.04066986,-0.0950936471999999
453,1778428916240,0.918041375,-0.0428302449999999,-0.398895215,0.2368560275,1.1348015,-0.1376697025
454,1778428916250,0.9068822,-0.026343001,-0.37364984,0.16309622,1.2044381,-0.16424155
455,1778428916260,0.8970645222222223,0.0110101278888888,-0.3312523844444444,0.05029309,1.309503811111111,-0.1961413588888888
456,1778428916270,0.8825413200000001,0.0348292685555555,-0.29694484,-0.0660393754444444,1.3893212444444445,-0.2189463233333333
457,1778428916280,0.859928215,0.0600339899999999,-0.26081934375,-0.149352153,1.4417523,-0.22043951
458,1778428916290,0.85489744,0.06661974,-0.25257573,-0.2229592533333333,1.4758579333333333,-0.20883341
459,1778428916300,0.85470774,0.0774333788888888,-0.2216525066666666,-0.2816006,1.4799302,-0.19417307
460,1778428916310,0.8355593875,0.0586924509999999,-0.17833358,-0.405449865,1.309656525,-0.14698512
461,1778428916320,0.8148646,0.040764574,-0.1744919,-0.4691307,1.1983296,-0.11903886
462,1778428916330,0.8078689366666667,0.0320852056666666,-0.1820567022222222,-0.4950662555555555,1.1470778222222222,-0.108858072
463,1778428916340,0.7614163700000001,-0.02574083025,-0.245448775,-0.6623874625,0.8749623750000001,-0.0516929479999999
464,1778428916350,0.726467675,-0.04875284175,-0.276022205,-0.73064965,0.8781693,-0.02741177
465,1778428916360,0.7078326333333333,-0.0482988883333333,-0.2833667888888889,-0.8393805000000001,1.0492319666666663,0.0181981583333333
466,1778428916370,0.7029271933333333,-0.035256122,-0.2778583388888889,-0.8807823977777778,1.2348447,0.0310938221111111
467,1778428916380,0.705963465,-5.335725000000027e-05,-0.23317672,-0.922150305,1.596602,0.04268295175
468,1778428916390,0.71677965,0.029788323,-0.16693048,-0.9322293,1.8751484,0.053220067
469,1778428916400,0.7124424425,0.04570388575,-0.049903828,-0.87931464375,2.1782049625,0.0548998962499999
470,1778428916410,0.7020531624999999,0.03685428375,0.0520914535,-0.80792185,2.3396978,0.0515402375
471,1778428916420,0.70409974,0.009726176375,0.13891816125,-0.7208761,2.4542315,0.04833329
472,1778428916430,0.7263533175,-0.02933860325,0.258627885,-0.495301685,2.608775875,0.0112243189999999
473,1778428916440,0.7261017875,-0.05668014,0.3744273275,-0.2715979525,2.738657425,-0.0494786265
474,1778428916450,0.7116269,-0.06564408,0.43246427,-0.06902574,2.8268485,-0.118428014
475,1778428916460,0.6703948333333334,-0.025225049,0.4898761466666667,0.1771457033333333,3.1772711333333334,-0.20252132
476,1778428916470,0.6573961277777778,0.0126599522222222,0.5478740933333334,0.2905596755555555,3.3994837555555555,-0.2245796888888888
477,1778428916480,0.67692973,0.04192317775,0.6529496800000001,0.4193466525,3.4047099,-0.2131093349999999
478,1778428916490,0.6839558677777778,0.0515240101111111,0.7293074666666667,0.5032702744444444,3.211071422222222,-0.1934943511111111
479,1778428916500,0.68308862,0.0608267167499999,0.77083005,0.575418105,2.9189336,-0.1776801949999999
480,1778428916510,0.6702321766666667,0.0523099623333333,0.7277457100000001,0.6322269,2.6325989,-0.16301987
481,1778428916520,0.64744633,0.046618573,0.66577053,0.66765606,2.4878283,-0.16485241
482,1778428916530,0.6277805612499999,0.061558468,0.656604605,0.66956494125,2.6111429875,-0.16637952875
483,1778428916540,0.62476206,0.088846646,0.68699133,0.687814,2.8060796,-0.16912833
484,1778428916550,0.62476206,0.088846646,0.68699133,0.687814,2.8060796,-0.16912833
485,1778428916560,0.62476206,0.088846646,0.68699133,0.687814,2.8060796,-0.16912833
486,1778428916570,0.607958495,0.14643766325,0.8024172875,0.50517068125,2.7776752625,-0.2291440725
487,1778428916580,0.5906747175,0.14954759375,0.82520056875,0.4236225712499999,2.494242125,-0.21478916125
488,1778428916590,0.57302124,0.1199053722222222,0.7890297733333332,0.3452644488888888,2.122812944444445,-0.1761870155555555
489,1778428916600,0.5525551025,0.08948312,0.7303093475,0.2583883899999999,1.8581974125,-0.1459924925
490,1778428916610,0.45351221,0.0475129366666666,0.6663295333333333,0.0444561066666666,1.8172536222222224,-0.1021387511111111
491,1778428916620,0.39724878125,0.05363118,0.746762325,-0.14370182,2.0367175,-0.0161110969999999
492,1778428916630,0.4103051044444444,0.0703326988888888,0.8159893555555555,-0.3403097888888889,2.293578888888889,0.0683555044444444
493,1778428916640,0.42929336,0.07710816,0.86343455,-0.4434751,2.4188025,0.09720107
494,1778428916650,0.475675645,0.06256463,0.99430345625,-0.5855639025,2.396201125,0.1399603775
495,1778428916660,0.516767975,0.041915555,1.06997095,-0.68865392,2.19172005,0.172029855
496,1778428916670,0.53057973125,0.02131221875,1.1115092125,-0.737903525,1.98532995,0.1901262075
497,1778428916680,0.52859795,0.01536675,1.1243339,-0.7166002,1.8792206666666669,0.19799087
498,1778428916690,0.51248800625,0.012988562625,1.1408897750000002,-0.6701758,1.7822996,0.19921257
499,1778428916700,0.48393068,0.023172084,1.2131501,-0.6237514,1.8110094,0.1711136
500,1778428916710,0.4760033875,0.0272157645,1.23238135,-0.5765539012500001,1.79474555,0.148283175
501,1778428916720,0.46258795125,0.02600761575,1.2564758,-0.499214935,1.7445797500000002,0.1336991925
502,1778428916730,0.45831943,0.01683025,1.2522072,-0.4520269599999999,1.7157172,0.12957597
503,1778428916740,0.476624605,0.0032928749875,1.2456214875,-0.4035409587499999,1.7142665125,0.12598725
504,1778428916750,0.50487702,-0.013110521,1.260744275,-0.34398337375,1.678302875,0.1217113187499999
505,1778428916760,0.5244513,-0.025367333,1.2783062,-0.31458634,1.5404041,0.11796988
506,1778428916770,0.5260503599999999,-0.0306488075555555,1.2840585666666666,-0.2805146311111111,1.3279649777777776,0.12333176
507,1778428916780,0.51274333375,-0.034697145875,1.2882344375,-0.24250636,1.1238062,0.12835428
508,1778428916790,0.50664544,-0.041252404,1.281965,-0.24250636,1.1238062,0.12835428
509,1778428916800,0.50664544,-0.041252404,1.281965,-0.233267295,1.1027987875,0.1290414825
510,1778428916810,0.4993990666666666,-0.043447656,1.2580510333333337,-0.1083235783333333,0.920725,0.13059405
511,1778428916820,0.48490632,-0.04783816,1.2102231,0.012216945,0.8506812,0.12407835
512,1778428916830,0.48490632,-0.04783816,1.2102231,0.012216945,0.8506812,0.12407835
513,1778428916840,0.4901776366666666,-0.0409542886666666,1.1756817666666668,0.0259270718888888,0.8538711611111112,0.0904138784444444
514,1778428916850,0.49682777,-0.02167047265,1.1411031500000002,0.003588727625,0.7795174500000001,0.04573718725
515,1778428916860,0.4915226,0.0019513334,1.1643362,-0.037261683,0.6985802,0.046500746
516,1778428916870,0.490478325,0.010122541875,1.1618055875,-0.077653956875,0.56908058,0.051311168625
517,1778428916880,0.47947918875,0.019818229875,1.1387554875,-0.176382145,0.24548425,0.0643680295
518,1778428916890,0.47002742,0.013415418,1.1184798,-0.19974706,0.1543153,0.07032379
519,1778428916900,0.4661944557142857,-0.0036587495,1.0797712,-0.2121385228571428,0.0769122184285714,0.0873402528571428
520,1778428916910,0.4646612699999999,-0.022196416,1.045244,-0.2211267,0.0071010995,0.10514209
521,1778428916920,0.46466127,-0.022196416,1.045244,-0.2211267,0.0071010995,0.10514209
522,1778428916930,0.46466127,-0.022196416,1.045244,-0.2211267,0.0071010995,0.10514209
523,1778428916940,0.4646612699999999,-0.022196416,1.045244,-0.2211267,0.0071010995,0.10514209
524,1778428916950,0.47002742,-0.04277688525,1.10303695,-0.05245651,0.1551552025,0.0742942985
525,1778428916960,0.4690212649999999,-0.033069763875,1.143553775,-0.0169510124999999,0.1614163875,0.062153709375
526,1778428916970,0.45734376,-0.0217898896666666,1.2051007666666669,0.0650212966666666,0.0798597937333333,0.0159583844444444
527,1778428916980,0.4431966,-0.022440333,1.2202237,0.0659715,0.0009926268,-0.013973131
528,1778428916990,0.4431966,-0.022440333,1.2202237,0.0659715,0.0009926268,-0.013973131
529,1778428917000,0.4170805622222222,-0.0229281664444444,1.2951535444444444,0.0234836817222222,-0.0744130747555555,-0.0232037117777777
530,1778428917010,0.39779758,-0.025367333,1.4062101,-0.028098974,-0.1816507,-0.02985516
531,1778428917020,0.40758856,-0.0225622913749999,1.4437885,-0.0115297421249999,-0.2980171125,-0.03260397175
532,1778428917030,0.43319598,-0.012683666,1.5423765,0.032374904,-0.5689279,-0.04023956
533,1778428917040,0.44392833,-0.0034148335,1.5618899,0.11361759,-0.9012288,-0.062230065
534,1778428917050,0.44392833,-0.0034148335,1.5618899,0.1136175899999999,-0.9012288,-0.062230065
535,1778428917060,0.44731266875,0.0010061560424999,1.5332563875,0.1831014625,-1.100212275,-0.0910925975
536,1778428917070,0.4621001275,-0.0027440624949999,1.455016325,0.2846548125,-1.37837685,-0.1341573275
537,1778428917080,0.4727105199999999,-0.01243975,1.4220647,0.30175856,-1.4516021,-0.15019207
538,1778428917090,0.4793343775,-0.0208929875,1.409068525,0.30649262375,-1.4951345374999998,-0.1512610525
539,1778428917100,0.5085052912500001,-0.05997301375,1.345471125,0.326955995,-1.723352875,-0.161034605
540,1778428917110,0.51167618375,-0.0627780525,1.2839964875,0.32374904,-1.8126892,-0.1752368
541,1778428917120,0.50577818,-0.0389419735555555,1.2529119222222225,0.2927994533333333,-1.920809166666667,-0.2000779266666666
542,1778428917130,0.50374891875,-0.0117079993749999,1.2311655625,0.29114509,-1.950053525,-0.20303035625
543,1778428917140,0.51306854,0.0261092473333333,1.1983524333333333,0.28017528,-2.0089748666666667,-0.19763454
544,1778428917150,0.5185363749999999,0.0399718455,1.175640225,0.2870982,-2.0594716,-0.19111884
545,1778428917160,0.524939175,0.045033116,1.1146839000000002,0.315044465,-2.13445315,-0.18577392
546,1778428917170,0.5276832499999999,0.0385693225,1.0725816,0.3239017537499999,-2.15201495,-0.188522735
547,1778428917180,0.52774420625,0.03274199875,1.051555275,0.32764320625,-2.1607193625,-0.189591715
548,1778428917190,0.5434056866666668,0.0100818889,0.9863685333333334,0.3470291177777778,-2.261865611111111,-0.1744902177777777
549,1778428917200,0.551648065,-0.0069821145125,0.940691325,0.34940463,-2.3502347,-0.17401512
550,1778428917210,0.5454587,-0.021708583,0.9090774,0.34207445,-2.3948267,-0.1789019
551,1778428917220,0.5443102177777778,-0.0165863333333333,0.8682653888888889,0.3401740488888889,-2.4541467555555556,-0.1911867122222222
552,1778428917230,0.53867851,-0.00588448975,0.784272115,0.33260635,-2.53135105,-0.2114295075
553,1778428917240,0.5273478149999999,0.0006097916874999,0.75098895,0.3109212675,-2.55196715,-0.21891238
554,1778428917250,0.52323174,0.006097917,0.7323903,0.29809347,-2.561588,-0.21799612
555,1778428917260,0.5221036475,0.02119407175,0.7021484625000001,0.29305397875,-2.567085625,-0.2139492575
556,1778428917270,0.5249391800000001,0.044016796,0.6477105666666667,0.25777754,-2.6045509,-0.1784946633333333
557,1778428917280,0.53469586,0.051009074,0.6223229,0.25777754,-2.6025147,-0.16424155
558,1778428917290,0.5418989925,0.0621072775,0.56508629,0.270452625,-2.6043471875,-0.14293826375
559,1778428917300,0.54960525,0.0690589,0.54274505,0.2907633,-2.5915196,-0.13064496
560,1778428917310,0.5508858037500001,0.08169302725,0.505334345,0.295802795,-2.5113457,-0.131713935
561,1778428917320,0.544543955,0.0934810625,0.49182748,0.2855711025,-2.4136102,-0.1255291075
562,1778428917330,0.5520986066666667,0.1016929222222222,0.4916242266666667,0.2908311711111111,-2.434260311111111,-0.0741755217777777
563,1778428917340,0.5775337075,0.10018877375,0.4625803825,0.30351474375,-2.48653005,-0.029702448075
564,1778428917350,0.59180284,0.0939689,0.42560413,0.31580803,-2.529824,0.0055739814
565,1778428917360,0.5921115375,0.091407775,0.39416553375,0.313288285,-2.5028703,0.039934141175
566,1778428917370,0.606407315,0.08689531625,0.3577037925,0.32497075,-2.4864538,0.08620582
567,1778428917380,0.6093953,0.08860273,0.3316657,0.33352262,-2.4528573,0.116748184
568,1778428917390,0.6266524375,0.09274931375,0.26315178,0.33023929,-2.386122225,0.161263678
569,1778428917400,0.6436588555555555,0.0960557433333333,0.2288615799999999,0.3182514155555556,-2.333538455555556,0.2083073911111111
570,1778428917410,0.6650659333333333,0.0924715244444444,0.1974708722222222,0.3033195922222222,-2.318946,0.2472658722222222
571,1778428917420,0.6728441,0.08125474,0.17790672,0.28648737,-2.293426,0.27007085
572,1778428917430,0.6881804125,0.050551729,0.1539990775,0.24762221125,-2.2453218125,0.2712925312499999
573,1778428917440,0.7127448666666667,0.0394636848888888,0.1399133066666666,0.1821682255555555,-2.1149908111111113,0.2685776611111111
574,1778428917450,0.7277559,0.041740242,0.14449014,0.15698774,-2.0142689,0.2719034
575,1778428917460,0.7519036375,0.0584485315,0.1510149049999999,0.14782503,-1.9476864,0.27923355
576,1778428917470,0.7603865222222222,0.0672972853333333,0.15649287,0.1527796833333333,-1.907709911111111,0.2862922288888889
577,1778428917480,0.7637161285714286,0.0722298211428571,0.1299291871428571,0.1520137057142857,-1.9085050285714285,0.2921486057142857
578,1778428917490,0.7614705666666667,0.0748044997777777,0.1017403533333333,0.1489109844444444,-1.8881628666666663,0.2995951288888888
579,1778428917500,0.76270836,0.066619738875,0.0611925967499999,0.14370182375,-1.8471258125,0.31367005625
580,1778428917510,0.778825945,0.05289942525,0.04258632675,0.145076225,-1.847507525,0.3302392875
581,1778428917520,0.7877899,0.03369099,0.022440333,0.15882029,-1.8823259000000003,0.3238254
582,1778428917530,0.79007659875,0.0128666050425,-0.0369228854999999,0.17653486,-1.8523943,0.30977592
583,1778428917540,0.79925394,0.00048783334,-0.069790654,0.1655396,-1.7241164,0.2993915
584,1778428917550,0.79925394,0.00048783334,-0.069790654,0.1655396,-1.7241164,0.2993915
585,1778428917560,0.8311955900000001,-0.00362826051,-0.1003602727499999,0.1478250375,-1.591972975,0.26991812625
586,1778428917570,0.8521330533333333,-0.0021952499666666,-0.1299059466666666,0.1309249311111111,-1.4944972444444444,0.2417003877777778
587,1778428917580,0.85459257,0.002744062625,-0.1506871424999999,0.125529105,-1.49008555,0.23540526625
588,1778428917590,0.86008062,0.0030184687875,-0.18068508625,0.1270562324999999,-1.482220875,0.22677704125
589,1778428917600,0.8655078275,0.003475812725,-0.21752031,0.1204896225,-1.44763165,0.2150945875
590,1778428917610,0.87273769625,0.00246965625,-0.26614357,0.11231954,-1.4079265375,0.20035790125
591,1778428917620,0.8915967533333333,-0.0019513333333333,-0.3296127266666666,0.1001789533333333,-1.2821938666666666,0.1633761933333333
592,1778428917630,0.89578398,-0.004756375,-0.36850473,0.08826743125,-1.140528175,0.134615465
593,1778428917640,0.8990769,-0.005854,-0.38608962,0.070858285,-0.9952993,0.1130831
594,1778428917650,0.913284985,-0.005061270625,-0.37553256,0.0546708305,-0.836784425,0.09323056125
595,1778428917660,0.9330422275,-0.00195133345,-0.3710048575,0.046424393,-0.7259156,0.075821415
596,1778428917670,0.94127446,0.0024391667,-0.37340593,0.02687728,-0.6159631,0.06177193
597,1778428917680,0.94127446,0.0024391667,-0.37340593,0.02687728,-0.6159631,0.06177193
598,1778428917690,0.949056077777778,-0.0001084074111111,-0.3679313633333333,-0.0253840968222222,-0.4898570777777777,0.0284468186666666
599,1778428917700,0.9493542,-0.00073175,-0.36727753,-0.029320668,-0.48096585,0.025731942
600,1778428917710,0.9493542,-0.00073175,-0.36727753,-0.029320668,-0.48096585,0.025731942
601,1778428917720,0.9493542,-0.00073175,-0.36727753,-0.029320668,-0.48096585,0.025731942
602,1778428917730,0.9493542,-0.00073175,-0.36727753,-0.029320668,-0.48096585,0.025731942
603,1778428917740,0.9493542,-0.00073175,-0.36727753,-0.029320668,-0.48096585,0.025731942
604,1778428917750,0.9493542,-0.00073175,-0.36727753,-0.029320668,-0.48096585,0.025731942
605,1778428917760,0.9329355375,-0.009421281625,-0.37485037875,-0.0305423625,-0.29923879425,-0.01504211125
606,1778428917770,0.85319006,-0.013659334,-0.41243258,0.015271181,0.25693762,-0.0884965
607,1778428917780,0.85319006,-0.013659334,-0.41243258,0.015271181,0.25693762,-0.0884965
608,1778428917790,0.8412313444444445,-0.0044989076666666,-0.4005619866666666,0.0237551717777777,0.4024550222222222,-0.0724108537777777
609,1778428917800,0.8339206,0.002927,-0.38608962,0.03420745,0.56358296,-0.050013117
610,1778428917810,0.8324532875,0.001250072875,-0.3859371675,0.04039227825,0.57053134875,-0.053067353125
611,1778428917820,0.8175172,-0.011372614875,-0.38788847125,0.083686076,0.61917007,-0.074447006
612,1778428917830,0.782728615,-0.018964521,-0.4150013475,0.1211004669999999,0.71163703375,-0.0920852244999999
613,1778428917840,0.77632576,-0.023172084,-0.43295208,0.12644538,0.7248466,-0.09460497
614,1778428917850,0.7936787028571429,-0.0150879886714285,-0.4178423114285715,0.1480868257142857,1.1705578628571427,-0.1349208914285714
615,1778428917860,0.81779164,0.0012195833,-0.37511334,0.1655396,1.5043641,-0.1789019
616,1778428917870,0.81779164,0.0012195833,-0.37511334,0.1655396,1.5043641,-0.1789019
617,1778428917880,0.8082178624999999,0.037284950125,-0.25885275875,0.18172706125,1.9277576125,-0.28014981
618,1778428917890,0.7964624555555555,0.0400599256666666,-0.2002081544444444,0.20096874,1.996707,-0.29190862
619,1778428917900,0.7841311,0.030763991,-0.16546696,0.20096874,1.996707,-0.29190862
620,1778428917910,0.7677582,0.023172084,-0.16546696,0.24494976,2.0260277,-0.31695336
621,1778428917920,0.7475827928571429,0.025680942,-0.1315712671428571,0.2488766171428571,2.1742890714285714,-0.3265524
622,1778428917930,0.741903,0.027562585,-0.1149457399999999,0.25044736,2.316791,-0.32855946
623,1778428917940,0.7357441499999999,0.037650827625,-0.07461182125,0.2252499225,2.5464695875000003,-0.3432198025
624,1778428917950,0.7254043375,0.0498199826249999,-0.028077095375,0.199441635,2.800734625,-0.3552840375
625,1778428917960,0.714066,0.06027791,0.006097917,0.1783674,2.9184754,-0.35849097
626,1778428917970,0.714066,0.06027791,0.006097917,0.1783674,2.9184754,-0.35849097
627,1778428917980,0.7075499728571428,0.0821128057142857,0.1188919505714285,0.0605611428571428,3.1039112571428573,-0.3632904914285714
628,1778428917990,0.7137205055555556,0.0944025233333333,0.2553265488888889,-0.1563769,3.120666,-0.3536042
629,1778428918000,0.7287315,0.092505395,0.3153233,-0.1563769,3.120666,-0.3536042
630,1778428918010,0.7287315,0.092505395,0.3153233,-0.1563769,3.120666,-0.3536042
631,1778428918020,0.7287315,0.092505395,0.3153233,-0.1563769,3.120666,-0.3536042
632,1778428918030,0.75391594375,0.080561101375,0.4572637062499999,-0.5143715625,2.97314635,-0.28412033
633,1778428918040,0.76169079375,0.0733579375,0.59563685625,-0.78539686375,2.7975278125000003,-0.23311458625
634,1778428918050,0.7560502,0.07198591,0.67479545,-0.87358797,2.657033,-0.20333578
635,1778428918060,0.7701592625,0.071284644375,0.7296729000000001,-0.9069554625,1.8727813875,-0.07131642075
636,1778428918070,0.7563754333333333,0.07068502,0.6844606666666667,-0.7695402666666668,1.5526210333333337,-0.0215069143333333
637,1778428918080,0.7487327,0.06418057,0.6442754,-0.6542938,1.4292299,-0.007253811
638,1778428918090,0.7261971125,0.06930663375,0.57692390875,-0.5261017625,1.5065020625,-0.02672456725
639,1778428918100,0.6698019777777778,0.0965977777777777,0.4819793411111111,-0.3847659066666666,1.954694266666667,-0.0761438081111111
640,1778428918110,0.6574469,0.12201932,0.48027194,-0.36101073,2.2587605,-0.092772424
641,1778428918120,0.670039105,0.1333614424999999,0.5395207875,-0.4063661249999999,2.5125673625,-0.086893022125
642,1778428918130,0.68796694,0.12348281,0.58472925,-0.4715741,2.480498,-0.050013117
643,1778428918140,0.71329235,0.040082368725,0.62637799375,-0.520976355,2.1394162875,0.0143549114
644,1778428918150,0.7025409625,-0.0028393426,0.640555675,-0.5102101925,1.88965605,0.070476504
645,1778428918160,0.6696325777777778,-0.0528248961111111,0.6495332,-0.42542117,1.7605126777777778,0.102291465
646,1778428918170,0.6430558000000001,-0.060887696,0.6449462125000001,-0.337187705,1.781459675,0.0791047195
647,1778428918180,0.6211033,-0.055399574,0.65354425,-0.2816006,1.9380656,0.046500746
648,1778428918190,0.6211033,-0.055399574,0.65354425,-0.2816006,1.9380656,0.046500746
649,1778428918200,0.5880869375,0.027341535125,0.7737913187500001,-0.16187453125,2.6242761999999997,-0.0550526105
650,1778428918210,0.60075323,0.0540986877777777,0.8339747666666667,-0.1504720477777777,2.7435016666666665,-0.0956230455555555
651,1778428918220,0.6077145775,0.0427730775875,0.85090325,-0.1641652075,2.5469276,-0.106821915
652,1778428918230,0.5642301000000001,-0.0042278888666666,0.8894624666666666,-0.17544891,2.2863843,-0.0844920566666666
653,1778428918240,0.5189936975,-0.03784900775,0.94424340125,-0.1166718235,2.0287001,-0.021914144475
654,1778428918250,0.49810836,-0.055399574,0.97886807,-0.067804046,1.9405091,0.0055739814
655,1778428918260,0.4870711066666666,-0.0516595201111111,1.0301480888888888,0.1254273022222222,1.8120953666666668,0.0292612797777777
656,1778428918270,0.46075480375,-0.0285649287499999,1.0477478,0.3064926175,1.955474775,-0.00435228625
657,1778428918280,0.42362610125,0.0244564575,1.0727760125,0.3701734424999999,2.191185375,-0.0408504085
658,1778428918290,0.4388061,0.07271766,1.1013753,0.39582902,2.3467224,-0.04940227
659,1778428918300,0.49615702,0.11201873,1.135798,0.37017342,2.3076282,-0.059786674
660,1778428918310,0.5181637466666666,0.120555816,1.1654778777777777,0.3327081333333333,2.0792393,-0.0488592971111111
661,1778428918320,0.512346985,0.1081770435,1.182142175,0.3413109125,1.8155908125,-0.0098499123749999
662,1778428918330,0.48728454,0.08599079,1.1628930666666666,0.390399271111111,1.5802449555555556,0.0267500198888888
663,1778428918340,0.47344226,0.07149807,1.1316514,0.43125817,1.4823736,0.023899399
664,1778428918350,0.43197644,0.084669575,1.0940578,0.420568345,1.5379607000000002,-0.0087809304999999
665,1778428918360,0.4259733733333333,0.1121745722222222,1.136316322222222,0.3433640355555555,1.7510106,-0.0758723244444444
666,1778428918370,0.436123,0.12519024,1.1853435,0.26938364,1.7951274,-0.08788565
667,1778428918380,0.434629025,0.12006798125,1.1953745875,0.20707722,1.6308094,-0.08544226
668,1778428918390,0.4202921088888889,0.1046741255555555,1.1668568,0.1284136722222222,1.4415825666666668,-0.0647413266666666
669,1778428918400,0.4040174775,0.08731073375,1.147688925,0.0733016692499999,1.3325633,-0.0406976997499999
670,1778428918410,0.3925229225,0.0833623325,1.1482377125,0.046653459875,1.2805649,-0.0229067722125
671,1778428918420,0.3827526855555556,0.0886298311111111,1.1507039555555556,0.0378046566666666,1.2419033222222222,-0.0062357321777777
672,1778428918430,0.36575305625,0.10814654625,1.16162265,0.01221694625,1.2781979,-0.0254265165
673,1778428918440,0.3623992,0.13055639,1.1697024,-0.018936265,1.3528739,-0.03413109
674,1778428918450,0.4407709777777777,0.2314904633333333,1.1940601777777775,-0.1561732883333333,1.6912833,-0.0084755053333333
675,1778428918460,0.46662785,0.2585059225,1.51162785,-0.93467265,2.29403685,0.2436517
676,1778428918470,0.3767360722222222,0.1804780122222222,1.7859273333333334,-1.198355022222222,1.3809644288888887,0.3378749088888889
677,1778428918480,0.36505559125,0.11997652,1.7130648625,-1.2229162625,0.1212531899999999,0.311913885
678,1778428918490,0.3941388612499999,0.091769835375,1.377496575,-1.07180785,-1.1290747875,0.26594763625
679,1778428918500,0.3693880788888888,0.0364215012222222,1.0363917444444446,-0.8322539666666667,-1.2347514333333334,0.2507273466666667
680,1778428918510,0.36044785,0.0160985,0.9224928,-0.7251521,-1.0698227,0.23525254
681,1778428918520,0.35581344,0.00439049965,0.903696,-0.6634565,-0.8764895,0.2202867849999999
682,1778428918530,0.3415036688888889,-0.0105155186666666,0.9415590377777776,-0.4223754266666666,-0.332733598,0.1501411683333333
683,1778428918540,0.331604705,-0.00963470875,0.98753477,-0.21181129575,-0.05581616975,0.0756687044999999
684,1778428918550,0.33922711,-0.0174095526666666,1.0176,-0.0338002156666666,0.0412406736666666,0.0215917541422222
685,1778428918560,0.3515042466666667,-0.0348292686666666,1.0241044666666663,0.0928487866666666,0.123772924,-0.0115297419066666
686,1778428918570,0.3536182,-0.045886826,1.0325602,0.1808108,0.19951798,-0.035963632
687,1778428918580,0.3313946855555555,-0.0363401961111111,1.1033604555555556,0.2451533711111111,0.2509649044444444,-0.0640626083333333
688,1778428918590,0.32178708125,-0.0193303955625,1.1642828625,0.25395975875,0.26426779125,-0.086205816875
689,1778428918600,0.32093337,-0.0026830835,1.2373283,0.2321219633333333,0.2339969166666667,-0.1098082833333333
690,1778428918610,0.3364220699999999,0.0195438235,1.3491107875,0.21761433125,0.171495361,-0.13392826625
691,1778428918620,0.35605735,0.0248795,1.4296261,0.20585553,0.056579728,-0.16973919
692,1778428918630,0.3723997722222222,0.0402462502222222,1.5152137888888888,0.1967606877777777,-0.273685028,-0.20761171
693,1778428918640,0.3785281711111111,0.0503315284444444,1.5522416555555556,0.1943173,-0.5782941866666667,-0.2220005577777778
694,1778428918650,0.37682077,0.053936075,1.5509136,0.18019994,-0.8193752,-0.22960222
695,1778428918660,0.3731247511111111,0.0674056933333333,1.5118903555555554,0.1521688388888889,-1.0669719666666666,-0.2259371333333333
696,1778428918670,0.38355897,0.08034005375,1.43206525,0.09651387,-1.4351093,-0.2112768
697,1778428918680,0.39804152,0.08003516,1.4052345,0.0574196415555555,-1.5578217444444444,-0.2053040711111111
698,1778428918690,0.406029785,0.0814986585,1.383632575,0.037872529,-1.6355054,-0.2066954425
699,1778428918700,0.41560352,0.082230404,1.3512983,0.0219905,-1.721673,-0.2100551
700,1778428918710,0.39584628,0.076864235,1.3124851,0.030542362,-1.6715835,-0.20944425
701,1778428918720,0.4074056299999999,0.07704717875,1.3292277,0.0245102455,-1.6130376750000002,-0.19508934875
702,1778428918730,0.45704268,0.0763154299999999,1.371116475,0.005803049075,-1.6496885,-0.161645455
703,1778428918740,0.49420568,0.07076632,1.390325,0.0030542363,-1.7784818,-0.1428619
704,1778428918750,0.49420568,0.07076632,1.390325,0.0030542363,-1.7784818,-0.1428619
705,1778428918760,0.496278965,0.0494731594999999,1.3500978375,0.0030542363,-1.995408875,-0.14858859625
706,1778428918770,0.4946935,0.024391668,1.2885813,0.0030542363,-2.356954,-0.15813309
707,1778428918780,0.4946935,0.024391668,1.2885813,0.0030542363,-2.356954,-0.15813309
708,1778428918790,0.4908382588888889,0.0256180266666666,1.2719035,0.0220583722333333,-2.3784015555555555,-0.1601692455555555
709,1778428918800,0.4601623422222222,0.0249946828888888,1.1186391,0.2689085422222222,-2.392518988888889,-0.1739472377777778
710,1778428918810,0.4475871,0.023416,1.0721053,0.3811687,-2.3270226,-0.17218257
711,1778428918820,0.4475871,0.023416,1.0721053,0.3811687,-2.3270226,-0.17218257
712,1778428918830,0.453806965,0.0244221565,0.948428075,0.7218687500000001,-2.032746975,-0.16378342
713,1778428918840,0.46295384,0.026099084,0.9200537,0.8203679,-1.9708985999999995,-0.15996562
714,1778428918850,0.46295384,0.026099084,0.9200537,0.8203679,-1.9708986,-0.15996562
715,1778428918860,0.48269585125,0.04551713875,0.835990075,1.069669925,-1.9903694375,-0.1523300337499999
716,1778428918870,0.4678321499999999,0.061497495,0.7765697,1.2064233,-2.0362594,-0.16363071
717,1778428918880,0.45599457,0.0670465987499999,0.74166675,1.21986195,-2.0534394625,-0.150421138125
718,1778428918890,0.42023791375,0.085039261875,0.6272279125,1.2642247875,-2.1422414125,-0.0690257393749999
719,1778428918900,0.4185305,0.094456725,0.559118,1.2326897,-2.170035,-0.0096972
720,1778428918910,0.4185305,0.094456725,0.559118,1.2326897,-2.170035,-0.0096972
721,1778428918920,0.4185305,0.094456725,0.559118,1.2326897,-2.170035,-0.0096972
722,1778428918930,0.44856274,0.07149807,0.38145518,0.9700254,-1.837734,0.13263021
723,1778428918940,0.44856274,0.07149807,0.38145518,0.9700254,-1.837734,0.13263021
724,1778428918950,0.44856274,0.07149807,0.38145518,0.9700254,-1.837734,0.13263021
725,1778428918960,0.5270836044444445,0.0705257911111111,0.4314479377777778,0.9453879277777778,-1.7621925444444446,0.1250964282222222
726,1778428918970,0.5822359111111111,0.0961912511111111,0.4695124844444444,0.9085335,-1.7923276,0.1118614026666666
727,1778428918980,0.5683868,0.11421398,0.45319718,0.875955,-1.8542268,0.114304796
728,1778428918990,0.5752165111111112,0.1611814911111111,0.381390811111111,0.6959586444444444,-1.9310578222222223,0.1753895195555555
729,1778428919000,0.5955835333333334,0.1777983111111111,0.3268009066666666,0.51942378,-1.9867806999999995,0.24339718
730,1778428919010,0.6067122,0.1776628,0.31309754,0.40254834,-2.0148797,0.2890071
731,1778428919020,0.6462343349999999,0.164369345,0.3053531774999999,0.2496838075,-2.062831225,0.3516189475
732,1778428919030,0.6684536050000001,0.1450313274999999,0.27638806,0.17225893,-2.069245,0.3598654
733,1778428919040,0.6817064333333334,0.13950001,0.2647207199999999,0.016900108,-1.9609215333333336,0.3665847266666666
734,1778428919050,0.71275885375,0.132934585,0.26675336625,-0.08788564625,-1.95669645,0.3765873375
735,1778428919060,0.7221457975,0.1346420075,0.2615015525,-0.16149273625,-1.991743875,0.387964375
736,1778428919070,0.7179179000000001,0.1265724266666666,0.2515187433333333,-0.2730487066666666,-2.0414854666666664,0.43194536
737,1778428919080,0.7211701,0.11811664,0.25281963,-0.33581326,-2.05183585,0.472414005
738,1778428919090,0.7406834666666666,0.09168218,0.2490795866666666,-0.36039988,-2.0539739000000004,0.4934373333333333
739,1778428919100,0.7570944749999999,0.0773520799999999,0.24141653,-0.366966495,-2.0428259250000003,0.4988331525
740,1778428919110,0.77684407875,0.0726871725,0.2315378875,-0.3683409,-2.046033,0.50158197
741,1778428919120,0.7986577144444444,0.0704410977777777,0.21088628,-0.372548971111111,-2.1257823555555557,0.5026000244444444
742,1778428919130,0.8110838825,0.0685710725,0.1820533074999999,-0.3683408849999999,-2.2314251499999997,0.511966345
743,1778428919140,0.818218455,0.0649123289999999,0.1488730125,-0.3576510774999999,-2.3283207375,0.52403058125
744,1778428919150,0.809254555,0.061863368,0.0710254865,-0.31580803625,-2.4774437375,0.52807745625
745,1778428919160,0.8010426733333333,0.0672701866666666,0.019614965,-0.3065095844444444,-2.4812955999999997,0.5228259000000001
746,1778428919170,0.79925394,0.07857927875,-0.03720491575,-0.30710345,-2.46217255,0.5273902500000001
747,1778428919180,0.79925394,0.088114895,-0.08515741,-0.31451846,-2.4338530111111107,0.5310383444444445
748,1778428919190,0.8012053,0.0954324,-0.14790498,-0.33352262,-2.3795555,0.5418979
749,1778428919200,0.8041932875,0.09424330625,-0.1627305375,-0.337874905,-2.374668725,0.5471664575
750,1778428919210,0.8251092,0.08591965,-0.26650944,-0.3683409,-2.3404613,0.58404636
751,1778428919220,0.8296182,0.0721281913333333,-0.3658038677777778,-0.4268464955555556,-2.1502162444444446,0.5912407688888889
752,1778428919230,0.8431894,0.059546154,-0.42218927,-0.46485478,-1.9928892,0.5925982
753,1778428919240,0.868983645,0.0196352929,-0.466246725,-0.478904245,-1.64894395,0.5354839499999999
754,1778428919250,0.8895132755555556,-0.0092959355333333,-0.4863223933333334,-0.4681804877777777,-1.4348378,0.4942517666666666
755,1778428919260,0.90566254,-0.027318668,-0.49127865,-0.44775105,-1.228643,0.4514925
756,1778428919270,0.9231940925,-0.037772784125,-0.47987936875,-0.40476266375,-1.0086615825,0.395905385
757,1778428919280,0.9349326,-0.04466724,-0.4744179,-0.34573954,-0.80654746,0.3403183
758,1778428919290,0.9288347,-0.04536850125,-0.4672528725,-0.2611372075,-0.52662668,0.2648786425
759,1778428919300,0.9190475325,-0.040947510875,-0.4574657475,-0.18111621375,-0.3021403265,0.21112408
760,1778428919310,0.89877191,-0.0284391595,-0.443440505,-0.09300149775,-0.0759741245,0.1582857925
761,1778428919320,0.885653845,-0.02170858375,-0.449538405,-0.034054735875,0.1240783575,0.1216349549999999
762,1778428919330,0.8727033666666667,-0.019675945,-0.44433485,0.0173073389999999,0.35161896,0.0925179066666666
763,1778428919340,0.8724594375,-0.0262324753749999,-0.42961729125,0.06413896125,0.559536075,0.07207997375
764,1778428919350,0.873679,-0.031739656,-0.41755486,0.08857285,0.6820873,0.06177193
765,1778428919360,0.8528918999999999,-0.0387590372222222,-0.3683751577777778,0.10859507,0.9153631177777776,0.0405958894444444
766,1778428919370,0.8428410142857142,-0.0356423247142857,-0.3354856085714285,0.108556286,0.9839331285714286,0.0394323707142857
767,1778428919380,0.8371728666666667,-0.0306013796666666,-0.30578004,0.1053372135555555,1.0156777555555554,0.044668205
768,1778428919390,0.835872,-0.030276157,-0.29212072,0.10628742,0.9923977000000002,0.044668205
769,1778428919400,0.8322093675,-0.033203158125,-0.2869679575,0.11315945125,0.9801807625,0.0408504112499999
770,1778428919410,0.8282799975,-0.03094311625,-0.28666305,0.126445385,1.049378375,0.0254265175
771,1778428919420,0.8231578,-0.0219525,-0.2979747,0.1227803,1.1506835,0.01718008
772,1778428919430,0.81742573,-0.009451771,-0.2855273299999999,0.09552123875,1.3527976375,0.016263808875
773,1778428919440,0.8125299814285715,-0.0074568807142857,-0.2411464685714285,0.0465989204285714,1.5850831857142855,0.0213687462857142
774,1778428919450,0.808793791111111,-0.0127378706666666,-0.2095583066666666,0.0217190128888888,1.6435014444444445,0.0262749171111111
775,1778428919460,0.8081874099999999,-0.02659835125,-0.1833643575,0.007941014,1.6677657,0.0258846525
776,1778428919470,0.8073031775,-0.0372277812499999,-0.1735771975,0.008170082,1.7291558625,0.01191152096625
777,1778428919480,0.80992528375,-0.044606259375,-0.15247459,0.008551862,1.7932948,7.635591e-05
778,1778428919490,0.7814615666666667,-0.0422009713333333,-0.09975514,0.0305423633333333,2.1133788666666664,-0.1017315166666666
779,1778428919500,0.7650141349999999,-0.0192313047499999,-0.0622216175,0.0375671064999999,2.37650125,-0.1578276575
780,1778428919510,0.75678194,0.0102445,0.00804925,0.043981,2.6857426,-0.2100551
781,1778428919520,0.7550440525000001,0.0280847185,0.09335910625,0.07276718025,2.8826645875000003,-0.252203555
782,1778428919530,0.747635075,0.031423327125,0.14111723625,0.115602845,2.9178646,-0.2763320175
783,1778428919540,0.7335488875,0.0223793555,0.16089354375,0.13988402,2.9032042,-0.28457847
784,1778428919550,0.7253167,0.012927583,0.16790615,0.12461284,2.916032,-0.2912978
785,1778428919560,0.7062065177777778,-0.0164575998888888,0.1850141766666666,0.0889122133333333,3.0043334666666666,-0.3047364333333333
786,1778428919570,0.68211293,-0.03734974,0.21330512,0.01343864,3.2758212,-0.3340571
787,1778428919580,0.6731964666666667,-0.0441252055555555,0.3176099777777778,-0.0597272886666666,3.515833288888889,-0.3679930488888889
788,1778428919590,0.65963831875,-0.036309283,0.43091689375,-0.1448471575,3.7466316,-0.415147055
789,1778428919600,0.6430863,-0.004695396,0.557951765,-0.24578966875,3.80741105,-0.44500223125
790,1778428919610,0.6386653,0.018781584,0.64793414,-0.31336465,3.7688513,-0.45378315
791,1778428919620,0.66455096,0.0585704929999999,0.7423909,-0.3994941,3.3833303,-0.42018655
792,1778428919630,0.669978075,0.0694247824999999,0.765867865,-0.421102835,2.8328042499999997,-0.3778853825
793,1778428919640,0.6606483,0.06027791,0.75214756,-0.40926766,2.473168,-0.35116082
794,1778428919650,0.624464775,0.0501248755,0.6930358825,-0.3635304725,2.394979475,-0.3700207275
795,1778428919660,0.5362609666666667,0.0706138773333333,0.65225351,-0.3327760166666667,2.622621888888889,-0.4170644422222222
796,1778428919670,0.5168899,0.09957898,0.69357705,-0.33413345,2.8109665,-0.42690587
797,1778428919680,0.5168899,0.09957898,0.69357705,-0.33413345,2.8109665,-0.42690587
798,1778428919690,0.5438862428571428,0.1297549571428571,0.8711135528571428,-0.2770628585714286,2.893867014285714,-0.3794343242857143
799,1778428919700,0.5672485433333334,0.13014987,0.9219237166666668,-0.2140001433333333,2.6796341333333333,-0.3255052333333333
800,1778428919710,0.58936363,0.12153149,0.92761505,-0.14110571,2.3595502,-0.2644205
801,1778428919720,0.59151316625,0.093774530625,0.84287690625,-0.067880401375,2.0046480125,-0.20188502
802,1778428919730,0.5533097250000001,0.06790030375,0.749967525,-0.0065666084999999,1.81268925,-0.1697391825
803,1778428919740,0.4788084,0.05491174,0.6782103,0.067804046,1.7065545,-0.1428619
804,1778428919750,0.4427049225,0.06378420625,0.6844644875,0.0710109945,1.884005725,-0.142327415
805,1778428919760,0.4265323333333333,0.0832399508888888,0.7324241666666667,0.054976255,2.2019517,-0.15996562
806,1778428919770,0.4349034,0.097871564,0.77266705,0.054976255,2.2019517,-0.15996562
807,1778428919780,0.4424919222222222,0.0980070728888889,0.7944840388888889,0.0268094083333333,2.2786470333333333,-0.1531784311111111
808,1778428919790,0.4448354175,0.077176759,0.8127303425,-0.0112243185,2.2187499749999997,-0.12713258375
809,1778428919800,0.42779937,0.058326576,0.810718,-0.04031592,2.0755062,-0.09582666
810,1778428919810,0.369299981111111,0.0250726015555555,0.7787717266666667,-0.0741161316666666,2.0654613,-0.0803518644444444
811,1778428919820,0.30584100875,0.0225356145,0.81316486875,-0.1687465575,2.343973725,-0.1072800525
812,1778428919830,0.27553436,0.03003224,0.90371126,-0.20585553,2.5354743,-0.09765921
813,1778428919840,0.2768236285714286,0.0335864537142857,1.0132255,-0.19852535,2.652058828571428,-0.0829116028571428
814,1778428919850,0.2690570355555556,0.0493829633333333,1.0873162333333335,-0.1992719422222222,2.674204488888889,-0.1033604448888888
815,1778428919860,0.26089936,0.065887995,1.1277487,-0.20524468,2.679634,-0.124536484
816,1778428919870,0.2515627733333333,0.102231575,1.1900964777777778,-0.2186154433333333,2.542261444444444,-0.138450236
817,1778428919880,0.2289691449999999,0.12378771125,1.238829875,-0.2003578975,2.378333875,-0.1495812275
818,1778428919890,0.19473697,0.12689765,1.267574,-0.15087928,2.304574,-0.15141377
819,1778428919900,0.13626176375,0.11256754375,1.333900225,-0.06642963875,2.2903718125,-0.159889275
820,1778428919910,0.10299382,0.1012864,1.4023074,-0.005497625,2.3027415,-0.16851749
821,1778428919920,0.102353534375,0.0925358925,1.4753262375,0.088038356875,2.292051625,-0.16744851125
822,1778428919930,0.116134824375,0.09220050125,1.5187053124999998,0.15828579625,2.2305851875,-0.1787491875
823,1778428919940,0.2001234533333333,0.2036196033333333,1.5463707333333334,0.2401987188888888,1.9205546777777776,-0.1934264888888889
824,1778428919950,0.2821201,0.39706585,1.4757568,0.24311721,1.7786345,-0.19783816
825,1778428919960,0.2821201,0.39706585,1.4757568,0.24311721,1.7786345,-0.19783816
826,1778428919970,0.082272321875,-0.0819331537499999,2.388176575,-1.7685364975000002,1.6473405,0.2496838099999999
827,1778428919980,0.00359776775,-0.252766295,2.6222184,-2.343973725,0.7540146,0.37574741375
828,1778428919990,0.15936905,-0.09226148,2.2208307,-1.6004962,-1.3550882,0.3287122
829,1778428920000,0.2885801,-0.02590090175,1.7402653875,-0.945801545,-2.329294225,0.2471640749999999
830,1778428920010,0.35996002,0.031007906,1.3119973,-0.12644538,-3.2078643,0.1466797
831,1778428920020,0.3650823,0.084669575,0.9474029,0.19669282,-3.0276644,0.12957597
832,1778428920030,0.3050787755555555,0.017809306,0.7931662055555555,0.2084346566666666,-1.8370297777777775,0.1583536644444444
833,1778428920040,0.2437947,-0.04863088375,0.8016473625,0.15026842,-0.72194513,0.158591215
834,1778428920050,0.2086707,-0.08174257,0.8871249,0.14110571,-0.46019706,0.15095563
835,1778428920060,0.2086707,-0.08174257,0.8871249,0.14110571,-0.46019706,0.15095563
836,1778428920070,0.3091567625,-0.13597210875,1.011792975,0.2554868725,-0.2327328,0.132248438
837,1778428920080,0.3536182,-0.14055698,1.0806423,0.34146363,-0.13217208,0.085594974
838,1778428920090,0.3536182,-0.14055698,1.0806423,0.34146363,-0.13217208,0.085594974
839,1778428920100,0.3282927875,-0.104560214375,1.1660513,0.4231644425,-0.1272089425,0.0371089718125
840,1778428920110,0.31309754,-0.082962155,1.2172967,0.4721849299999999,-0.12423106,0.0080173705
841,1778428920120,0.31309754,-0.082962155,1.2172967,0.47218493,-0.12423106,0.0080173705
842,1778428920130,0.31309754,-0.082962155,1.2172967,0.4750355511111111,-0.13447972,0.0019767698888888
843,1778428920140,0.265777715,0.04735032375,1.435297175,0.436450365,-0.8157101425000001,-0.1992125625
844,1778428920150,0.2550860333333333,0.0594919544444444,1.4534757444444444,0.4330228466666666,-1.1155004,-0.2048289677777778
845,1778428920160,0.2508683,0.06369274,1.4540178,0.43675578,-1.2634612,-0.20211409
846,1778428920170,0.25758363,0.0665587629999999,1.39711655,0.4541649475,-1.514691225,-0.181650705
847,1778428920180,0.26602164,0.07076632,1.3588598,0.45324868,-1.6251591,-0.16790664
848,1778428920190,0.2794370425,0.066680721,1.310167925,0.434006985,-1.6996825,-0.154468005
849,1778428920200,0.3029826275,0.066985618,1.2648299,0.386208175,-1.74656505,-0.1494285149999999
850,1778428920210,0.3158111,0.07247374,1.2580613,0.3463504,-1.7479395,-0.15630054
851,1778428920220,0.33873928,0.0895784,1.2622079,0.2928249075,-1.786651875,-0.16424155875
852,1778428920230,0.370760955,0.10128639375,1.25184135,0.1904316375,-1.929361075,-0.1767639225
853,1778428920240,0.37602802125,0.1034206625,1.2429383625,0.11942064,-2.0725284625,-0.17607672375
854,1778428920250,0.3817261899999999,0.1029396155555555,1.2337169444444445,0.067261074,-2.179740588888889,-0.1645130455555555
855,1778428920260,0.40993246125,0.1021096175,1.2059850125,0.0004581357499999,-2.349776625,-0.1358371625
856,1778428920270,0.42252849375,0.10031073,1.19021805,-0.034207447,-2.45881295,-0.12033691375
857,1778428920280,0.43173254,0.09518848,1.1662875,-0.0684149,-2.6074016,-0.10804361
858,1778428920290,0.4223247622222222,0.0923698866666666,1.1178497777777778,-0.0895909344444444,-2.6778526333333335,-0.1053966053333333
859,1778428920300,0.41920891,0.091651685,1.07356115,-0.123009365,-2.7808821625,-0.0972010715
860,1778428920310,0.4342800888888888,0.0858891544444444,1.0359446,-0.1238662477777777,-2.819161822222222,-0.0692887451111111
861,1778428920320,0.457984035,0.0582655965,0.9698012975,-0.1017824217499999,-2.8702949749999997,-0.038788801625
862,1778428920330,0.46362461,0.043630595,0.93304227,-0.06062658975,-2.931150525,-0.00587940475
863,1778428920340,0.4747228075,0.040002334875,0.9033415925,-0.026113719875,-2.972917175,0.011911522
864,1778428920350,0.4815829725,0.047563750125,0.8613269137499999,0.0186308418749999,-3.0104844625,0.019088977375
865,1778428920360,0.47970278,0.0545052123333333,0.7957476333333333,0.0589806977777777,-3.021284422222222,0.0310259504444444
866,1778428920370,0.48149154,0.055155657,0.76239204,0.097430135,-3.01392035,0.061161083
867,1778428920380,0.5005741675000001,0.0535701981249999,0.73271804875,0.1265217324999999,-3.0449972,0.08941277375
868,1778428920390,0.5181095,0.045155074,0.6991871,0.21949778,-3.1844486,0.13670253
869,1778428920400,0.5124297,0.03442274,0.6303024357142857,0.2675511,-3.2206922,0.14362547
870,1778428920410,0.5074584666666666,0.0344227386666666,0.5665066666666667,0.31512932,-3.148408688888889,0.1543492255555555
871,1778428920420,0.512377475,0.04311226925,0.5233499100000001,0.384222935,-3.0257555750000003,0.183101465
872,1778428920430,0.5157618125000001,0.0575033565,0.4622487575,0.39170581,-2.939397,0.206695445
873,1778428920440,0.5267278666666667,0.065318848,0.39713698,0.3784538,-2.840066444444445,0.2644374722222222
874,1778428920450,0.537135,0.061741404,0.36898494,0.3658975,-2.813257,0.2902288
875,1778428920460,0.56125225,0.049454106875,0.3207999824999999,0.315349895,-2.7242261,0.33069744
876,1778428920470,0.5803387499999999,0.03776897425,0.284925175,0.2474694824999999,-2.579608,0.3613161575
877,1778428920480,0.6077908125,0.0161594793625,0.25674135625,0.132553855,-2.34412635,0.38002336
878,1778428920490,0.6263818375,-0.0025954258624999,0.24385569375,0.08551861,-2.2518885,0.38002336
879,1778428920500,0.6667462,-0.02930049,0.2306232,-0.036650836,-2.1291082,0.3690281
880,1778428920510,0.6820316777777777,-0.0490306405555555,0.1899060666666666,-0.1020114902222222,-2.103656177777778,0.3385536111111111
881,1778428920520,0.7016263,-0.057594825,0.15766165,-0.18264332,-2.0832946,0.3006132
882,1778428920530,0.7367774111111111,-0.0452363761111111,0.1398557299999999,-0.2347689644444444,-2.015965622222222,0.2772652622222222
883,1778428920540,0.740683465,-0.030138952,0.143377275,-0.245866015,-1.9638739,0.255105085
884,1778428920550,0.7351817866666667,-0.0086183891111111,0.1620792411111111,-0.2399272266666666,-1.9093388,0.2148231
885,1778428920560,0.716467095,0.028606853,0.170833135,-0.140113085,-1.8840820625,0.14469444875
886,1778428920570,0.7045533,0.05149691,0.15253939,-0.08551861,-1.8798825,0.12713258
887,1778428920580,0.7045533,0.05149691,0.15253939,-0.08551861,-1.8798825,0.12713258
888,1778428920590,0.7251795000000001,0.06919611,0.1164092325,-0.0100789749999999,-1.88660175,0.122245805
889,1778428920600,0.7599338250000001,0.08203603375,0.0480706405,0.11125056,-1.8884342625,0.1024696284999999
890,1778428920610,0.7880338,0.07027849,-0.0219525,0.211964,-1.8560594,0.067269556
891,1778428920620,0.7880338,0.07027849,-0.0219525,0.211964,-1.8560594,0.067269556
892,1778428920630,0.811693675,0.04789913725,-0.0799817975,0.33657685,-1.6795245,0.0061848285
893,1778428920640,0.8190112,0.042959824,-0.10543298,0.42148462,-1.5413967,-0.039017867
894,1778428920650,0.83814172,0.034585351,-0.1379958511111111,0.4684519899999999,-1.395879322222222,-0.0658951468888889
895,1778428920660,0.8545925175,0.0292395105,-0.1666865475,0.5066978200000001,-1.20023855,-0.092772426
896,1778428920670,0.86465406,0.029788323,-0.1761993,0.50578153,-1.0783745,-0.100102596
897,1778428920680,0.8822770466666667,0.0266241818888888,-0.1740853577777777,0.4932930744444444,-0.9986928333333334,-0.1005098264444444
898,1778428920690,0.9219135525,0.01558017775,-0.16933915,0.45935714,-0.8786274,-0.099491745
899,1778428920700,0.92907864,0.011464084,-0.1688818,0.45935714,-0.8786274,-0.099491745
900,1778428920710,0.92907864,0.011464084,-0.1688818,0.45935714,-0.8786274,-0.099491745
901,1778428920720,0.92907864,0.011464084,-0.1688818,0.45935714,-0.8786274,-0.099491745
902,1778428920730,0.92907864,0.011464084,-0.1688818,0.45935714,-0.8786274,-0.099491745
903,1778428920740,0.92907864,0.011464084,-0.1688818,0.45935714,-0.8786274,-0.099491745
904,1778428920750,0.92907864,0.011464084,-0.1688818,0.45935714,-0.8786274,-0.099491745
905,1778428920760,0.92907864,0.011464084,-0.1688818,0.4410317187499999,-0.8609892,-0.098117338125
906,1778428920770,0.917824135,-0.01732951825,-0.33016408,0.1179698719999999,-0.45744823575,-0.09284878375
907,1778428920780,0.9202976,-0.011464084,-0.42657977,-0.0904054,-0.039323293,-0.08605311
908,1778428920790,0.9202976,-0.011464084,-0.42657977,-0.0904054,-0.039323293,-0.08605311
909,1778428920800,0.91947438125,-0.0063990018749999,-0.42042087125,-0.10468395375,0.0099262661249999,-0.074599723575
910,1778428920810,0.91419965,0.04198416,-0.36313096,-0.20463383,0.35467318,0.0055739814
911,1778428920820,0.91419965,0.04198416,-0.36313096,-0.20463383,0.35467318,0.0055739814
912,1778428920830,0.892362328888889,0.0472961214444444,-0.3610441177777778,-0.2078238133333333,0.5438322488888888,0.0615683138
913,1778428920840,0.8738009625,0.044145105875,-0.3642590625,-0.231587465,0.81097611875,0.1291941975
914,1778428920850,0.8746547,0.025123417,-0.3567891,-0.26205346,0.93925405,0.16072918
915,1778428920860,0.8820941375,0.0071040730625,-0.3250456225,-0.31267743125,1.1214965375,0.19776179875
916,1778428920870,0.8781000250000001,-0.011159187875,-0.27809167625,-0.35856733,1.2881242,0.22792238
917,1778428920880,0.8612393,-0.015854584,-0.23281845,-0.35856733,1.2881242,0.22792238
918,1778428920890,0.8612393,-0.015854584,-0.23281845,-0.35856733,1.2881242,0.22792238
919,1778428920900,0.8348962,0.00048783334,-0.20671937,-0.29503924,1.3357702,0.16195089
920,1778428920910,0.8038884,0.031739656,-0.26309463,-0.21746163,1.5281872,0.08009735
921,1778428920920,0.80022963,0.0525945315,-0.2497935375,-0.1695864712499999,1.9515043375,0.016874655875
922,1778428920930,0.79901004,0.07857166,-0.20208496,-0.1032331833333333,2.5193886666666665,-0.0536782026666666
923,1778428920940,0.7938878,0.08738314,-0.10665256,-0.07513421,2.752325,-0.07200362
924,1778428920950,0.787942325,0.086365555,0.014886542375,0.0027488132499999,2.9298525125,-0.08551861625
925,1778428920960,0.7811498777777778,0.0707121199999999,0.1317082277777778,0.1094774066666666,2.9643569000000003,-0.09290817
926,1778428920970,0.774370625,0.0564057264999999,0.1687903312499999,0.17233529125,2.88487885,-0.0959030199999999
927,1778428920980,0.7477570499999999,0.02745587,0.1688818,0.2952683,2.76156415,-0.1127776774999999
928,1778428920990,0.7322607074999999,0.01414716775,0.1503974925,0.3629959825,2.791342875,-0.13011047625
929,1778428921000,0.7073989700000001,0.0102445003333333,0.1571534799999999,0.40377003,3.1196479,-0.1754404266666666
930,1778428921010,0.69357705,0.020001167,0.1937613,0.39766157,3.3753893,-0.20516832
931,1778428921020,0.674856465,0.0342398015,0.3381828325,0.36406495625,3.68641545,-0.2301366975
932,1778428921030,0.6613800275,0.040856039375,0.4512191875,0.3268796275,3.6861290625,-0.21707984125
933,1778428921040,0.6548078399999999,0.0349105726666666,0.5602935222222222,0.28526566,3.4328087666666667,-0.17421873
934,1778428921050,0.6504952799999999,0.026426846,0.5820461,0.2510582175,3.0566796,-0.1175117424999999
935,1778428921060,0.6476902777777778,0.018754481,0.5684105333333334,0.2382983,2.783342522222222,-0.082116536
936,1778428921070,0.6340309,0.014635001,0.5003036,0.22418094,2.4695027,-0.055510744
937,1778428921080,0.5189784749999999,-0.00121958335,0.362048575,0.0699420145,2.5211194,-0.08696938
938,1778428921090,0.475164925,-0.0092688332,0.3532523199999999,-0.038254308125,2.80890485,-0.10827267625
939,1778428921100,0.4575063688888888,-0.0105968238888888,0.4190420755555555,-0.1698155366666666,3.186230233333333,-0.12962688
940,1778428921110,0.4645469075,0.000365875,0.5199312775,-0.3109212575,3.44044445,-0.1295759825
941,1778428921120,0.49557768125,0.029372902375,0.6819224125,-0.4356868075,3.5044307249999997,-0.1022405565
942,1778428921130,0.51006025,0.046618573,0.7694656,-0.4856235699999999,3.424257,-0.068338536
943,1778428921140,0.513109225,0.06119259675,0.8439212025,-0.438741035,3.03652165,-0.011987878
944,1778428921150,0.4782215025,0.0518627827499999,0.83647412,-0.285265665,2.595948075,0.04573718925
945,1778428921160,0.43392777,0.04198416,0.7943756,-0.16981554,2.5592973,0.036116343
946,1778428921170,0.3817465422222222,0.0753804144444444,0.7911775866666667,-0.0652927844444444,2.7849034777777777,-0.0206245794444444
947,1778428921180,0.3645334575,0.1032987125,0.8351211125,-0.02229592375,2.951384975,-0.068949385
948,1778428921190,0.35826277,0.1391747866666666,0.96098085,-0.0342074466666666,2.994627833333334,-0.0901254213333333
949,1778428921200,0.3704065175,0.1227510625,0.99368608125,-0.0565033724999999,2.8542602,-0.054670828875
950,1778428921210,0.35087411375,0.08206652625,0.999418075,-0.080555481875,2.6889496875,-0.048562355375
951,1778428921220,0.322755095,0.06015594625,1.00381615,-0.12079504375,2.64359425,-0.0377961735
952,1778428921230,0.3037473933333333,0.0242493833333333,1.024592333333333,-0.1323502388888889,2.6101334222222223,8.483999999999961e-06
953,1778428921240,0.289437615,-0.0067686875,1.047866075,-0.1137702999999999,2.5651004,0.00542127
954,1778428921250,0.251805865,-0.004451479,1.060801225,-0.0931542049999999,2.591672125,-0.033672954
955,1778428921260,0.1980095166666666,0.020661775,1.1014667666666669,-0.1240019944444444,2.702303288888889,-0.0970483561111111
956,1778428921270,0.178272595,0.0410694695,1.171912875,-0.2118112875,2.7624041000000004,-0.15171919
957,1778428921280,0.1880635625,0.044362344875,1.239710275,-0.29565006,2.704679,-0.17462596
958,1778428921290,0.2101884122222222,0.0386370802222222,1.3259954222222223,-0.44103172,2.457489466666667,-0.1613909333333333
959,1778428921300,0.2174517125,0.0115250635,1.36636785,-0.52396379375,2.2137868125,-0.1387386875
960,1778428921310,0.21159773,-0.00512225,1.4057223,-0.58282465,2.0101457,-0.11415208
961,1778428921320,0.1598149625,-0.023008201875,1.42572345,-0.5595933249999999,1.7645849999999998,-0.03016058275
962,1778428921330,0.1422644,-0.011708,1.4366997,-0.5173876,1.7224365,0.018401774
963,1778428921340,0.13201989,0.0034148335,1.447188,-0.44897273,1.6644061,0.07032379
964,1778428921350,0.13201989,0.0034148335,1.447188,-0.44897273,1.6644061,0.07032379
965,1778428921360,0.13357485875,-0.01015303125,1.4529924875,-0.4253787575,1.642186525,0.088878274375
966,1778428921370,0.1661072525,-0.02414775,1.5189606,-0.4095730775,1.4871840625,0.117588099125
967,1778428921380,0.22042446,-0.021281729,1.5833851,-0.4173613825,1.308129475,0.121176828125
968,1778428921390,0.3212958666666666,0.0171419215555555,1.962523011111111,-0.1138212,1.5143412666666665,0.0664550949999999
969,1778428921400,0.33882312875,0.0590926239999999,2.2365023125,0.251287295,1.8595717625,-0.01275143675
970,1778428921410,0.21476863,0.09177365,2.2591257,0.51799846,1.4939797,-0.025579229
971,1778428921420,0.29964148,0.042793826,1.9590133222222224,0.6566607911111111,-0.3166564466666667,-0.0513026858888888
972,1778428921430,0.3704713275,-0.0118452019999999,1.454696175,0.554343865,-1.7421364125,-0.09162709
973,1778428921440,0.306892905,-0.1032987075,1.099484915,0.29801710375,-1.839032025,-0.050547610875
974,1778428921450,0.2537952799999999,-0.102437381,0.8794262825000001,0.1873773995,-1.6310290125,-0.031229566
975,1778428921460,0.2499841066666666,-0.0690589076666666,0.7807874333333333,0.0682791473333333,-1.2065845000000002,-0.0303981362222222
976,1778428921470,0.2595578237499999,-0.0292280781249999,0.7482563249999999,-0.09437590375,-0.585955235,-0.0177909271249999
977,1778428921480,0.25992369875,-0.009573729125,0.78459227125,-0.15652961625,-0.30427828775,-0.0046577107499999
978,1778428921490,0.26675338,0.010488417,0.85099477,-0.19608197,-0.008170082,0.017790927
979,1778428921500,0.2700056133333333,0.0319158186666666,0.9370939533333332,-0.2283211255555555,0.1384332635555555,0.0446003342222222
980,1778428921510,0.27330862375,0.0600644812499999,1.1491866625,-0.28648737,0.27159795,0.098422766
981,1778428921520,0.26553378,0.06661974,1.2304986,-0.2913741366666666,0.1881154966666666,0.1220421886666666
982,1778428921530,0.2542865277777777,0.0552877802222222,1.287151588888889,-0.2657185555555555,0.0073725866666666,0.1400961177777777
983,1778428921540,0.22617174125,0.01829375,1.4294241,-0.17668757,-0.27190338,0.13751699
984,1778428921550,0.21793956,0.01097625,1.4689271,-0.10567658,-0.39789063,0.1246892
985,1778428921560,0.2025118155555555,0.0126294632222222,1.5469094,0.0190720082222222,-0.6078863366666667,0.0978119177777777
986,1778428921570,0.2016547199999999,0.0228468611111111,1.6200877888888892,0.1664898144444444,-0.8549401222222222,0.0756856702222222
987,1778428921580,0.2162931,0.0248795005,1.662658025,0.3133646475,-1.1469421,0.0405449875
988,1778428921590,0.2284821666666666,0.0295477951111111,1.664883722222222,0.4096070222222222,-1.4502617666666664,0.00516675
989,1778428921600,0.2423312,0.03734974,1.6358576,0.46424392,-1.7149537,-0.017638214
990,1778428921610,0.2423312,0.03734974,1.6358576,0.46424392,-1.7149537,-0.017638214
991,1778428921620,0.27037485,0.0329829522222222,1.5199870222222225,0.4574567222222222,-2.134945122222222,-0.0202173473333333
992,1778428921630,0.28724235,0.02853825,1.4069419,0.42881477,-2.4467487,-0.014583978
993,1778428921640,0.28724235,0.02853825,1.4069419,0.42881477,-2.4467487,-0.014583978
994,1778428921650,0.29261615625,0.03652271,1.251113425,0.25098186875,-2.6436705875,-0.0153475369375
995,1778428921660,0.3172746,0.04393549,1.198515,0.18019994,-2.64955,-0.039017867
996,1778428921670,0.3172746,0.04393549,1.198515,0.18019994,-2.64955,-0.039017867
997,1778428921680,0.36197233,0.0773596975,1.201205725,0.117588095,-2.626643175,-0.1596601975
998,1778428921690,0.371675645,0.1028108825,1.2344623,0.135760795,-2.7300291,-0.1946312
999,1778428921700,0.37389377,0.12201932,1.2309865,0.15454435,-2.8340259,-0.20883341
1000,1778428921710,0.37389377,0.12201932,1.2309865,0.15454435,-2.8340259,-0.20883341
