id,timestamp,acc_x,acc_y,acc_z,gyro_x,gyro_y,gyro_z
0,1778428744490,0.9613061000000002,0.008781,0.40926167,0.38231403,-0.1180462299999999,-0.24067383
1,1778428744500,0.9768557875,0.013049541875,0.38073485125,0.38544461625,-0.19768544125,-0.20135053625
2,1778428744510,0.96374524,0.042715907,0.32386038,0.3548259000000001,-0.4240806999999999,-0.121482246
3,1778428744520,0.96374524,0.042715907,0.32386038,0.3548259,-0.4240807,-0.1214822459999999
4,1778428744530,0.94772296875,0.03933156275,0.25027756625,0.2612135575,-0.4990622,-0.091168955375
5,1778428744540,0.94496363,0.050765157,0.16473523,0.12392564,-0.5279247,-0.062230065
6,1778428744550,0.94496363,0.050765157,0.16473523,0.12392564,-0.5279247,-0.062230065
7,1778428744560,0.9853251288888888,0.0652917501111111,0.1311323177777777,-0.0712146077777777,-0.5449605777777777,-0.0047425504444444
8,1778428744570,1.0137787,0.062473156,0.1349469,-0.2286095899999999,-0.5676298,0.044668205
9,1778428744580,1.01093935625,0.061527979,0.13345291125,-0.24334627875,-0.578243275,0.046958881875
10,1778428744590,0.98748648,0.0545052133333333,0.1153522633333333,-0.3589236666666667,-0.6533520533333333,0.0666587066666666
11,1778428744600,0.983258545,0.0516188675,0.092253855,-0.3968216625,-0.6648308749999999,0.07559235
12,1778428744610,0.996315745,0.0419231775,0.065217219,-0.4240807175,-0.69728214,0.07765395375
13,1778428744620,1.0146730111111113,0.0355068142222222,0.0533398322222222,-0.4446458944444444,-0.7804082755555556,0.0755499283333333
14,1778428744630,1.02734038,0.0530091902,0.0545214744,-0.4497363,-0.868899682,0.099400122
15,1778428744640,1.0430181625,0.06424155125,0.055033700625,-0.4442386762499999,-0.9863656,0.1592784225
16,1778428744650,1.063091725,0.041667825,0.040936078625,-0.4304946149999999,-1.1034955750000002,0.2106659424999999
17,1778428744660,1.0799919,0.0223319259333333,0.0230636771111111,-0.4130854677777777,-1.2122773111111111,0.2507952133333333
18,1778428744670,1.1171586666666666,-0.0054474727333333,-0.0190356633333333,-0.3949636633333333,-1.2525931666666663,0.2657949133333333
19,1778428744680,1.1506768875,-0.021800053625,-0.061040146875,-0.3817795275,-1.270256825,0.262893385
20,1778428744690,1.1691433666666666,-0.0220338063333333,-0.1150168733333333,-0.3689008333333333,-1.2385437333333331,0.2374923166666666
21,1778428744700,1.176691211111111,-0.0092959347777777,-0.1834151744444444,-0.3503039355555555,-1.1166457555555556,0.2131941722222222
22,1778428744710,1.159214,0.018781584,-0.21037814,-0.3208475,-0.9665131,0.19371493
23,1778428744720,1.1235919666666667,0.02806058,-0.19557036,-0.2932236555555556,-0.9675311833333332,0.22520751
24,1778428744730,1.072307275,0.033508052375,-0.15194865125,-0.29244312875,-1.248953625,0.234259925
25,1778428744740,1.002734642222222,0.0229722072222222,-0.14520495,-0.2784954511111111,-1.731497511111111,0.2531028555555555
26,1778428744750,0.944704535,-0.0122110779999999,-0.21989088,-0.203526665,-1.9924311,0.30641625
27,1778428744760,0.90767497,-0.0406731039999999,-0.28843909375,-0.14790139,-2.0477128,0.3366532
28,1778428744770,0.8968273999999999,-0.0664029266666666,-0.4200075722222222,-0.0092390653333333,-1.6188979666666663,0.3421508333333333
29,1778428744780,0.925793365,-0.046062140875,-0.4535020575,0.034360158625,-1.17420114375,0.3583382825
30,1778428744790,1.0059631733333334,0.0057015523333333,-0.4035804333333333,0.0037923443333333,-0.5059342366666667,0.4600443266666666
31,1778428744800,1.068446475,0.0259390137499999,-0.29884364,-0.06314633475,-0.268467375,0.5463265024999999
32,1778428744810,1.084870233333333,-0.002032639,-0.2220861233333333,-0.0980834022222222,-0.3816607655555555,0.5655851944444444
33,1778428744820,1.06730695,-0.025653173875,-0.22516558125,-0.095979375,-0.5783196500000001,0.5609868775
34,1778428744830,1.0448169875,-0.04256346,-0.2628926375,-0.055663459875,-0.6536829125,0.5552601625
35,1778428744840,1.01620761,-0.0532043216666666,-0.2929337566666666,-0.0004157145555555,-0.6244386111111111,0.52350458
36,1778428744850,0.97764855125,-0.064942808875,-0.31401603625,0.094910394,-0.512653595,0.4223245325
37,1778428744860,0.9489713222222222,-0.0657524831111111,-0.3223392744444444,0.1175456757777777,-0.3562087911111111,0.3270153722222222
38,1778428744870,0.9254808125,-0.039910865,-0.25841827625,0.0994917485,-0.131637583825,0.2404447475
39,1778428744880,0.9012145,-0.0361843603333333,-0.21294941,0.086663954,-0.0038177953,0.15889664
40,1778428744890,0.8617271444444444,-0.0613348772222222,-0.1371319899999999,0.1288124166666666,0.16281624,0.02532471
41,1778428744900,0.842514865,-0.07524828925,-0.084147441,0.2213557775,0.251439995,-0.08299887
42,1778428744910,0.82975368,-0.0677580193333333,-0.0375021876666666,0.3336498577777778,0.2273624355555555,-0.1370249233333333
43,1778428744920,0.8384330425,-0.0489357834999999,-0.0101758984999999,0.3821613,0.121005019,-0.12545276
44,1778428744930,0.85123867,-0.041252404,0.030276157,0.3780381,0.011453386,-0.10071344
45,1778428744940,0.8784506000000001,-0.0878557375,0.111286975,0.31237201,-0.34864107,-0.0567324365
46,1778428744950,0.89505220125,-0.128677475,0.090146259,0.2932066875,-0.42736400625,-0.056808794375
47,1778428744960,0.8775207133333334,-0.1557916066666666,0.0588144076666666,0.2984922177777778,-0.3366616744444444,-0.0807590977777777
48,1778428744970,0.84177926,-0.15839339,0.05747286625,0.32741412,-0.131103095875,-0.12064232875
49,1778428744980,0.8259221266666666,-0.14008948,0.10501629,0.37783448,0.020437932,-0.1707827133333333
50,1778428744990,0.8208405249999999,-0.1242755399999999,0.1585153475,0.4314872375,0.1485122425,-0.2515163649999999
51,1778428745000,0.82181628,-0.12503779,0.181386345,0.4446204425,0.2677801675,-0.31450997875
52,1778428745010,0.81107032,-0.1156774755555555,0.2209207533333333,0.42731311,0.35238251,-0.3247671199999999
53,1778428745020,0.7935219,-0.07585046375,0.2387334325,0.4137726575,0.3374167624999999,-0.28129517
54,1778428745030,0.7960593333333333,-0.0403817582222222,0.24197888,0.3529254933333333,0.3103019244444444,-0.1963449668888889
55,1778428745040,0.8489862625,-0.016525354875,0.2577017725,0.18134528,0.30595812,-0.051845662
56,1778428745050,0.935115505,-0.021068303,0.2787357825,-0.003359659975,0.29381754,0.0589467592499999
57,1778428745060,0.94322574,-0.020001167,0.28236404,-0.03489465,0.28580016,0.07765396
58,1778428745070,0.947197005,-0.0394687662499999,0.31128341,-0.0568851509999999,0.311303035,0.090023615
59,1778428745080,0.9594766825,-0.1038208435,0.40148684625,-0.108425387625,0.401708435,0.1189624987499999
60,1778428745090,0.96203786,-0.1454658,0.42560413,-0.007406523,0.49898586,0.06177193
61,1778428745100,0.9597168325,-0.14323625,0.4251772725,0.0048867786249999,0.50784314,0.0572669315
62,1778428745110,0.94499794125,-0.123482815625,0.41859149875,0.078341158375,0.4940991037499999,0.0070247431875
63,1778428745120,0.95569605,-0.094456725,0.3934071,-0.014125843,0.39147675,-0.008475506
64,1778428745130,0.95978165,-0.081399561375,0.39477912875,-0.038721990125,0.38399387125,-0.0113006745
65,1778428745140,0.98956994125,0.028397235,0.42213971125,-0.23036577375,0.3403182875,-0.04825693375
66,1778428745150,0.99155176,0.05905832,0.45173368,-0.26281703,0.3548259,-0.0768904
67,1778428745160,0.99155176,0.05905832,0.45173368,-0.26281703,0.3548259,-0.0768904
68,1778428745170,0.92112079375,0.05488124925,0.4778747024999999,-0.2399102625,0.5777087787499999,-0.2040993325
69,1778428745180,0.9176145,0.047106408,0.48932734,-0.22922044,0.68834853,-0.2260134799999999
70,1778428745190,0.9176145,0.047106408,0.48932734,-0.22922044,0.68834853,-0.22601348
71,1778428745200,0.9176145,0.047106408,0.48932734,-0.22922044,0.68834853,-0.22601348
72,1778428745210,0.9516942375,0.027246254875,0.5607377525,-0.23509984375,0.7337039075,-0.2535016137499999
73,1778428745220,1.045640288888889,0.0027914911111111,0.6917070222222222,-0.2391976066666666,0.8068528666666667,-0.3280928577777777
74,1778428745230,1.0799106,0.008537084,0.7118708,-0.23838314,0.82151324,-0.35306972
75,1778428745240,1.0873538625,0.01186425975,0.71596022125,-0.24243000125,0.8186117150000001,-0.3613161574999999
76,1778428745250,1.0751948333333334,0.0791407966666666,0.9059776666666666,-0.42591324,0.5112028,-0.38055784
77,1778428745260,1.0652755,0.07344941,0.9452076,-0.42591324,0.5112028,-0.38055784
78,1778428745270,1.0817534333333334,0.0466660026666666,0.9710085377777778,-0.3948279211111111,0.2571582177777778,-0.2243166922222222
79,1778428745280,1.0925941,0.019452355375,0.97307508,-0.342532605,0.1144384195,-0.1481113725
80,1778428745290,1.0925941,-0.0026830835,0.984966,-0.29030517,0.010842538,-0.10315683
81,1778428745300,1.0851683222222224,-0.0015177036455555,0.9474265655555556,-0.25935556,-0.1318921,-0.0593794456666666
82,1778428745310,1.0528256666666664,-0.0182226073333333,0.8978572666666668,-0.2430662999999999,-0.1950129833333333,-0.0058284996666666
83,1778428745320,1.0352434,-0.02930049,0.8973694,-0.23166382,-0.23899399,0.038559735
84,1778428745330,0.9947227,-0.06320491,0.90297955,-0.20409934,-0.31107396,0.116748184
85,1778428745340,0.94054264,-0.0866514,0.886881,-0.1574034544444444,-0.3427701688888889,0.2313838533333333
86,1778428745350,0.94054264,-0.0866514,0.886881,-0.11796988,-0.34467056,0.30549997
87,1778428745360,0.94625568,-0.1104332755,0.791139925,-0.07085828375,-0.3501681949999999,0.36505758375
88,1778428745370,0.9603304,-0.10909174,0.7584894,-0.06543701,-0.34833565,0.3757474
89,1778428745380,0.9603304,-0.10909174,0.7584894,-0.06543701,-0.34833565,0.3757474
90,1778428745390,0.9782658875,-0.107018445625,0.75629414625,-0.04314108575,-0.3207711675,0.3381803
91,1778428745400,1.0312187000000002,-0.1109211049999999,0.73385379,0.073530737,-0.216698065,0.14606885
92,1778428745410,1.0193888,-0.11616532,0.72482884,0.092772424,-0.21089502,0.1130831
93,1778428745420,1.0164579875,-0.11772028875,0.72342251,0.11041063975,-0.1922641783749999,0.10689827175
94,1778428745430,0.9967655,-0.13144059875,0.7066265625,0.2439571275,-0.035715477,0.057648713
95,1778428745440,0.9981375,-0.13616648,0.6950405,0.27419406,0.042682953,0.03978143
96,1778428745450,0.9990783285714284,-0.1279430122857143,0.6895698071428572,0.3092741371428572,0.1944348628571428,0.0100244401428571
97,1778428745460,0.9974057,-0.104945146,0.70943165,0.3328354,0.29862794,-0.010918895
98,1778428745470,0.9991132,-0.049301658,0.72458494,0.38414657,0.28702185,-0.05612159
99,1778428745480,0.999246565,0.002465844975,0.6600918675,0.4441623175,0.21692712625,-0.070247434625
100,1778428745490,1.004022,0.020732917,0.62744516,0.49898586,0.18073443,-0.074447006
101,1778428745500,1.0059733,0.00219525,0.6228107,0.49898586,0.18073443,-0.074447006
102,1778428745510,1.0100386444444445,-0.0656169688888888,0.6985062288888888,0.5954318677777777,0.0928402988888888,-0.0944013537777777
103,1778428745520,1.02512075,-0.14641097875,0.7543428025000001,0.6943042374999999,-0.026266432,-0.1615118325
104,1778428745530,1.0259744,-0.16327173,0.7697095,0.72683185,-0.06062659,-0.20280129
105,1778428745540,1.0235354,-0.15692988,0.77117306,0.73637634375,-0.0602448087499999,-0.2119640025
106,1778428745550,0.9548016844444444,-0.0664910068888889,0.7432547399999999,0.8774396577777778,-0.0855355844444444,-0.2305609077777778
107,1778428745560,0.9551065066666666,-0.042146768,0.6630671333333333,1.0304229666666669,-0.2204649533333333,-0.1828214953333333
108,1778428745570,1.008267625,-0.04844794825,0.542638375,1.08799535,-0.4668400099999999,-0.114457507
109,1778428745580,1.0591505333333333,-0.0453176841111111,0.4348424377777777,1.0313731444444445,-0.6595283999999999,-0.1157894911111111
110,1778428745590,1.0984481888888888,-0.0508735637777777,0.3073756577777777,0.8810369066666666,-0.71430106,-0.1751774222222222
111,1778428745600,1.0663460555555555,-0.0183377908888888,0.1933717288888888,0.7284608066666667,-0.4625640833333333,-0.2985006933333333
112,1778428745610,1.0377700875,0.012626498375,0.1691562124999999,0.6828509,-0.29030517,-0.351848
113,1778428745620,0.9991132,0.0566191559999999,0.16766222,0.62298787,-0.090558104,-0.4202629
114,1778428745630,0.9664690088888888,0.0570527866666666,0.1422813328888889,0.5613601666666667,-0.0547217325,-0.4592892699999999
115,1778428745640,0.9114479875,0.05905832475,0.093656374,0.419881145,-0.02183778975,-0.51876205
116,1778428745650,0.8554055555555555,0.0575948242222222,0.0382915297777777,0.2900760911111111,-0.0346995181244444,-0.508292771111111
117,1778428745660,0.80852276,0.037105825,0.0219525,0.21738526,0.00045813544,-0.47646087
118,1778428745670,0.811998595,-8.765724999999975e-05,0.053932265,0.19371493375,0.17331836443,-0.4201865537499999
119,1778428745680,0.8134010999999999,-0.0017074166666666,0.0934607416666666,0.2225435344444444,0.4697330422222222,-0.3331832355555555
120,1778428745690,0.8026688,0.01683025,0.110067405,0.27480492,0.60893834,-0.26571855
121,1778428745700,0.8174600075,0.0503383045,0.13632273625,0.35070267125,0.64337489875,-0.12714213375
122,1778428745710,0.86465406,0.064424485,0.15961297,0.4228335555555555,0.4636924555555555,0.0591249266666666
123,1778428745720,0.895479055,0.062960995,0.151068265,0.447521975,0.1713999175,0.1488176699999999
124,1778428745730,0.8979317955555555,0.0541257855555555,0.1135364355555555,0.4577197377777778,-0.13067041,0.2249360177777777
125,1778428745740,0.87002033,0.04369157,0.09494456,0.45500484,-0.31473905,0.28412032
126,1778428745750,0.8448358174999999,0.022318376,0.0029803572499999,0.42033928,-0.3898732575,0.346732165
127,1778428745760,0.83514017,0.00951275,-0.06418057,0.38781166,-0.38620818,0.37880164
128,1778428745770,0.8172770712499999,0.00140252085,-0.1415593225,0.34566319,-0.3438306475,0.4039227475
129,1778428745780,0.8145461844444444,0.0037671576666666,-0.20834549,0.2855286733333333,-0.27272632,0.4273979555555556
130,1778428745790,0.83950022875,-0.010762822875,-0.22306180125,0.212345785,-0.2214321325,0.427822165
131,1778428745800,0.85465354,-0.019513333,-0.22647662,0.16057648,-0.19623469,0.39162946
132,1778428745810,0.84636037,-0.0026830835,-0.22659859,0.10865446,-0.19287503,0.3598654
133,1778428745820,0.8380672,0.0141471659999999,-0.22672056,0.05673244,-0.18951537,0.32810134
134,1778428745830,0.8685300525,0.052045719375,-0.25522829875,-0.222663365,-0.17760384625,0.26976542
135,1778428745840,0.902356178888889,0.034876697,-0.2471824488888888,-0.4120673877777778,-0.1572761988888888,0.2841203422222222
136,1778428745850,0.937253545,0.0215561343749999,-0.247636405,-0.5426614512500001,-0.141716560625,0.29626092625
137,1778428745860,0.97569716,-0.017074168,-0.2335502,-0.62871456,-0.059404895,0.2914505
138,1778428745870,0.969812675,-0.0834004425,-0.188505675,-0.6981984375,0.1992125625,0.22189028
139,1778428745880,0.9486224,-0.10323773,-0.16790615,-0.7233959,0.32061845,0.17416783
140,1778428745890,0.91663885,-0.11323831,-0.1483928,-0.7496623,0.45866993,0.12957597
141,1778428745900,0.9071184875,-0.1190923124999999,-0.14533622,-0.74523365,0.5124244975,0.12163495625
142,1778428745910,0.8557918444444446,-0.1590641511111111,-0.1674928333333333,-0.7219705222222222,0.7924640444444445,0.1120650155555555
143,1778428745920,0.8436163125,-0.1608935275,-0.1795531625,-0.70491775,0.816321005,0.13583716
144,1778428745930,0.869296155,-0.152905275,-0.16290584,-0.66231114,0.5991648,0.20898612
145,1778428745940,0.913224,-0.15985689,-0.15229547,-0.6415423,0.37437302,0.2358634
146,1778428745950,1.0552787625,-0.1971151625,-0.1755590275,-0.611305415,0.014049486625,0.1837123175
147,1778428745960,1.0985295333333334,-0.1892894966666666,-0.1834354966666666,-0.5193729133333334,-0.0934765988888888,0.1034452866666666
148,1778428745970,1.0875595375,-0.19102106125,-0.17458335875,-0.3990359775,-0.10002623875,0.0556634553499999
149,1778428745980,1.0540249,-0.21110988,-0.15473464,-0.23044212,-0.097277425,-0.0011453386
150,1778428745990,1.00096162375,-0.22327523375,-0.087097309,-0.0355054989999999,-0.040000951,-0.07131641875
151,1778428746000,0.9816121425,-0.20223360875,-0.02429638775,0.1868429,0.08299887,-0.13919681
152,1778428746010,0.99569833,-0.16058864,0.019269416,0.39941776,0.13431004,-0.17470232
153,1778428746020,0.9727599633333333,-0.0669449626666666,0.0112201673333333,0.56163162,0.1355996133333333,-0.2099278466666666
154,1778428746030,0.93907917,-0.036861908,-0.021464668,0.64192414,0.14225106,-0.2455606
155,1778428746040,0.81364506,-0.048082076,-0.13372731,0.69934374,0.108654454,-0.21074231
156,1778428746050,0.7904729362499999,-0.10119493025,-0.31947368125,0.6276455875,-0.047722443125,-0.1055238616249999
157,1778428746060,0.8528072222222222,-0.1529560788888889,-0.4368615277777778,0.5302747911111111,-0.0397220422222222,-0.0502167332222222
158,1778428746070,0.9494265875,-0.17595538875,-0.51884125,0.3962871612499999,0.08004962125,-0.017180079875
159,1778428746080,1.021934575,-0.1322866825,-0.4605223,0.2879381325,0.2462477974999999,-0.04894413725
160,1778428746090,1.1000069,-0.086521821625,-0.33485186,0.1515664757499999,0.35200074,-0.1105728975
161,1778428746100,1.1479938111111112,-0.000345549,-0.1244517044444444,0.037185326,0.34505233,-0.1795891
162,1778428746110,1.1344564,0.0734570275,-0.049233055,-0.110353378,0.2189123775,-0.1858502775
163,1778428746120,1.14213985,0.12140952625,0.0093412463749999,-0.37567105,0.07941014325,-0.1684411274999999
164,1778428746130,1.1559075333333333,0.1333004666666666,0.0488409254444444,-0.5401416555555555,0.0379828211111111,-0.15439164
165,1778428746140,1.1611382555555556,0.1467938011111111,0.09096398,-0.6773787222222222,-0.0019173817777777,-0.1448980577777777
166,1778428746150,1.1601896,0.1454658,0.10957957,-0.7832589,-0.0697893,-0.1416402
167,1778428746160,1.175891866666667,0.1214501766666666,0.1200679866666666,-0.9036637222222222,-0.1103767042222222,-0.1291517777777777
168,1778428746170,1.1824166,0.10811607,0.13275166,-0.9744541,-0.1241547,-0.12392564
169,1778428746180,1.1824166,0.10811607,0.13275166,-0.9744541,-0.1241547,-0.12392564
170,1778428746190,1.1588379,0.0555621843333333,0.1373623511111111,-0.9111296,-0.2011214633333333,-0.1420474433333333
171,1778428746200,1.1379932,0.0219525,0.10982348,-0.8565606,-0.24510247,-0.15019207
172,1778428746210,1.1379932,0.0219525,0.10982348,-0.8565606,-0.24510247,-0.15019207
173,1778428746220,1.080085875,-0.0456429055,0.0747299685,-0.636960965,-0.262511605,-0.1855448575
174,1778428746230,1.0409347333333332,-0.0613348833333333,0.0553995719999999,-0.53708744,-0.25243264,-0.19791451
175,1778428746240,1.018657,-0.06637583,0.047106408,-0.53708744,-0.25243264,-0.19791451
176,1778428746250,1.018657,-0.06637583,0.047106408,-0.53708744,-0.25243264,-0.19791451
177,1778428746260,0.9978698955555556,-0.057703234,-0.025777248,-0.1468918013333333,-0.2013929488888889,-0.2368729899999999
178,1778428746270,0.99325913,-0.05808266,-0.06930282,-0.029397024,-0.18279605,-0.2547233
179,1778428746280,0.99325913,-0.05808266,-0.06930282,-0.029397024,-0.18279605,-0.2547233
180,1778428746290,0.96606246625,-0.042616815625,-0.12320459875,0.12949962325,-0.13263021025,-0.28305134625
181,1778428746300,0.9514680666666666,-0.0240664443333333,-0.1400793066666666,0.18745375,-0.100331664,-0.27976805
182,1778428746310,0.9464271,-0.022440333,-0.1542468,0.18745375,-0.100331664,-0.27976805
183,1778428746320,0.91920379125,-0.022688060875,-0.1707721625,0.24517883,-0.10567657525,-0.26266432875
184,1778428746330,0.87232606875,-0.031922594375,-0.1693696375,0.359712675,-0.0857476814999999,-0.2124221375
185,1778428746340,0.8407503,-0.037105825,-0.1644913,0.4452313,-0.062459134,-0.1795891
186,1778428746350,0.8407503,-0.037105825,-0.1644913,0.4452312999999999,-0.062459134,-0.1795891
187,1778428746360,0.8320912714285714,-0.028864925,-0.1983783,0.5052688428571429,-0.067694966,-0.1285833491428571
188,1778428746370,0.85758054,0.01243975,-0.2596798,0.5368584,-0.09422319,-0.04023956
189,1778428746380,0.85758054,0.01243975,-0.2596798,0.5368584,-0.09422319,-0.04023956
190,1778428746390,0.99266083125,0.03826442725,-0.31658478625,0.35177165,-0.2565558575,-0.02115058675
191,1778428746400,1.0410440250000002,0.02819524225,-0.33569031,0.23380178375,-0.223722801875,-0.06994201
192,1778428746410,1.0708857,0.026343001,-0.3170307,0.13919681,-0.112548605,-0.13247749
193,1778428746420,1.1160026625,0.01262268775,-0.27501223125,0.05871769075,0.13276383375,-0.2780691125
194,1778428746430,1.1508937222222224,0.0182530971111111,-0.2359351822222222,-0.0120896846666666,0.4977641666666666,-0.4294256133333333
195,1778428746440,1.162141,0.031007906,-0.22672056,-0.05444176,0.6749099,-0.48440188
196,1778428746450,1.1810884777777777,0.0511174826666666,-0.1777102355555555,-0.1944700088888889,0.8714669177777777,-0.5429074733333333
197,1778428746460,1.1833922,0.0779733,-0.07113982475,-0.35536039,0.8851940125000001,-0.5123481375000001
198,1778428746470,1.1907097,0.09933506,0.010000584,-0.41797224,0.7958576,-0.4550812
199,1778428746480,1.1907097,0.09933506,0.010000584,-0.41797224,0.7958576,-0.4550812
200,1778428746490,1.183453225,0.128544085,0.14099146,-0.4177431575,0.28686915,-0.18805505375
201,1778428746500,1.1938807,0.11226265,0.18107764,-0.38193226,0.14041851,-0.10193513
202,1778428746510,1.2021195444444444,0.0760274677777777,0.1791263066666666,-0.2993999844444445,0.1029532122222222,-0.0514384277777777
203,1778428746520,1.1864640625,0.02430400975,0.15390379875,-0.223245573,0.1066691999999999,-0.034894648675
204,1778428746530,1.1687268,0.018781584,0.1381178,-0.025731942,0.13186665,-0.0041995747
205,1778428746540,1.1623239875,0.0346018675,0.11634824625,0.037872529,-0.006098928625,0.0278699056625
206,1778428746550,1.1648240555555556,0.0370516212222222,0.1126691711111111,0.0464837787777777,-0.2681110282222222,0.1008661535555555
207,1778428746560,1.1657997,0.037105825,0.11250656,0.046348035,-0.33734038,0.120413266
208,1778428746570,1.17257985,0.038355897375,0.119763085,0.03558185225,-0.802118825,0.18050536125
209,1778428746580,1.18351425,0.032246546125,0.10417147875,0.021685077375,-1.7177789375,0.28572379625
210,1778428746590,1.184124,0.021708583,0.06466841,0.0217784018888888,-1.8560424222222225,0.2557498633333333
211,1778428746600,1.1359808625,-0.036172079375,-0.0003353856875,0.038101598,-1.7516044875,0.1613400325
212,1778428746610,1.1204313,-0.07247374,-0.0139032509999999,0.042682953,-1.6653223,0.09720107
213,1778428746620,1.11997015,-0.084501883,-0.024974780375,0.0804027695,-1.5484214125,-0.012990046875
214,1778428746630,1.0463924333333334,-0.0347378013333333,-0.09378596,0.1991277233333333,-1.1736581777777777,-0.2885235133333333
215,1778428746640,0.957910325,0.05520901625,-0.16185014125,0.23540526,-0.78081547,-0.39735614
216,1778428746650,0.9011603111111112,0.1083633733333333,-0.1971761277777778,0.2283805166666666,-0.4798714033333333,-0.3962362533333333
217,1778428746660,0.8287564,0.15022218,-0.1741450675,0.2166217025,-0.162008146,-0.3223746575
218,1778428746670,0.8048030825,0.15946053125,-0.1196678041249999,0.2228065375,0.0934596265,-0.1852298849999999
219,1778428746680,0.82910323,0.1662800266666667,0.028629718,0.2412083,0.2412083033333333,0.0057775966666666
220,1778428746690,0.86489797,0.1615643,0.1454658,0.2619771,0.27052897,0.11613733
221,1778428746700,0.96685894625,0.1025593405,0.14075897125,0.2234173824999999,0.31611345375,0.19921255875
222,1778428746710,0.99968481,0.0815062825,0.1047622125,0.1334701319375,0.4433223974999999,0.269078215
223,1778428746720,0.946440731111111,0.1018081077777777,0.1487756177777777,-0.0353018796666666,0.5775815333333334,0.30000235
224,1778428746730,0.85317855875,0.17526556125,0.18748044125,-0.07986827725,0.5723638600000001,0.3413872625
225,1778428746740,0.8051650725,0.20687184,0.1976677725,-0.0697129445,0.560986835,0.38216132
226,1778428746750,0.753976875,0.2123218275,0.21617115,-0.08712209,0.518838395,0.43667944
227,1778428746760,0.7673550777777778,0.1808303404444444,0.2670819844444445,-0.1287021244444444,0.4609097077777777,0.4946590233333333
228,1778428746770,0.8079129925,0.1012177904999999,0.357459875,-0.24769856,0.287938125,0.5623612725
229,1778428746780,0.82649128,0.0789883486666666,0.3419000333333333,-0.3485392466666666,0.17482958,0.5962632933333334
230,1778428746790,0.8234017,0.090554066,0.2891937,-0.38071054,0.18501036,0.5999284
231,1778428746800,0.7980614777777778,0.1086310035555555,0.2497164688888888,-0.4086059044444444,0.3605271433333333,0.5832997444444444
232,1778428746810,0.7807163,0.1188484,0.25919196,-0.43996274,0.47943875,0.5736619
233,1778428746820,0.7860127628571428,0.0903014371428571,0.3623382199999999,-0.5027927285714285,0.4917429342857143,0.59443073
234,1778428746830,0.7986305766666667,0.0673243875555555,0.3915641766666666,-0.5379697888888888,0.4623350155555555,0.6139778277777778
235,1778428746840,0.81352305,0.0582046129999999,0.392431435,-0.5338805124999999,0.4756973212499999,0.61718479
236,1778428746850,0.8304181125000001,0.05350921925,0.39630361625,-0.49051036875,0.4991385775,0.6048915075
237,1778428746860,0.859044,0.048813824,0.41316435,-0.43385425,0.42751673,0.57121855
238,1778428746870,0.8463261175,0.040730272625,0.365600575,-0.37284589625,0.41003121875,0.52189264375
239,1778428746880,0.82895754,0.0141200655911111,0.3264824555555555,-0.3454171633333333,0.4360007155555556,0.4873967166666666
240,1778428746890,0.826206725,-0.0116584547125,0.2964197325,-0.2922904075,0.552664075,0.46569468125
241,1778428746900,0.8223718222222222,-0.039273971,0.2886245644444444,-0.2567764366666666,0.6409060311111111,0.4481667488888889
242,1778428746910,0.8263678771428572,-0.07923807,0.3130714057142857,-0.2254680828571428,0.7513530485714286,0.42086286
243,1778428746920,0.84123814,-0.13006857,0.41535962,-0.25426516,0.7555417,0.4166742
244,1778428746930,0.89468634,-0.17058922,0.52030474,-0.37582377,0.5900021,0.4466057
245,1778428746940,0.92011468125,-0.15362558375,0.55169757625,-0.379946995,0.47821704875,0.435610455
246,1778428746950,0.94200623,-0.12860507,0.57033813,-0.3349648811111111,0.3414551411111111,0.3959732488888889
247,1778428746960,0.97279682875,-0.091640253875,0.48901478875,-0.23804908,0.25877017,0.28213506625
248,1778428746970,0.9828791422222224,-0.081261513,0.4208849711111111,-0.1895068722222222,0.2491493211111111,0.1824481933333333
249,1778428746980,0.97984374,-0.096651986,0.37779644,-0.17477867,0.2876327,0.08742751
250,1778428746990,0.964808585,-0.1279685965,0.40478354125,-0.1738624025,0.35589488,0.00542126875
251,1778428747000,0.9315177,-0.16790615,0.4388061,-0.17355698,0.4556156999999999,-0.1135412299999999
252,1778428747010,0.9463242,-0.18896300625,0.50407285,-0.20338349875,0.4579063875,-0.15176691125
253,1778428747020,0.94232629875,-0.2056217575,0.627326995,-0.130120004875,0.44981265625,-0.2577011925
254,1778428747030,0.94691503,-0.21037814,0.6711367,-0.036116343,0.44706383,-0.31458634
255,1778428747040,0.9456954,-0.21110988,0.67455155,0.06284090925,0.437442995,-0.369104455
256,1778428747050,0.96042188625,-0.1886733575,0.66985611625,0.20829891,0.46141875125,-0.43744299625
257,1778428747060,0.96252567,-0.18327289,0.67028298,0.24181916,0.47271943,-0.44897273
258,1778428747070,0.96252567,-0.17668714,0.6735759,0.24181916,0.47271943,-0.44897273
259,1778428747080,0.9760630425,-0.1054787125,0.7425661875,0.3290176,0.4986040825,-0.35474955375
260,1778428747090,1.00389245,-0.0771767575,0.8102911875000001,0.372693185,0.44981265,-0.200338815
261,1778428747100,1.0201205,-0.09470064,0.8492874,0.36887538,0.37620556,-0.0884965
262,1778428747110,1.0200899875,-0.10406094625,0.8655764375,0.340318275,0.32046574375,-0.04237753075
263,1778428747120,1.02237665,-0.11915330125,0.9070650975,0.22280653625,0.13392826,0.09933903375
264,1778428747130,1.0386581,-0.10909174,0.9134679,0.15813309,0.05428905,0.13140851
265,1778428747140,1.0386581,-0.10909174,0.9134679,0.15813309,0.05428905,0.13140851
266,1778428747150,1.1046917888888887,-0.0409407383333333,0.9282689,-0.0180708955555555,-0.0568003111111111,0.0545096316666666
267,1778428747160,1.1570188,0.03320316,0.9442319,-0.21822518,-0.1937913,-0.07200362
268,1778428747170,1.14359575,0.05283845,0.9264717275,-0.2948865125,-0.2781645725,-0.13396643625
269,1778428747180,1.1013104625,0.06942478425,0.8850782862500001,-0.43950461875,-0.42400435625,-0.23845950375
270,1778428747190,1.0445122,0.041252404,0.862215,-0.49188477,-0.47905695,-0.25716668
271,1778428747200,1.0445122,0.041252404,0.862215,-0.49188477,-0.47905695,-0.25716668
272,1778428747210,1.0089803975,-0.0357528505,0.85206194375,-0.4802023025,-0.4475983249999999,-0.22242475125
273,1778428747220,0.96203786,-0.14522189,0.8409942,-0.43080002,-0.35994175,-0.16004199
274,1778428747230,0.96203786,-0.14522189,0.8409942,-0.43080002,-0.35994175,-0.16004199
275,1778428747240,0.96203786,-0.14522189,0.8409942,-0.43080002,-0.35994175,-0.16004199
276,1778428747250,0.96203786,-0.14522189,0.8409942,-0.43080002,-0.35994175,-0.16004199
277,1778428747260,0.96203786,-0.14522189,0.8409942,-0.43080002,-0.35994175,-0.16004199
278,1778428747270,0.966123465,-0.1521163475,0.8495350875000001,-0.4166741775,-0.34703760125,-0.1616454625
279,1778428747280,0.7704819455555555,0.0281520493333333,1.0092018111111112,0.4476067664444444,-0.2446952466666666,0.0912877233333333
280,1778428747290,0.7238430488888888,0.0345209847777777,0.9442623833333336,0.5631247777777778,-0.2236549477777777,0.2655234277777777
281,1778428747300,0.6995225333333334,-0.0164338866666666,0.7552473066666666,0.6868553000000001,-0.0935953702222222,0.6709224222222221
282,1778428747310,0.7221458,-0.06100966,0.6755272,0.690181,0.060397524,0.8467107
283,1778428747320,0.7221458,-0.06100966,0.6755272,0.690181,0.060397524,0.8467107
284,1778428747330,0.7221458,-0.06100966,0.6755272,0.690181,0.060397524,0.8467107
285,1778428747340,0.952020277777778,-0.1022349611111111,0.3786501444444444,0.5164289155555556,0.2749406455555555,0.6701079000000001
286,1778428747350,0.98862475,-0.09884723,0.3553256,0.43851197,0.2967954,0.5009711
287,1778428747360,1.0240460312500002,-0.117609755,0.35870994875,0.34176903875,0.3681118224999999,0.33169005725
288,1778428747370,1.0830815,-0.14888063,0.36435053,0.1336992,0.52464145,-0.028633466
289,1778428747380,1.0830815,-0.14888063,0.36435053,0.1336992,0.52464145,-0.028633466
290,1778428747390,1.0713963575,-0.15427728625,0.37182428875,0.1020114981249999,0.50081840625,-0.08812425775
291,1778428747400,0.98277072,-0.1964545466666666,0.42178275,-0.1214313422222222,0.3208899477777778,-0.5137225111111111
292,1778428747410,0.96911144,-0.20525588,0.41706705,-0.13446276,0.21555273,-0.5870242
293,1778428747420,0.9691114400000002,-0.20525588,0.41706705,-0.13446276,0.21555273,-0.5870242
294,1778428747430,0.96300971,-0.20305681875,0.4129204625,-0.131179455,0.2051683249999999,-0.5935908075
295,1778428747440,0.88670824,-0.0671888783333333,0.30360512,0.0752614713333333,0.28844716,-0.6652126666666667
296,1778428747450,0.87075204,-0.037593655,0.2757783,0.106211066,0.31695336,-0.6725428
297,1778428747460,0.8486640377777778,-0.0405748617777777,0.2430697355555555,0.0256471035555555,0.3377221755555555,-0.6609367
298,1778428747470,0.834526605,-0.037376418125,0.22031774625,-0.117903065,0.377427255,-0.63864079125
299,1778428747480,0.82359139,-0.0095127504444444,0.2210020555555555,-0.36503214,0.3837393355555555,-0.5945579699999999
300,1778428747490,0.8063275,0.022928167,0.2189152,-0.66292197,0.33100286,-0.53754556
301,1778428747500,0.784245465,0.0467977,0.20674986625,-0.9507074025,0.16918559425,-0.4713450125
302,1778428747510,0.7696824311111111,0.061605898,0.21474152,-1.0882752666666666,0.0200052466666666,-0.3709879
303,1778428747520,0.7529403062500001,0.0403643975,0.2528805925,-1.0691354,-0.012980504,-0.30175856
304,1778428747530,0.7458057,-0.0162712746666666,0.2339567466666666,-0.9815806266666668,0.0170358509333333,-0.2451533644444444
305,1778428747540,0.7443422,-0.038569324,0.2054998,-0.9145910725,0.06108472475,-0.21631628
306,1778428747550,0.7327561874999999,-0.0601559515,0.17260154,-0.86534154375,0.07131641875,-0.19455485
307,1778428747560,0.7476012,-0.0739372455555555,0.1702098066666666,-0.7715849388888889,0.1158488811111111,-0.2019868266666666
308,1778428747570,0.83986990375,-0.074695665375,0.14305332125,-0.58626065,0.2624352525,-0.256174055
309,1778428747580,0.90081862625,-0.0187815828749999,0.10582553625,-0.4729485,0.39392012,-0.29626092
310,1778428747590,0.9522812,0.027318668,0.07101024,-0.3165716,0.43484688,-0.38972056
311,1778428747600,0.96642834,0.050033405,0.06735149,-0.22555535,0.37620556,-0.4495836
312,1778428747610,0.97161158,0.072961576875,0.089117245,0.0097640134375,0.27892813125,-0.5270084625
313,1778428747620,0.96606245,0.0632658915,0.0870096524999999,0.19409672375,0.25686127125,-0.550678795
314,1778428747630,0.9615500111111112,0.0601423997777777,0.062581567,0.3290345733333333,0.3210256955555555,-0.5122972400000001
315,1778428747640,0.9635013,0.07466899,0.034178823,0.4207974,0.43667942,-0.42759308
316,1778428747650,1.04998125,0.133426225,-0.016620633375,0.44935451875,0.5791595425,-0.28441620125
317,1778428747660,1.1768674666666668,0.19636308,-0.07353071,0.4163857266666666,0.7761069133333334,-0.0621621915555555
318,1778428747670,1.21815035,0.191505085,-0.07247374,0.34169268,0.7734089825,-0.012598725
319,1778428747680,1.2258338,0.1905904,-0.05271649,0.28580016,0.73538375,-0.012140589
320,1778428747690,1.20028345,0.1804678549999999,-0.003963646,0.2227301875,0.7523347575,-0.020997875
321,1778428747700,1.1785024375000002,0.14075897375,0.02248225625,0.151719188,0.736300015,-0.0277171955
322,1778428747710,1.1607046,0.1126928888888888,0.0420383604444444,0.1070255325555555,0.6679190522222221,-0.0331808848888888
323,1778428747720,1.1228018,0.0652782,0.057953076,0.0184017737499999,0.3410818515,-0.0521510825
324,1778428747730,1.1201035,0.05107005,0.0168912282499999,-0.0536782025,0.042663862,-0.0898709
325,1778428747740,1.1417130625,0.0749548312499999,-0.018507176875,-0.11735903,-0.12965234,-0.13980767
326,1778428747750,1.1427801875,0.09860331625,-0.0170131874125,-0.22204298,-0.29534464625,-0.2196759475
327,1778428747760,1.1095024222222225,0.1160569057777777,0.0112743709888888,-0.3272274977777777,-0.4520439288888889,-0.2556735
328,1778428747770,1.0625239,0.112628522,0.03604631025,-0.430647315,-0.583359125,-0.265260425
329,1778428747780,1.0146324375,0.0936906825,0.086388425,-0.5493807725000001,-0.7573742750000001,-0.2630461075
330,1778428747790,1.0289557333333332,0.0518424577777777,0.2089146366666666,-0.5637610977777778,-0.9363779333333334,-0.3050163888888889
331,1778428747800,1.0515362375,0.009787156125,0.1801096,-0.50891213625,-1.0026294125,-0.34787752
332,1778428747810,1.0603973,-0.006829667,0.1349469,-0.48638713,-0.9823951,-0.36467582
333,1778428747820,1.0352128333333337,-0.0190254996666666,0.0928102911111111,-0.4126103611111111,-0.8255430866666668,-0.3737706444444444
334,1778428747830,0.9801147666666667,-0.0081847598888888,0.1086039,-0.28105761,-0.6320402333333335,-0.3471648566666666
335,1778428747840,0.9520373,0.017805915,0.1290929,-0.1802763,-0.53036815,-0.2987043
336,1778428747850,0.9507092777777776,0.0295105312222222,0.1258135777777777,-0.1084678097777777,-0.3509147922222222,-0.2251311466666666
337,1778428747860,0.9547203,0.030763991,0.13909347,-0.058717694,-0.20845163,-0.1783674
338,1778428747870,0.9261007333333332,0.0617414051111111,0.1467362044444444,0.0035887276,-0.002918492,-0.0751342148888888
339,1778428747880,0.89703405,0.0780025166666666,0.1534337533333333,0.036438736,0.1117086966666666,0.0445324634444444
340,1778428747890,0.87684995,0.08174257,0.15668598,0.03336753125,0.12636902875,0.1781383375
341,1778428747900,0.85888139,0.1021807566666666,0.1504186622222222,0.0242217907777777,0.0670320027777777,0.3095044377777778
342,1778428747910,0.881857885,0.11086013125,0.1183605665,0.0214560105,-0.0426065974999999,0.39857783125
343,1778428747920,0.9250006125,0.11531160775,0.06931807025,0.0445154937499999,-0.214560105,0.4198811424999999
344,1778428747930,0.95076345,0.1161924208888889,-0.0008977492222222,0.0775691177777777,-0.3752808055555555,0.3757474166666666
345,1778428747940,0.9514198625,0.1040304625,-0.06809086275,0.10300412125,-0.40346461875,0.3138991525
346,1778428747950,0.9367010375,0.0896355675,-0.11497622,0.1491994475,-0.33443886875,0.199365280625
347,1778428747960,0.9296477333333334,0.0859501366666666,-0.1322163855555555,0.19132245,-0.2640387255555556,0.1083999383333333
348,1778428747970,0.913285025,0.0876804225,-0.16132038,0.24334628,-0.2612899174999999,0.04787515275
349,1778428747980,0.9068822,0.08198649,-0.17741889,0.28824356,-0.24021569,0.024510246
350,1778428747990,0.9132816022222224,0.0835346838888888,-0.1741666733333333,0.3318173277777778,-0.2113701188888889,-0.0067787077777777
351,1778428748000,0.9566717,0.095920235,-0.18522422,0.385368255,-0.158056725,-0.123047545
352,1778428748010,0.9566717,0.095920235,-0.18522422,0.36887538,-0.13759334,-0.16492876
353,1778428748020,0.9566717,0.095920235,-0.18522422,0.36887538,-0.13759334,-0.16492876
354,1778428748030,1.077288475,0.086601853125,-0.217230665,0.2348707675,-0.077653956875,-0.3080960849999999
355,1778428748040,1.1436033,0.07613249,-0.20720722,0.0447869813333333,-0.039518423,-0.4770716977777777
356,1778428748050,1.1436033,0.07613249,-0.20720722,0.031076854,-0.039246935,-0.4874561
357,1778428748060,1.1295095000000002,0.075949551125,-0.177883861,-0.07598367175,-0.1162136905,-0.5170821875
358,1778428748070,1.0913204333333333,0.0747231911111111,-0.0937453095555555,-0.2892192033333333,-0.3788780088888889,-0.5306905066666666
359,1778428748080,1.0757641,0.07320549,-0.045155074,-0.28114244,-0.4515688399999999,-0.49600798
360,1778428748090,1.0699405857142856,0.0700345734285714,-0.0372060038571428,-0.2534688785714286,-0.4751300914285714,-0.4813476471428571
361,1778428748100,1.0290641333333337,0.0437728793333333,0.0065044446666666,-0.0578353544444444,-0.6386238444444445,-0.3837478388888888
362,1778428748110,1.0171934,0.02930049,-0.0014635,0.04573719,-0.7160657,-0.3500155
363,1778428748120,1.0171934,0.02930049,-0.0014635,0.04573719,-0.7160657,-0.3500155
364,1778428748130,1.0172476666666668,0.0531839977777777,-0.0162712747777777,0.0166880082222222,-0.6031947066666666,-0.30684895
365,1778428748140,1.0291454,0.1027499,-0.02414775,-0.13751699,-0.3037438,-0.19852535
366,1778428748150,1.0291454,0.1027499,-0.02414775,-0.13751699,-0.3037438,-0.19852535
367,1778428748160,1.0638273125,0.13056783625,-0.017443852575,-0.2206972025,-0.155508349,-0.1029754795
368,1778428748170,1.1553113,0.17010139,-0.033447072,-0.36666107,0.15385716,0.13324106
369,1778428748180,1.1553113,0.17010139,-0.033447072,-0.36666107,0.15385716,0.13324106
370,1778428748190,1.13292435,0.127324505,-0.001532101175,-0.17800470575,0.131169904375,0.18974443375
371,1778428748200,1.1047901,0.08052299,-0.0024391667,0.033520244,0.027335415,0.20043425
372,1778428748210,1.1047901,0.08052299,-0.0024391667,0.033520244,0.027335415,0.20043425
373,1778428748220,1.0874720222222225,0.07559384,-0.0312687622666666,0.1888790586666666,0.2243591022222222,0.18787795
374,1778428748230,1.0982044,0.11958014,-0.005610083,0.21494187,0.37009707,0.22486815
375,1778428748240,1.0982044,0.11958014,-0.005610083,0.21494187,0.37009707,0.2248681499999999
376,1778428748250,1.1101143375,0.1322333275,0.0076528857499999,0.1481304575,0.26205347,0.26953635625
377,1778428748260,1.1102951444444444,0.1042675991111111,0.013442519,0.1210750144444444,0.1005777011111111,0.2947083466666667
378,1778428748270,1.1094245,0.099822894,0.0131715005,0.12270394,0.0884965,0.29450473
379,1778428748280,1.0545470375,0.06714187325,-0.0598472411875,0.343983355,-0.0259514647499999,0.32336726125
380,1778428748290,1.0106077,0.061741404,-0.084669575,0.52403057,-0.11560284,0.36658472
381,1778428748300,1.0067926925,0.0554872285,-0.083754888125,0.52403057,-0.11560284,0.36658472
382,1778428748310,0.9800876575,0.02860685175,-0.0272195783749999,0.56930965,-0.25311984375,0.366813775
383,1778428748320,0.99545443,0.049301658,-0.0026830835,0.4971533,-0.17668757,0.3598654
384,1778428748330,1.002148533333333,0.0483259915555555,0.0449958497777777,0.4212725155555555,-0.0547217334444444,0.4037785244444444
385,1778428748340,0.9915517044444444,0.0363164825555555,0.0874102515555555,0.4041009122222222,-0.1066437533333333,0.4542752422222222
386,1778428748350,0.97770946875,0.012927584,0.0912210235,0.40735877,-0.29397026,0.5009711
387,1778428748360,0.95153926,-0.04237036,0.054982882,0.4295528733333333,-0.7343910666666666,0.5622594666666667
388,1778428748370,0.9242307925,-0.079917011875,0.0072831984999999,0.44828552,-0.950631,0.5919874
389,1778428748380,0.8788216066666668,-0.084689898,-0.0597189326666666,0.4501180755555556,-1.2365754222222225,0.6454704055555556
390,1778428748390,0.8503849750000001,-0.0566191595,-0.1036645864999999,0.43133452375,-1.2936218,0.64306941875
391,1778428748400,0.8359532377777777,-0.0227621675555555,-0.1210165453333333,0.3234011955555556,-1.1581833666666668,0.5568296788888889
392,1778428748410,0.86984493,0.0626637175,-0.1048155725,0.141029361,-0.7226323175,0.421102835
393,1778428748420,0.9227367,0.12104365,-0.07442507,0.020081604,-0.36666107,0.3189386
394,1778428748430,1.0165722499999998,0.14731424,-0.023549390375,-0.085155925,-0.0702283467499999,0.16004197325
395,1778428748440,1.0818551444444444,0.1547007611111111,0.0282198041111111,-0.2242657855555555,0.2131772088888888,-0.0810475548888888
396,1778428748450,1.0183694857142858,0.1209391071428571,0.0709144157142857,-0.2725905942857143,0.1535844542857142,-0.1837777628571428
397,1778428748460,0.944895025,0.085058312,0.1509996625,-0.2429454199999999,-0.0639862549999999,-0.1583430625
398,1778428748470,0.9035723555555556,0.0523607777777777,0.2594087644444444,-0.1551636916666666,-0.3207117944444444,-0.0640626081111111
399,1778428748480,0.8812946488888889,0.0111625745555555,0.2913042577777778,-0.0410031238888888,-0.5528337433333333,0.0092390652222222
400,1778428748490,0.84852127875,-0.029083252,0.24708759375,0.09582666375,-0.57412006875,0.0204633841249999
401,1778428748500,0.82323909,-0.0118706113333333,0.23468849,0.2017747377777777,-0.1795890788888889,-0.027615386
402,1778428748510,0.8426812466666668,0.0200926356666666,0.2435507933333333,0.26869645,0.2668639066666667,-0.0487914256666666
403,1778428748520,0.8724594,0.048569907,0.23916028,0.28946525,0.47455198,-0.042682953
404,1778428748530,0.8954892000000001,0.0691978078888889,0.2497062988888889,0.2904154455555556,0.5141212888888889,-0.015194826
405,1778428748540,0.9216255666666668,0.0899307233333333,0.30077298,0.28865078,0.4016575233333334,0.0758214166666666
406,1778428748550,0.92993234,0.08685339025,0.32852526125,0.297558975,0.32367269375,0.1340809775
407,1778428748560,0.9435577311111112,0.0816612697777777,0.3491463766666667,0.3118629933333333,0.2633345644444445,0.1910000699999999
408,1778428748570,0.9562447875,0.0686625475,0.34044669,0.3363477875,0.17844376125,0.2963372775
409,1778428748580,0.95608856625,0.057838743,0.315868275,0.3203894,0.20547375,0.294733795
410,1778428748590,0.94005483,0.040764574,0.27187562,0.2888544,0.29313034,0.2407501799999999
411,1778428748600,0.9245661375,0.04143534525,0.236782115,0.179054605,0.399875885,0.1503447835
412,1778428748610,0.9071261,0.06003399025,0.2031216075,0.05688515,0.482187555,0.0904817505
413,1778428748620,0.9031421666666666,0.0750484166666666,0.2128985877777777,-0.0652333966666666,0.5199582666666667,0.0514553975555555
414,1778428748630,0.9104015285714286,0.0716374557142857,0.2562780142857143,-0.14790139,0.514257,0.023899399
415,1778428748640,0.9185901,0.05979007,0.2935842,-0.23166382,0.50448346,0.019623468
416,1778428748650,0.89659574,0.0298378682499999,0.340137985,-0.284425745,0.459280765,0.063069981
417,1778428748660,0.8554462500000001,0.00661624,0.358740455,-0.3219165025,0.3882697975,0.15736953
418,1778428748670,0.8311020111111111,-0.0002168147999999,0.3466733577777778,-0.3381548766666666,0.3572693,0.2554105133333333
419,1778428748680,0.8404250333333333,0.0191982749333333,0.30407261,-0.3676791533333333,0.4576518666666667,0.2556141366666666
420,1778428748690,0.8480677,0.049301658,0.29480377,-0.3965926,0.5680116,0.21937053
421,1778428748700,0.8570113666666667,0.072555046,0.3117356566666667,-0.4517045822222222,0.6680548199999999,0.1348699877777777
422,1778428748710,0.8605075120000001,0.0480698756,0.420591604,-0.502452426,0.741980898,0.02786990659
423,1778428748720,0.86351581,0.0041364193333333,0.4755663733333333,-0.4898486033333333,0.71705832,-0.0023670329999999
424,1778428748730,0.8793704333333333,-0.0396262986666666,0.5115237566666667,-0.5001651322222221,0.6787785422222222,0.0098499125333333
425,1778428748740,0.8798582444444444,-0.0399515191111111,0.53885595,-0.5411597666666667,0.6272637533333333,0.0524056066666666
426,1778428748750,0.8910851444444445,-0.0281012325555555,0.5753316555555555,-0.541567,0.5706586022222222,0.0779254466666666
427,1778428748760,0.92842816,-0.0243713397777777,0.6056823577777778,-0.5136037788888889,0.5084879333333334,0.0723599466666666
428,1778428748770,0.9415183700000002,-0.031983573,0.60890746,-0.4955498300000001,0.490434,0.049554985
429,1778428748780,0.92215748,-0.0399515186666666,0.6139484066666667,-0.4721340266666667,0.4938954666666666,0.0357091135
430,1778428748790,0.8441854333333334,-0.0759495535555555,0.6752832855555556,-0.3334038288888889,0.48167852,0.0408673781666666
431,1778428748800,0.8336529511111112,-0.1056497991111111,0.7272680355555556,-0.1806071688888889,0.4202544288888888,0.0978797888888888
432,1778428748810,0.8812201277777778,-0.1331920588888888,0.7517681444444445,-0.0333335955555555,0.35998416,0.1227887911111111
433,1778428748820,0.953700672222222,-0.1390291099999999,0.7508195777777779,0.1626126299999999,0.3332426266666666,0.0821335083333333
434,1778428748830,0.992317422222222,-0.1322096077777777,0.7432852444444444,0.3530612322222222,0.32645544,0.0027233616666666
435,1778428748840,1.0168953888888888,-0.1240790566666666,0.7272680499999999,0.4647105422222222,0.3237405533333333,-0.0821844088888888
436,1778428748850,1.0181962555555557,-0.1102571111111111,0.7235279922222222,0.5237590911111112,0.3388081233333333,-0.1438969577777777
437,1778428748860,1.0054855,-0.09640807,0.74629354,0.54418856,0.3084015,-0.17531316
438,1778428748870,0.97466666,-0.073107926,0.7776673519999999,0.526962668,0.223188321,-0.189240474
439,1778428748880,0.9174756777777778,-0.0422517875555555,0.8157623977777777,0.5069268955555555,0.16471666,-0.20286916
440,1778428748890,0.8674997955555556,-0.0132528067777777,0.83684756,0.4831717044444444,0.1732685177777778,-0.20476958
441,1778428748900,0.8676082088888889,0.0208989154444444,0.85446384,0.44224494,0.1605764733333333,-0.1856296966666666
442,1778428748910,0.8736789999999999,0.049545575,0.85489744,0.410413,0.11781716,-0.16187452
443,1778428748920,0.8742481222222221,0.0473503234444444,0.8566048844444444,0.3235369466666666,0.0700183655555555,-0.1164851755555555
444,1778428748930,0.8454659444444445,0.0513071937777777,0.85736373,0.1937658382222222,0.0116570017444444,-0.0475018582222222
445,1778428748940,0.8339846200000001,0.0409597092,0.8822009230000001,0.085136837,-0.00021379651,0.0214560097
446,1778428748950,0.8134824333333334,0.0293411422222222,0.8891304755555556,0.0358278884444444,0.0073810709999999,0.0676089116666666
447,1778428748960,0.8070390000000001,0.0147163042666666,0.8891846277777778,-0.0027233606666666,-0.03517462,0.1216349599999999
448,1778428748970,0.8300179,0.0039026667,0.89127153,-0.035200073,-0.1000262369999999,0.13385191
449,1778428748980,0.8595318,-0.017562,0.8585562,-0.051387526,-0.1253764,0.12163496
450,1778428748990,0.8585019577777778,-0.023290654,0.8390327,-0.071477614,-0.1107839377777777,0.1066352664444444
451,1778428749000,0.85848304,-0.037422915,0.7912778599999999,-0.125300047,-0.05641174482,0.0672695547999999
452,1778428749010,0.8766127555555555,-0.0436915733333333,0.7954867866666667,-0.15387413,0.0146518504888888,0.0422926877777777
453,1778428749020,0.90395516,-0.04027674,0.81559634,-0.16256173,0.10376768,0.018401774
454,1778428749030,0.9314567866666668,-0.0480820733333333,0.8593590466666667,-0.1291687433333333,0.1404185133333333,0.0012980506666666
455,1778428749040,0.979776732,-0.061521884,0.87501749,-0.1012937444999999,0.10876898767,0.0115602846
456,1778428749050,1.0045099,-0.05783874,0.8295301,-0.13263021,-0.0056503373,0.07093464
457,1778428749060,1.0076266,-0.0566191566666666,0.8097288066666667,-0.1503532666666666,-0.0267585026444444,0.08511987
458,1778428749070,1.02565739,-0.0512285981999999,0.683500216,-0.296719058,-0.140647578,0.17190769
459,1778428749080,1.0206083,-0.037837572,0.6432997,-0.35872006,-0.13209572,0.18088715
460,1778428749090,1.0206083,-0.037837572,0.6432997,-0.35872006,-0.13209572,0.18088715
461,1778428749100,0.9740473555555555,-0.0610164324444444,0.5931104855555556,-0.5695980933333333,-0.1538147344444444,0.1886924166666667
462,1778428749110,0.9495981,-0.05710699,0.5676551,-0.9005415400000001,-0.114992,0.2401393399999999
463,1778428749120,0.9495981,-0.05710699,0.5676551,-0.90054154,-0.114992,0.24013934
464,1778428749130,0.8756100644444444,-0.0965943855555555,0.5398756688888888,-1.1492243488888887,0.0212948151111111,0.3606798377777778
465,1778428749140,0.8357906622222222,-0.1566283722222222,0.5865145822222222,-1.1737939666666668,0.1002977274444444,0.4631664399999999
466,1778428749150,0.8361429811111111,-0.2169571022222222,0.6335057888888889,-1.1156277222222224,0.1127946433333333,0.5090478644444444
467,1778428749160,0.868861674,-0.331177844,0.71968834,-0.8339592,-0.008093726,0.54373044
468,1778428749170,0.8941985400000001,-0.34434935,0.7292194,-0.8339592,-0.008093726,0.54373044
469,1778428749180,0.8941985400000001,-0.34434935,0.7292194,-0.8339592,-0.008093726,0.54373044
470,1778428749190,0.9180210633333332,-0.2958743088888889,0.6697511444444444,-0.2747200646666667,-0.3114811962222222,0.3065859422222222
471,1778428749200,0.90273565,-0.2613872,0.487376,0.14225106,-0.5816793,0.12896512
472,1778428749210,0.90273565,-0.2613872,0.487376,0.14225106,-0.5816793,0.12896512
473,1778428749220,0.9317718677777778,-0.2232040766666666,0.5089829355555556,0.22566564,-0.4384016855555555,-0.0001442332222222
474,1778428749230,0.9437136,-0.1744919,0.56302065,0.42324078,-0.30618718,-0.17164809
475,1778428749240,0.936542448,-0.166924384,0.54261702,0.4622739239999999,-0.288778034,-0.196570657
476,1778428749250,0.9047648422222222,-0.1364917077777777,0.4564460033333333,0.6655435555555556,-0.1608055338888888,-0.3361696222222222
477,1778428749260,0.88002086,-0.13519081,0.41999403,0.7127824,-0.048409645,-0.35734564
478,1778428749270,0.8800208599999999,-0.13519081,0.4199940299999999,0.7127824,-0.048409645,-0.35734564
479,1778428749280,0.914006528888889,-0.0822778368888888,0.4671241299999999,0.9068961,0.2171731638888888,-0.4462578533333333
480,1778428749290,0.92054149,-0.0055389416666666,0.4579942033333333,0.9799262666666666,0.29333394,-0.4503980466666666
481,1778428749300,0.92541987,0.044423323,0.46758825,0.9986589,0.2693073,-0.4263714
482,1778428749310,0.9541512011111112,0.10209945,0.4621678722222222,1.0030026555555556,0.0630954316666666,-0.3844944222222222
483,1778428749320,0.9659405399999998,0.09762765,0.441977,0.9882744999999998,-0.04291202,-0.38972056
484,1778428749330,0.9659405399999998,0.09762765,0.4419769999999999,0.9882745,-0.04291202,-0.38972056
485,1778428749340,0.9659405399999998,0.09762765,0.441977,0.9882744999999998,-0.04291202,-0.38972056
486,1778428749350,0.9088233466666666,0.0188730533333333,0.34614824,0.9128009377777776,0.1616454596666666,-0.3379342822222222
487,1778428749360,0.8895844133333333,0.0198216166666666,0.2943769444444444,0.8563993555555556,0.2334709144444444,-0.2786142233333333
488,1778428749370,0.886826108,0.0643818048,0.2588931639999999,0.8158934,0.22825835,-0.261809136
489,1778428749380,0.8837405577777777,0.1140310444444444,0.2294510511111111,0.6431458222222222,0.1892184188888889,-0.2114210244444444
490,1778428749390,0.8855225466666667,0.1497749944444444,0.1908851255555555,0.4869725333333334,0.1320702616666666,-0.22194117
491,1778428749400,0.8698007579999999,0.154164477,0.1063995029,0.342975484,0.106821912,-0.258632728
492,1778428749410,0.8682857533333332,0.1321554022222222,0.0394840127777777,0.19851688,0.1619339066666666,-0.3231382044444444
493,1778428749420,0.8704810088888889,0.1010628122222222,-0.0410457551111111,0.08971819,0.25220355,-0.38300124
494,1778428749430,0.8689226074999999,0.06591467125,-0.0975399875,-0.0246629576875,0.438053845,-0.4483618825
495,1778428749440,0.86151026,0.0325018957777777,-0.1563607577777778,-0.1378563477777777,0.7737313666666668,-0.5174554555555555
496,1778428749450,0.8479017933333334,0.0496268786666666,-0.1572280166666666,-0.1822445822222222,1.036938666666667,-0.5631333000000001
497,1778428749460,0.8203121066666667,0.0788155766666666,-0.1841774233333333,-0.22230598,1.1911436888888889,-0.6337201
498,1778428749470,0.8068154,0.08515741,-0.20598765,-0.29030517,1.3089694,-0.7116371
499,1778428749480,0.8052976555555555,0.1032343466666666,-0.1468649411111111,-0.3774527255555556,1.4463421111111112,-0.7442156066666666
500,1778428749490,0.8059128899999999,0.145493248,-0.012451946,-0.461464574,1.54475636,-0.728252128
501,1778428749500,0.8163349444444444,0.1701826966666667,0.0932947377777777,-0.48679435,1.4714547555555555,-0.6521812533333333
502,1778428749510,0.8485556466666666,0.1622689488888889,0.1554765488888888,-0.52812835,1.2717755,-0.5756217333333333
503,1778428749520,0.87758166,0.15449072,0.20769504,-0.5780142,1.0518026,-0.5271612
504,1778428749530,0.913413058,0.127928201,0.250404854,-0.591513953,0.7481504400000001,-0.422339805
505,1778428749540,0.9570578866666668,0.0758275966666666,0.2512951533333333,-0.5797789088888889,0.1781383311111111,-0.22674312
506,1778428749550,0.9861856,0.04783816,0.2335502,-0.5902312,-0.16874656,-0.11170869
507,1778428749560,0.9861856,0.04783816,0.2335502,-0.5902312,-0.16874656,-0.11170869
508,1778428749570,1.0902161125,0.025744642625,0.18342915,-0.7768449975,-0.85426992,0.1614163875
509,1778428749580,1.1608469444444445,0.0427430081111111,0.1675538222222222,-0.9326449644444446,-1.061330222222222,0.2719033844444444
510,1778428749590,1.2037897999999998,0.0488138228,0.1937186119999999,-0.99974316,-1.06467624,0.298475234
511,1778428749600,1.2377348666666663,0.0270713625999999,0.2650493266666667,-0.9255184311111112,-1.0631626,0.3030566111111111
512,1778428749610,1.2273175333333333,-0.0129377465333333,0.3216447899999999,-0.7648656266666667,-1.1140665666666667,0.2857492555555556
513,1778428749620,1.18689848,-0.0385693224,0.346300696,-0.575387587,-1.15569245,0.2721477289999999
514,1778428749630,1.139158622222222,-0.0469708944444444,0.3550274788888889,-0.3406661455555555,-1.1518713,0.2930115444444444
515,1778428749640,1.1289684,-0.04393549,0.35459387,-0.2353289099999999,-1.1344961,0.31038678
516,1778428749650,1.116864,-0.0152617306666666,0.3144458644444444,0.07423491,-1.049656188888889,0.3756795555555555
517,1778428749660,1.135255988888889,0.0089707127777777,0.2581553188888889,0.2696466555555555,-0.9428936333333332,0.3995025833333334
518,1778428749670,1.153282077777778,0.0174027768888888,0.2295628466666666,0.3735585444444445,-0.8049100222222222,0.3863354333333333
519,1778428749680,1.174279211111111,0.0286432691111111,0.1940323199999999,0.4607060866666667,-0.6213843833333333,0.3502954666666666
520,1778428749690,1.167995,0.017805915,0.19498089,0.50142926,-0.53342235,0.3238254
521,1778428749700,1.1460425333333333,0.0287110239999999,0.1987311,0.5307498955555556,-0.4715910466666667,0.2824235333333333
522,1778428749710,1.11325094,0.0708242508,0.209914678,0.54418857,-0.436297652,0.2558991819999999
523,1778428749720,1.0873093666666669,0.0947006433333333,0.2207039333333333,0.54378132,-0.4766135533333333,0.2442116566666666
524,1778428749730,1.067542,0.0960015333333333,0.2049204933333333,0.5371298777777778,-0.5473360777777778,0.2261577144444444
525,1778428749740,1.030609,0.08787098,0.16912572,0.5338041,-0.6152759,0.20715357
526,1778428749750,1.02518185,0.0699735962499999,0.0920709225,0.524336025,-0.6129852575,0.1674484975
527,1778428749760,1.013405225,0.0603998675,0.0475256384999999,0.5179221,-0.61161083,0.13629529
528,1778428749770,0.9949395133333334,0.0499792031111111,0.0184563616444444,0.4959316355555555,-0.6335334444444445,0.0912283422222222
529,1778428749780,0.9706020355555556,0.04144212,-0.0021139442444444,0.4413625866666666,-0.67065938,0.0554598413333333
530,1778428749790,0.95255174625,0.034876272,-0.02186484225,0.3910949525,-0.7065975775,0.041995748875
531,1778428749800,0.9342008344444444,0.0245271764444444,-0.0671414535555555,0.32428354,-0.76432264,0.036116343
532,1778428749810,0.91712666,0.0190255,-0.09031015,0.26991814,-0.8101362,0.04344651
533,1778428749820,0.910188562222222,0.0146892031111111,-0.1182792575555555,0.2188784511111111,-0.8503163777777778,0.0575638699999999
534,1778428749830,0.900601325,0.01469597975,-0.1696821625,0.1557660525,-1.00217125,0.0833806505
535,1778428749840,0.9022478,0.009024917,-0.20428021,0.14568707125,-1.04256352125,0.08597674975
536,1778428749850,0.9124923,-0.006829667,-0.2464777999999999,0.16118732,-0.98056257,0.067269556
537,1778428749860,0.9198098,-0.0160985,-0.27504653,0.17706935,-0.8681667,0.03978143
538,1778428749870,0.9187256666666666,-0.0325865888888888,-0.2743960988888889,0.1986526166666666,-0.6595283977777778,-0.0137016435555555
539,1778428749880,0.9187121,-0.055948384,-0.2516839075,0.236779675,-0.4054498725,-0.076584978
540,1778428749890,0.9111100555555556,-0.0687065846666666,-0.2297559611111111,0.2789451044444445,-0.2503964777777778,-0.1154501333333333
541,1778428749900,0.9059065,-0.069790654,-0.21696389,0.3267269,-0.11682454,-0.1551552
542,1778428749910,0.9009739888888888,-0.0677038108888889,-0.2124107711111111,0.3504821,-0.0379573701111111,-0.1713087111111111
543,1778428749920,0.89645475,-0.073449406,-0.2065898075,0.37605284,0.08742751475,-0.1860029899999999
544,1778428749930,0.898833,-0.069790654,-0.18571205,0.37376216,0.18867545,-0.19424942
545,1778428749940,0.89990009375,-0.0614060221249999,-0.1565754375,0.3526115775,0.24357534875,-0.17918822375
546,1778428749950,0.91319358125,-0.0443318535,-0.09445291525,0.31053946875,0.272285165,-0.14461808625
547,1778428749960,0.9329813,-0.037593655,-0.060033992,0.27419406,0.2247154399999999,-0.10987615
548,1778428749970,0.9660891675,-0.022718550875,-0.04689298,0.23861221,0.19738001875,-0.081319045
549,1778428749980,1.0009159125,0.0010671354999999,-0.0327724941249999,0.1936385825,0.19486027875,-0.0508530355
550,1778428749990,1.0169495,0.023903834,-0.014391083,0.16851749,0.19111884,-0.039628714
551,1778428750000,1.0383058555555555,0.0438745117777777,-0.00501384252,0.1478165466666666,0.1629519955555555,-0.0517099175555555
552,1778428750010,1.052073625,0.05460684575,-0.00872002075,0.1215585975,0.1406475875,-0.07620319475
553,1778428750020,1.0579276,0.050033405,-0.019513333,0.10743276,0.1349209,-0.090329036
554,1778428750030,1.056753725,0.033656688375,-0.049080607625,0.06039752225,0.13408097875,-0.11767399725
555,1778428750040,1.0414226,0.0017345185111111,-0.1311594211111111,-0.0796222442222222,0.1953947677777777,-0.1592275255555555
556,1778428750050,1.030609,-0.0024391667,-0.1554664,-0.1698919,0.27663746,-0.1563769
557,1778428750060,1.0290409285714286,-0.0017422619142857,-0.15720865,-0.1886536285714286,0.2975807885714285,-0.1546316214285714
558,1778428750070,1.0351620333333331,0.014635,-0.0811124556666666,-0.3112775866666666,0.3605271455555556,-0.1002383355555555
559,1778428750080,1.0364629,0.018049834,-0.052960407,-0.326956,0.3248944,-0.083609715
560,1778428750090,1.0364629,0.018049834,-0.052960407,-0.326956,0.3248944,-0.083609715
561,1778428750100,1.044454975,0.02647639275,-0.018152735625,-0.36215606875,0.324207185,-0.055205319
562,1778428750110,1.069666,0.056131326,0.048082076,-0.47355935,0.32184014,0.019623468
563,1778428750120,1.080093475,0.076437384,0.06491232275,-0.5157077825,0.2554105024999999,0.074599722
564,1778428750130,1.084209575,0.0843151309999999,0.06713806375,-0.539607175,0.1656923147499999,0.11674818125
565,1778428750140,1.0625111,0.06163639,0.0241782398888888,-0.5538518244444445,-0.1343270048888889,0.2069499611111111
566,1778428750150,1.0534828,0.0519813548888888,0.008100066,-0.5423135988888889,-0.1932483111111111,0.2258183555555555
567,1778428750160,1.00420495,-0.009459394,-0.0982221899999999,-0.426295025,-0.493488225,0.3299338775
568,1778428750170,1.0047538,-0.035642326,-0.14327055,-0.372464125,-0.48409647,0.32794862
569,1778428750180,1.0047538,-0.035642326,-0.14327055,-0.34039465,-0.37460208,0.30366746
570,1778428750190,1.0047538,-0.035642326,-0.14327055,-0.34039465,-0.37460208,0.30366746
571,1778428750200,1.0047538,-0.035642326,-0.14327055,-0.34039465,-0.37460208,0.30366746
572,1778428750210,1.0128378714285715,0.0010410017142857,-0.1319981171428571,-0.3670973985714286,-0.0159256528571428,0.1861229871428571
573,1778428750220,1.024511,0.09128582,-0.08076691,-0.43629766,0.75981766,-0.07872294
574,1778428750230,1.024511,0.09128582,-0.08076691,-0.43629766,0.75981766,-0.07872294
575,1778428750240,1.024267075,0.05833038575,-0.00741659175,-0.2949342325,0.64146599125,-0.096284799375
576,1778428750250,1.0381703,0.008781,0.026586918,-0.15950748,0.49104485,-0.109265305
577,1778428750260,1.0381703,0.008781,0.026586918,-0.15950748,0.49104485,-0.109265305
578,1778428750270,1.035212825,-0.03124039075,0.017074167375,0.0017561924999999,0.37124243375,-0.140284894375
579,1778428750280,0.9888585,-0.0462052738888888,0.0301169345555555,0.1469342188888888,0.2990351977777778,-0.1982538744444444
580,1778428750290,0.9082122875,-0.009695687625,0.0795587624999999,0.131713935,0.348564725,-0.247240425
581,1778428750300,0.8807526,0.021708583,0.110067405,0.08177718,0.41591063,-0.24311721
582,1778428750310,0.87420116375,0.052346805375,0.155371100625,0.0220668575,0.44683477,-0.20523513875
583,1778428750320,0.8990768322222222,0.07404565,0.2047172311111111,-0.0754141857777777,0.4043045277777778,-0.1146271844444444
584,1778428750330,0.9563172725,0.06972967625,0.23870295125,-0.12102412,0.33161372,-0.04573719
585,1778428750340,0.99182994,0.0529565924999999,0.2532197975,-0.09910996825,0.1945453125,0.023593975
586,1778428750350,1.0108516,0.0102445,0.26626554,-0.015958386,-0.03802524,0.10575293
587,1778428750360,0.9954277625,-0.0182975615,0.2520535975,0.05741964475,-0.20501561625,0.1190388595
588,1778428750370,0.95746435,-0.0305467517499999,0.19695509125,0.18317783,-0.5248705,0.120413266
589,1778428750380,0.9429242466666666,-0.007500438,0.1250208477777777,0.2542397122222222,-0.6894598911111111,0.056070688
590,1778428750390,0.939628005,0.04241101225,0.0761934665,0.22242476,-0.5899257425,-0.0675940675
591,1778428750400,0.96360802,0.082123698,0.107734943,0.148970375625,-0.3336753195,-0.17424418125
592,1778428750410,0.9874089625,0.085428004625,0.15398001875,0.094757681875,0.01573886225,-0.2821350775
593,1778428750420,1.0131553222222225,0.0410288174444444,0.2582467722222222,0.1149665477777777,0.2902118422222222,-0.3804899755555555
594,1778428750430,1.010546825,0.0004802105,0.3100562074999999,0.18577392,0.33436252,-0.41797224
595,1778428750440,0.99352601,-0.0321665099999999,0.3666753625,0.3120665875,0.287021855,-0.428662075
596,1778428750450,0.95699012,-0.0276947042222222,0.3885219911111111,0.3943952222222222,0.1473329582222222,-0.4010551688888889
597,1778428750460,0.891107645,-0.00243916675,0.34745929875,0.4629458575,-0.130415897,-0.299773285
598,1778428750470,0.85343397,0.006097917,0.31605503,0.49593163,-0.29397026,-0.20768806
599,1778428750480,0.825718945,0.0450788507499999,0.275473395,0.46661093,-0.2849602424999999,-0.133241055
600,1778428750490,0.83478577375,0.13303748875,0.2814188625,0.401784785,-0.03982915125,-0.101171574375
601,1778428750500,0.85416573,0.16034472,0.2904133,0.37315132,0.16139094,-0.07383616
602,1778428750510,0.90431726125,0.17308936375,0.3327595124999999,0.38124504,0.2751103375,-0.0428356639999999
603,1778428750520,0.9771607,0.17839456,0.40706643,0.42385164,0.27052897,-0.008475506
604,1778428750530,1.0079179111111112,0.1410414368888889,0.4330537166666667,0.4972890799999999,0.0721902677777777,0.031976158
605,1778428750540,0.9925274,0.090554066,0.4197501,0.50875944,-0.10155336,0.067269556
606,1778428750550,0.9220964666666666,0.0223793553333333,0.37647522,0.4900267733333334,-0.29132324,0.118987952
607,1778428750560,0.886881,-0.011708,0.35483778,0.48066044,-0.38620818,0.14484715
608,1778428750570,0.82901174,-0.04027674,0.21647604,0.4225620666666667,-0.2721833533333334,0.1497339411111111
609,1778428750580,0.8302110711111111,0.039605968,0.27792272,0.2947592455555555,0.0766104255555555,0.1149156433333333
610,1778428750590,0.8544706055555555,0.1229204477777777,0.3540586177777778,0.1719789555555555,0.3066368333333333,0.0940789633333333
611,1778428750600,0.9086811,0.15457202,0.4112231933333333,0.01071528,0.3713187733333333,0.0750069533333333
612,1778428750610,0.95139696875,0.1389905825,0.455026545,-0.0617719275,0.345663195,0.0477224434999999
613,1778428750620,0.947090325,0.1114089425,0.4927802575,-0.0819298875,0.2668638937499999,0.0101553358625
614,1778428750630,0.9058963833333332,0.0973024233333333,0.5220934566666666,-0.0776539566666666,0.2053040655555555,0.0017052817888888
615,1778428750640,0.8772463312500001,0.1059513062499999,0.53454337,-0.07337803,0.15019207,0.020234315
616,1778428750650,0.8618084333333333,0.0982780933333333,0.53973679,-0.0650297766666666,0.0279971616666666,0.05892131
617,1778428750660,0.86450166375,0.094822605,0.52814057,-0.044820916875,-0.044133715,0.0804027725
618,1778428750670,0.86703229375,0.104304865,0.51023936125,-0.0045049984375,-0.0374907509999999,0.077424889
619,1778428750680,0.866544485,0.1059513,0.464844175,0.024357535,0.009009997,0.050165832
620,1778428750690,0.86611766,0.10104248,0.4490506,-0.0001442275999999,0.0403753044444444,0.0247138628888888
621,1778428750700,0.8467186375,0.0947616275,0.4428307025,-0.04680617,0.056121594,0.00984991225
622,1778428750710,0.82437736,0.09933506,0.43953782,-0.09720107,0.100102596,0.004352287
623,1778428750720,0.7820845424999999,0.10582934125,0.4466419075,-0.115984623125,0.26228253125,0.038330665375
624,1778428750730,0.7479704375,0.0999753415,0.47744783125,-0.115755554375,0.389033335,0.07475243375
625,1778428750740,0.7548306,0.099822894,0.5142068,-0.1191915699999999,0.45011806,0.09536853
626,1778428750750,0.7683413437500001,0.097440895625,0.570189535,-0.10560022,0.47997322625,0.13637165125
627,1778428750760,0.7912047,0.073937245,0.6237864,-0.1002553,0.47943875,0.19249325
628,1778428750770,0.817730635,0.053631178,0.63945805,-0.11178505125,0.51425701125,0.24044474875
629,1778428750780,0.8339510922222222,0.0539360733333333,0.6444651222222222,-0.1175626477777777,0.533872,0.2669487244444444
630,1778428750790,0.85294616,0.05052124,0.6357383,-0.1246892,0.5576272,0.277401
631,1778428750800,0.8979449075,0.035002044,0.6628892625,-0.1919014875,0.646200025,0.2741940575
632,1778428750810,0.9381103,0.030377788,0.7407986055555555,-0.2249445,0.6553627,0.25907558
633,1778428750820,0.95258605,0.02244033325,0.783948175,-0.2299839925,0.5559473625,0.2540361124999999
634,1778428750830,0.9607369377777776,0.0078866385555555,0.8129946133333333,-0.2152303377777777,0.4801853255555556,0.2514060722222222
635,1778428750840,0.96301347,-0.009756667,0.82437736,-0.19615832,0.42751673,0.26335153
636,1778428750850,0.96301347,-0.009756667,0.82437736,-0.19615832,0.42751673,0.26335153
637,1778428750860,0.9647751255555556,-0.0204483476666666,0.8270367366666667,-0.1870634866666666,0.3703685744444444,0.2965408944444444
638,1778428750870,0.9758191825,-0.040459678,0.8597147974999999,-0.19840128125,0.22708248,0.383993845
639,1778428750880,0.98203903,-0.04613074,0.8829479,-0.2133384,0.18317783,0.39773792
640,1778428750890,0.98203903,-0.04613074,0.8829479,-0.2133384,0.18317783,0.39773792
641,1778428750900,0.9936936575,-0.05015536525,0.901142525,-0.235023485,0.10817723425,0.3423035375
642,1778428750910,1.0023146,-0.052960407,0.9122484,-0.25487602,0.033443887,0.28839627
643,1778428750920,1.0100115222222223,-0.0572153984444444,0.9093722,-0.2442201277777777,-0.004971618,0.2551390277777778
644,1778428750930,1.0170106,-0.0739448604999999,0.86245121,-0.21271801625,-0.12629267025,0.15431529125
645,1778428750940,1.0142665,-0.08640748,0.82876784,-0.19554748,-0.17546588,0.09659022
646,1778428750950,1.010325725,-0.0880844074999999,0.82437734625,-0.18271968675,-0.1725643537499999,0.071240059625
647,1778428750960,0.9988693,-0.09299323,0.81193763,-0.122856654,-0.14309096,-0.03840702
648,1778428750970,1.0088698333333337,-0.1049180477777777,0.8219111144444445,-0.0767716251111111,-0.05614704,-0.0868675688888888
649,1778428750980,1.0174373875,-0.1116223687499999,0.8439326500000001,-0.0264955018749999,0.0310291375,-0.11812259
650,1778428750990,1.0382923,-0.094083235,0.932684,0.150726565,0.223417385,-0.17172443125
651,1778428751000,1.0328041,-0.06808324,0.9522812,0.22715883,0.23571068,-0.16370706
652,1778428751010,1.0328041,-0.06808324,0.9522812,0.2271588299999999,0.23571068,-0.16370706
653,1778428751020,1.0328041,-0.06808324,0.9522812,0.22715883,0.23571068,-0.16370706
654,1778428751030,0.9788680525,0.055826425,0.8703937500000001,0.2529671275,0.2873272825,-0.009544488625
655,1778428751040,0.97642887,0.06198532,0.859044,0.24304086,0.29618457,0.0061848285
656,1778428751050,0.988418915,0.042952198125,0.841809775,0.21570544375,0.3036674474999999,0.015576605125
657,1778428751060,1.0257305,-0.020245085,0.7894973,0.13308835,0.31939676,0.04161397
658,1778428751070,1.0257305,-0.020245085,0.7894973,0.13308835,0.31939676,0.04161397
659,1778428751080,0.9508290875,-0.031175601,0.79181449875,0.199441635,-0.0028060804999999,0.03069507575
660,1778428751090,0.87977695,-0.018293751,0.79193646,0.23754323,-0.2170035,0.03978143
661,1778428751100,0.87977695,-0.018293751,0.79193646,0.23754323,-0.2170035,0.03978143
662,1778428751110,0.904514152222222,-0.0335995214444444,0.7260383177777778,0.0861888526666666,-0.2821605333333333,0.0400529162222222
663,1778428751120,0.93883526,-0.04320374,0.66869754,-0.023288552,-0.3361187,0.026342789
664,1778428751130,0.93984523125,-0.0407607621249999,0.6626872850000001,-0.031840413625,-0.3502445425,0.017409147875
665,1778428751140,0.945336301111111,-0.0030083059444444,0.5850612311111111,-0.0714097394888888,-0.4770886755555555,-0.1312048977777777
666,1778428751150,0.9215172,0.019269416,0.54423904,-0.0019088977,-0.46195325,-0.2522799
667,1778428751160,0.9215172,0.019269416,0.54423904,0.0101723042666666,-0.4523833077777778,-0.2649040777777778
668,1778428751170,0.7918068325000001,-0.0198868315,0.397728985,0.1475959725,-0.196081975,-0.42881477
669,1778428751180,0.75629413,-0.042959824,0.3536182,0.15630054,-0.04352287,-0.44897273
670,1778428751190,0.75629413,-0.042959824,0.3536182,0.15630054,-0.04352287,-0.44897273
671,1778428751200,0.7623386825,-0.0421670945,0.368077885,0.1733279099999999,0.1208141325,-0.4466056949999999
672,1778428751210,0.781630955,-0.03447609625,0.4139570875,0.27549212125,0.73347484875,-0.42530239
673,1778428751220,0.7851068,-0.018537667,0.42145753,0.36154523,0.80135524,-0.41354358
674,1778428751230,0.7825456749999999,0.06150511275,0.3816305075,0.482798385,0.7010236,-0.3907895175
675,1778428751240,0.7829115566666667,0.09722112,0.3653261866666667,0.5232839666666667,0.6045945777777778,-0.3745851033333334
676,1778428751250,0.7811736575,0.103024305,0.3698424675,0.5005892949999999,0.51082103375,-0.38651359375
677,1778428751260,0.78501531625,0.09121339875,0.39359003,0.3882697775,0.39346200375,-0.40819866875
678,1778428751270,0.79461956,0.08540133,0.39755368,0.2717507,0.27908084,-0.41781953
679,1778428751280,0.8181981588888889,0.0599797888888888,0.3534318644444444,0.18623206,0.2063221466666666,-0.4286790322222222
680,1778428751290,0.8324380250000001,0.040368209125,0.3255982625,0.167143085,0.217385265,-0.4286620725
681,1778428751300,0.838555,0.030763991,0.3272752,0.190508,0.25220355,-0.41537613
682,1778428751310,0.8242783,0.017996477,0.37551735,0.285494735,0.28870168625,-0.3954472375
683,1778428751320,0.8001483277777778,0.0497894897777777,0.4259869444444444,0.44828552,0.32428354,-0.35490227
684,1778428751330,0.794305942857143,0.0808757999999999,0.4406833857142857,0.6004737642857142,0.21904328,-0.2408483457142857
685,1778428751340,0.8168159888888888,0.1137803466666666,0.4013208422222222,0.5931242222222222,0.0405619544444444,-0.16565838
686,1778428751350,0.8253531,0.12665373,0.38194302,0.518533,-0.10155336,-0.093383275
687,1778428751360,0.8621675333333333,0.0959913711111111,0.33634754,0.3542829266666667,-0.1933840577777777,-0.0117333576111111
688,1778428751370,0.90371125,0.080416275,0.253810545,0.168517485,-0.1430909699999999,-0.00725381075
689,1778428751380,0.9024611975,0.09527995,0.207226275,0.095215815,-0.0344937837499999,-0.0292443115
690,1778428751390,0.87743942,0.1053516746666666,0.1726218566666666,0.0299909048888888,0.1224324538888888,-0.0544247922222222
691,1778428751400,0.85758054,0.110555224,0.14644147,-0.025121093,0.22410458,-0.07200362
692,1778428751410,0.87856879,0.1078111675,0.1404769475,-0.143644546625,0.36902809125,-0.1116323375
693,1778428751420,0.9012721111111112,0.12424844,0.1829544466666667,-0.2387903744444444,0.4535795455555556,-0.1548243322222222
694,1778428751430,0.9280153025,0.16278388375,0.26313273375,-0.281753305,0.37078428375,-0.18615570625
695,1778428751440,0.95295195,0.189370805,0.324287215,-0.30679803125,0.0997876224999999,-0.20516832
696,1778428751450,0.9726075433333332,0.1936800033333333,0.3377636333333333,-0.3389693111111111,-0.2440843855555555,-0.2336151377777778
697,1778428751460,0.9800877125,0.18180939,0.3203159674999999,-0.36719556875,-0.4710395775,-0.2654131425
698,1778428751470,0.97369162,0.1678790377777778,0.2925543488888888,-0.4066376333333333,-0.6067240155555556,-0.3045413088888888
699,1778428751480,0.9467244125,0.1589421975,0.244541715,-0.4203392837499999,-0.61871190875,-0.33245363375
700,1778428751490,0.90462595625,0.153911415,0.1663816612499999,-0.4414898575,-0.4433223875,-0.37032614
701,1778428751500,0.8845130333333333,0.1579055566666666,0.1407399266666666,-0.4712517,-0.2573872699999999,-0.3623002888888889
702,1778428751510,0.8769719324999999,0.1500316175,0.1276903825,-0.5022691675,-0.0239566659999999,-0.329093975
703,1778428751520,0.8844151325,0.1376909475,0.1283611525,-0.5199837375,0.1294232595,-0.292137705
704,1778428751530,0.9073158255555556,0.1369558222222222,0.1409397944444444,-0.5205266922222223,0.2064578799999999,-0.2557413955555556
705,1778428751540,0.94005483,0.15497856,0.17327231,-0.49554983,0.2656422,-0.1808108
706,1778428751550,0.9747253,0.1774189,0.20592665125,-0.46928340875,0.1146006774999999,-0.0768140465
707,1778428751560,1.0154860666666667,0.19750137,0.21167902,-0.4503471366666666,-0.2797171366666666,0.0399850436666666
708,1778428751570,1.040609425,0.1936088625,0.2016238062499999,-0.44668207,-0.49310645,0.075821415
709,1778428751580,1.04951245,0.1657718749999999,0.17876044,-0.41262731875,-0.83395923875,0.08170082125
710,1778428751590,1.0322892444444445,0.13868357,0.1345844233333333,-0.4009364,-0.9442510666666666,0.0624506427222222
711,1778428751600,0.99437205,0.11189677,0.069424785,-0.4399627299999999,-0.92833512,-0.00969720075
712,1778428751610,0.9694468125,0.11278096875,0.066497781875,-0.43400697,-0.829988725,-0.03092414275
713,1778428751620,0.943988,0.11079915,0.076864235,-0.4033119,-0.6641437,-0.037796173
714,1778428751630,0.9361623666666667,0.1033190366666666,0.0970483383333333,-0.3723623133333333,-0.5981721933333333,-0.0133622834
715,1778428751640,0.93523745625,0.1049146512499999,0.08150247,-0.3761292025,-0.5903075375,0.0449736294249999
716,1778428751650,0.9417775,0.140206355,0.031236578,-0.47111595,-0.7047650000000001,0.118580727
717,1778428751660,0.95197628375,0.16153381625,0.01585458275,-0.52105271,-0.79181075,0.159507495
718,1778428751670,0.9886349133333334,0.16180822,0.0016261109999999,-0.5210017933333333,-0.8757004466666667,0.18231246
719,1778428751680,1.0089003375,0.13877715875,-0.024677507,-0.481347625,-0.892295105,0.1773747725
720,1778428751690,1.0101199,0.12153149,-0.032471407,-0.458899,-0.8675558,0.16867019
721,1778428751700,1.010302825,0.1061647325,-0.036861907,-0.4382829099999999,-0.8295305749999999,0.1576749425
722,1778428751710,1.018467277777778,0.0921124198888889,-0.0620429161111111,-0.4029725444444444,-0.7658158111111111,0.1378563444444444
723,1778428751720,1.0430486,0.069790654,-0.11567748,-0.2793099,-0.5493044,0.0782648
724,1778428751730,1.0467074,0.053936075,-0.13080032,-0.1340046255,-0.38834614,0.00526855725
725,1778428751740,1.0396337777777778,0.0518763328888888,-0.1521870577777777,-0.050165832,-0.3617743,-0.05428905
726,1778428751750,1.0259744,0.068571076,-0.16693048,0.0115297428,-0.40132665,-0.0933069175
727,1778428751760,1.0093882,0.10104248,-0.15961297,0.080402775,-0.407969615,-0.088038365
728,1778428751770,1.0252427,0.09201756,-0.12811723,0.1135412299999999,-0.3721587,-0.08483142
729,1778428751780,1.042408375,0.0852869875,-0.10299381125,0.15507884125,-0.29687176125,-0.09888090125
730,1778428751790,1.055217422222222,0.0738288384444444,-0.0925053966666666,0.1883360833333333,-0.1849679377777777,-0.1125231533333333
731,1778428751800,1.0395729125,0.0717115025,-0.089334481,0.21967593625,-0.07124006075,-0.11606098
732,1778428751810,1.0248769,0.06515624625,-0.0950055445,0.2528144,0.025502874,-0.09521582
733,1778428751820,1.0046851875,0.0615584722499999,-0.1101283775,0.258082975,0.13881504875,-0.0559688809624999
734,1778428751830,0.9914162555555556,0.061280673,-0.1137532544444444,0.2179961166666666,0.24263362,0.0135149962
735,1778428751840,0.99271035375,0.057838741125,-0.09731894,0.1789018925,0.26411508,0.054441764125
736,1778428751850,0.9989378475,0.0575948205,-0.0743031175,0.1366007225,0.22868594,0.11354123625
737,1778428751860,1.0086564,0.05174082,-0.06808324,0.11231954,0.19295138,0.14973393
738,1778428751870,1.013992075,0.049911445625,-0.06759540625,0.10880716825,0.1780619775,0.1588966387499999
739,1778428751880,1.0581867,0.0366179905,-0.074059197,0.072079977,0.0369276238749999,0.23265644625
740,1778428751890,1.0650316,0.036130156,-0.083937824,0.051845662,-0.024586603,0.24869119
741,1778428751900,1.0650316,0.036130156,-0.083937824,0.051845662,-0.024586603,0.24869119
742,1778428751910,1.0776543125,0.0532653031249999,-0.086369367375,-0.03535278525,-0.1446180866249999,0.23693238375
743,1778428751920,1.0811301,0.057594825,-0.078327745,-0.088649206,-0.19684553,0.22792238
744,1778428751930,1.0811301,0.057594825,-0.078327745,-0.088649206,-0.19684553,0.22792238
745,1778428751940,1.0811301,0.057594825,-0.078327745,-0.088649206,-0.19684553,0.22792238
746,1778428751950,1.0682902375,0.044484300875,-0.057015522375,-0.2552482495,-0.38353573375,0.133011985
747,1778428751960,1.0491467,0.032715324,-0.06320491,-0.28602922,-0.43507597,0.1002553
748,1778428751970,1.0491467,0.032715324,-0.06320491,-0.28602922,-0.43507597,0.1002553
749,1778428751980,1.0363409875,0.0104922286125,-0.10527672125,-0.2897706762499999,-0.46981790625,0.08528955375
750,1778428751990,1.025893222222222,0.0049867409111111,-0.1457842488888888,-0.2950561944444444,-0.4638536511111111,0.0717491033333333
751,1778428752000,1.0115834,0.0041465834,-0.18473639,-0.29641363,-0.46073154,0.06849125
752,1778428752010,0.9850918125,0.010335968175,-0.17918728875,-0.31374642,-0.30878328,0.0571905734999999
753,1778428752020,0.9736238375,0.03002842925,-0.1668694975,-0.3064926125,-0.26884915,0.0516929495
754,1778428752030,0.9725262,0.032715324,-0.16522306,-0.30191126,-0.2493784,0.048944138
755,1778428752040,0.9725262,0.032715324,-0.16522306,-0.30191126,-0.2493784,0.048944138
756,1778428752050,0.969003008888889,0.0543426016666666,-0.1350824077777777,-0.2171477177777777,-0.3984251388888889,0.0678125255555555
757,1778428752060,0.96716005,0.05271649,-0.13372731,-0.1918824,-0.486998,0.0782648
758,1778428752070,0.95167135625,0.033508052375,-0.1618349,-0.18302511375,-0.732558575,0.10376767575
759,1778428752080,0.9502993325,0.03241042725,-0.1740040625,-0.18943901,-0.794865,0.11613733
760,1778428752090,0.96203786,0.050765157,-0.17741889,-0.18943901,-0.794865,0.11613733
761,1778428752100,0.9855927066666668,0.0834533774444444,-0.1469801177777777,-0.2197777511111111,-0.5860910033333333,0.1496660655555555
762,1778428752110,1.0109910285714288,0.1118793457142857,-0.0894346657142857,-0.2655222114285714,-0.3691917242857143,0.1824579
763,1778428752120,1.0162178,0.1168970599999999,-0.04759424,-0.2817533,-0.32390177,0.1918824
764,1778428752130,1.01231515,0.108359977,-0.0341635785,-0.28633465,-0.330010235,0.202266805
765,1778428752140,0.9836380666666664,0.0762951012222222,-0.0295173037777777,-0.2522884,-0.4437635777777778,0.2406144355555555
766,1778428752150,0.9574034,0.030763991,-0.06271707,-0.1698919,-0.5822902,0.26762745
767,1778428752160,0.9574034,0.030763991,-0.06271707,-0.1698919,-0.5822902,0.26762745
768,1778428752170,0.98595305,0.022977713375,-0.0698516325,-0.0368799075,-0.56472832,0.2609081325
769,1778428752180,1.0335358,0.010000584,-0.08174257,0.22349374,-0.46439663,0.23708509
770,1778428752190,1.0266364428571428,0.0484958597142857,-0.0366746114285714,0.2488875357142857,-0.2706707844285714,0.2535779628571428
771,1778428752200,1.0009615625,0.10101199125,0.044007904375,0.31733515,0.002061609375,0.2918322625
772,1778428752210,0.973502,0.10299382,0.078327745,0.37498385,0.02611372,0.3189386
773,1778428752220,0.9298476555555556,0.0825996742222222,0.0722637038888888,0.5075377277777778,-0.0780696772222222,0.36380195
774,1778428752230,0.8355327512499999,0.02993696,0.036095854375,0.7213343,-0.2506001,0.437443
775,1778428752240,0.79218036,-0.01683025,-0.01536675,0.89771640625,-0.39972317375,0.510133835
776,1778428752250,0.8323656322222222,-0.0432714948888888,-0.0560195297777777,1.0606938333333331,-0.4736272088888889,0.5566260955555555
777,1778428752260,0.94689974,-0.0530823654999999,-0.105189068,1.2027582625,-0.46172418,0.5558710087500001
778,1778428752270,1.0110802975,-0.0224632015,-0.103839905,1.1677109,-0.1245937575,0.4154524925
779,1778428752280,1.0645438,0.028050419,-0.08003516,1.1122766,0.18928629,0.30366746
780,1778428752290,1.1081370888888888,0.0850049576666666,0.0534685674222222,1.0794264555555555,0.6481683444444444,0.1289651353333333
781,1778428752300,1.114238,0.0990263505,0.14278653375,1.134419725,0.8296069374999999,0.0064902527499999
782,1778428752310,1.0723415,0.054843139,0.17949218,1.247121025,0.66628163875,-0.062917266875
783,1778428752320,1.0288100666666666,0.0065044446666666,0.1400894766666666,1.2877253888888889,0.4727194,-0.0762116788888888
784,1778428752330,0.9743442475,-0.015122833875,0.11342125,1.3211863,-0.09937723,-0.067116845
785,1778428752340,0.9288957125,-0.01225681275,0.09718555,1.390288375,-0.672695575,-0.10623970125
786,1778428752350,0.8952013066666668,0.0117622037777777,0.0090723444444444,1.480685277777778,-1.2125488111111111,-0.1827790766666666
787,1778428752360,0.92969605,0.022386978,-0.12037288,1.29873765,-1.088987925,-0.1563578075
788,1778428752370,0.9937572,0.0505212433333333,-0.0727278243333333,0.9755145666666666,-0.4059588722222222,-0.1565211311111111
789,1778428752380,1.013290822222222,0.0898257055555555,0.0191948876666666,0.7268318666666667,0.0618991872222222,-0.19289199
790,1778428752390,1.0283526125,0.1249158274999999,0.086175001,0.4542412875,0.42102648,-0.1983726475
791,1778428752400,1.0310966444444445,0.1264098077777777,0.1210199375555555,0.3278807411111111,0.5352973533333333,-0.1822954855555555
792,1778428752410,0.9994409175,0.0806678185,0.15339309,0.1862320515,0.4039991075,-0.130492245
793,1778428752420,0.9403139775,0.032219868,0.1534464425,0.07704311175,0.1161182475,-0.05856498275
794,1778428752430,0.8595318333333333,-0.00512225,0.1378738899999999,-0.0072029063333333,-0.23329275,0.045686286
795,1778428752440,0.8433113875,-0.012256812375,0.11537258,-0.075821415625,-0.38910970125,0.08857285375
796,1778428752450,0.8585562,-0.007073583,0.09006623,-0.13996038,-0.41125292,0.08742751
797,1778428752460,0.9429107133333334,0.0701260453333333,0.08150882,-0.3288479155555556,-0.1586166688888889,-0.0050140384444444
798,1778428752470,0.9965940125,0.140476955,0.15091582125,-0.5314371075,0.19738002,-0.1260826925
799,1778428752480,1.0210962125,0.17104657125,0.2413974687499999,-0.6795675649999999,0.4484382375,-0.208298915
800,1778428752490,1.0140971555555556,0.1619369577777777,0.2987674111111111,-0.73941365,0.4797102166666667,-0.2318504711111111
801,1778428752500,0.958824975,0.128879476,0.3727770675,-0.77111832125,0.3997231687499999,-0.2222720425
802,1778428752510,0.90363885,0.10909173625,0.4099019675,-0.728053595,0.161464102875,-0.1098475146249999
803,1778428752520,0.8722968222222223,0.0923936077777777,0.4271218155555555,-0.6835550577777778,-0.0168492046666666,-0.0047425491111111
804,1778428752530,0.871331325,0.057167971125,0.3896454525,-0.614512345,-0.2811424525,0.1749313825
805,1778428752540,0.9004641325,0.037586034,0.3125639775,-0.585878895,-0.4233171424999999,0.2790808299999999
806,1778428752550,0.9524708788888888,0.0215459723333333,0.2234344411111111,-0.5818829244444444,-0.4092167611111111,0.3227394533333333
807,1778428752560,0.9745995,0.009939603625,0.196082325,-0.590307535,-0.2854851842499999,0.28343311875
808,1778428752570,0.9993571,-0.019513333,0.21062206,-0.6036698,0.090329036,0.13751699
809,1778428752580,0.980819425,-0.00756141717,0.310185775,-0.531666175,0.28572380625,0.001603475
810,1778428752590,0.963304802222222,-0.0008130555755555,0.3610237644444444,-0.4472250133333333,0.3647351922222222,-0.0808269688888888
811,1778428752600,0.92535886125,-0.00679917725,0.3981634625,-0.271197095,0.36627929,-0.117664455
812,1778428752610,0.903955205,-0.017501021,0.414757425,-0.1622562960625,0.3474957425,-0.11346487825
813,1778428752620,0.89371073,-0.025367333,0.4297812,-0.0061848285,0.30901235,-0.074447006
814,1778428752630,0.90355881875,-0.030394304125,0.4541423424999999,0.1145338564375,0.20913882875,0.00320694825
815,1778428752640,0.9343126444444444,-0.0160713985555555,0.4665854966666666,0.1831778144444444,0.1358032255555555,0.0420890727777777
816,1778428752650,0.970331,-0.017805915,0.44490403,0.24670593,0.06956023,0.036116343
817,1778428752660,0.970331,-0.017805915,0.44490403,0.24670593,0.06956023,0.036116343
818,1778428752670,0.970331,-0.017805915,0.44490403,0.2467059299999999,0.06956023,0.036116343
819,1778428752680,1.0244423875000002,-0.0272462533374999,0.39841501,0.23670331625,0.19318044875,-0.0706292105
820,1778428752690,1.0506101,-0.0017074167,0.39145577,0.20639002,0.31634253,-0.12759072
821,1778428752700,1.0690698333333333,0.0246118695555555,0.4284836888888889,0.1641058133333333,0.3680609233333333,-0.1333598399999999
822,1778428752710,1.0980823000000002,0.0267317425,0.50688935,0.12789615,0.3113030325,-0.1329356375
823,1778428752720,1.0988445625,0.007530927,0.5250306499999999,0.10613471375,0.24174280375,-0.141649755
824,1778428752730,1.086801175,-0.0115250629999999,0.51237745,0.0718509135,0.19249324,-0.1569877375
825,1778428752740,1.0697710777777776,-0.0110846574444444,0.5084883166666667,0.060397524,0.18745375,-0.1643179
826,1778428752750,1.03359685,-0.0029879794999999,0.5174997375,0.033520243,0.205473755,-0.1511465149999999
827,1778428752760,1.0045099,0.006341833,0.5412816,0.01885991,0.22043951,-0.13797513
828,1778428752770,0.9969598375,0.0220211016249999,0.57109657,-0.0083991500625,0.23914670375,-0.10109521875
829,1778428752780,1.0077417375,0.035764281625,0.59238592625,-0.0684912501874999,0.29404659,-0.0625354892499999
830,1778428752790,1.0260558666666668,0.0512800912222222,0.6195584944444444,-0.11186141,0.32550523,-0.039017867
831,1778428752800,1.045670775,0.059119301,0.6623938225,-0.14866495375,0.2846548275,-0.0032069477375
832,1778428752810,1.041371725,0.057808253,0.6868693475,-0.16553961,0.16172181875,0.023059485375
833,1778428752820,1.0172681222222222,0.0507922583333333,0.6813541111111111,-0.1901855988888889,0.0675071108888888,0.0435822565555555
834,1778428752830,0.99008827,0.042715907,0.6746734999999999,-0.21085684,0.051807482,0.074294296
835,1778428752840,0.98228294,0.040520657,0.6723563,-0.21822518,0.06467345,0.08742751
836,1778428752850,0.98228294,0.040520657,0.6723563,-0.21822518,0.06467345,0.08742751
837,1778428752860,0.9590837922222224,0.0469979986666666,0.7138526511111111,-0.2773416355555556,0.1205320413333333,0.1581500533333333
838,1778428752870,0.9442852725,0.0474722815,0.7292803449999999,-0.290916,0.0884965,0.19615832
839,1778428752880,0.9356643,0.033934906,0.7162918,-0.290916,0.0884965,0.19615832
840,1778428752890,0.9356643,0.033934906,0.7162918,-0.290916,0.0884965,0.19615832
841,1778428752900,0.93951364,0.0131257655,0.670039095,-0.2556395775,0.04296928975,0.2772483125
842,1778428752910,0.9456954,-0.009756667,0.61305404,-0.23593976,0.08483142,0.32199287
843,1778428752920,0.9478635522222222,-0.0104884168888888,0.6134334688888888,-0.2330891388888888,0.1090616955555555,0.3209069177777777
844,1778428752930,0.9694773125,-0.0204356429999999,0.6214082249999999,-0.2066858975,0.3054999975,0.3097759125
845,1778428752940,0.9880556266666668,-0.0345853516666666,0.6427306333333332,-0.16907743,0.3157316733333333,0.28819265
846,1778428752950,0.9980765075,-0.0367399485,0.6547028500000001,-0.1367534315,0.29511559,0.28289863
847,1778428752960,0.99380793875,-0.03069919925,0.6510440875,-0.112930389,0.28114244875,0.29656633
848,1778428752970,0.9959423,-0.021708583,0.6472024,-0.10330954,0.28274593,0.31527355
849,1778428752980,0.9959423,-0.021708583,0.6472024,-0.10330954,0.28274593,0.31527355
850,1778428752990,1.0484520777777775,-0.0184563621111111,0.6337598533333333,-0.1502769088888889,0.2680855833333333,0.3190743633333333
851,1778428753000,1.0648487,-0.030645843875,0.62540231125,-0.1893721875,0.22967856375,0.2887780474999999
852,1778428753010,1.0772275,-0.052228656,0.6042731,-0.24021569,0.18745375,0.23158747
853,1778428753020,1.09146615,-0.0591497945,0.57900104,-0.30137677875,0.13186665125,0.1314085224999999
854,1778428753030,1.0997898000000002,-0.0632658874999999,0.55631297,-0.331690065,0.073673906625,0.031458633125
855,1778428753040,1.0935699,-0.05905832,0.5508248,-0.31779328,0.021226943,-0.06100837
856,1778428753050,1.0935699,-0.05905832,0.5508248,-0.31779328,0.021226943,-0.06100837
857,1778428753060,1.0519211666666668,-0.077128484,0.5338929333333333,-0.2666857355555556,-0.0491562343333333,-0.1771287322222222
858,1778428753070,1.0310968,-0.086163566,0.525427,-0.2493784,-0.07345438,-0.21685077
859,1778428753080,1.0310968,-0.086163566,0.525427,-0.2493784,-0.07345438,-0.21685077
860,1778428753090,1.01260865875,-0.09582876325,0.52976033375,-0.2502183125,-0.08192988625,-0.23815407125
861,1778428753100,0.9533381333333334,-0.1126149722222222,0.54153906,-0.2563692,-0.0534151973333333,-0.3025730199999999
862,1778428753110,0.9635013,-0.09323715,0.55253226,-0.2585411,0.096437514,-0.3164189
863,1778428753120,0.9504314333333332,-0.0479702786666666,0.5321279422222223,-0.0934087272222222,0.0188005221111111,-0.3931141422222222
864,1778428753130,0.9187121,-0.03025328975,0.480660655,0.052761931875,-0.13850961875,-0.4080459575
865,1778428753140,0.9205415,-0.042715907,0.43124464,0.17462596,-0.17913096,-0.41659784
866,1778428753150,0.9215171222222222,-0.0434137803333333,0.4126798888888888,0.2788772188888889,-0.0998565582222222,-0.4248782044444444
867,1778428753160,0.9324019075,-0.019696271375,0.4295410375,0.3683408925,0.0380347885,-0.42637137375
868,1778428753170,0.93859136,0.025123417,0.4434405,0.4244625,0.12575819,-0.42209545
869,1778428753180,0.9476095311111112,0.0567207905555555,0.4453105388888889,0.4979677611111112,0.2270230911111111,-0.4238601166666667
870,1778428753190,0.952368775,0.0961031685,0.44737365875,0.61955183125,0.27885177875,-0.40735876875
871,1778428753200,0.9342008,0.1144579,0.43392777,0.6871268,0.24181916,-0.38177955
872,1778428753210,0.9003192625,0.1080855739999999,0.38818956875,0.76058120875,0.192035115,-0.3335989625
873,1778428753220,0.8820297622222222,0.096624877,0.3339930622222222,0.7747494644444444,0.1906437377777778,-0.2746013011111111
874,1778428753230,0.89029586,0.094456725,0.29992604,0.7378271,0.250371,-0.14041851
875,1778428753240,0.9389233177777778,0.0843477405555555,0.29423466,0.6525799888888888,0.178274076,-0.057071798
876,1778428753250,0.973136075,0.08675049125,0.2674165125,0.5296809325,0.01007898075,-0.0162638085
877,1778428753260,0.973502,0.11201873,0.24452646,0.48432553,-0.050853033,-0.004810422
878,1778428753270,0.9727430666666668,0.1430503533333333,0.2113504077777778,0.4820178788888889,-0.0546538611111111,-0.0054212693555555
879,1778428753280,0.9871613,0.15888122,0.15936905,0.4892123,-0.029473381,-0.035963632
880,1778428753290,1.011876925,0.16238752,0.1280981725,0.4879906,0.0304278275,-0.070781926
881,1778428753300,1.0339153666666665,0.1599381888888889,0.0916923435555555,0.5010220277777777,0.2965239168888888,-0.1607716066666666
882,1778428753310,1.027621,0.1441776275,0.1032987079999999,0.501581955,0.3722350525,-0.2202104399999999
883,1778428753320,1.01646175,0.1294892675,0.12089119375,0.4607315625,0.2075258075,-0.267932895
884,1778428753330,1.0003869666666667,0.1190110111111111,0.1284695599999999,0.3700970888888888,-0.1144490211111111,-0.2606281677777777
885,1778428753340,0.996742625,0.09871765,0.10097387825,0.2855711025,-0.347495735,-0.1998138699999999
886,1778428753350,1.0034799555555556,0.0655085583333333,0.0492711666666666,0.1612551944444444,-0.4961606822222222,-0.1198533222222222
887,1778428753360,0.998282385,0.028744056325,-0.020862498,0.04756973425,-0.502269185,-0.09307785
888,1778428753370,0.96642834,0.0036587503,-0.04905774,-0.016569233,-0.50593424,-0.09582666
889,1778428753380,0.927344505,0.0064333024125,-0.07680326375,-0.103004117875,-0.5225034975,-0.09704835625
890,1778428753390,0.9217611,0.006829667,-0.08076691,-0.16072918,-0.49738237,-0.08238802
891,1778428753400,0.919596405,-0.014970385375,-0.11985455275,-0.18959171125,-0.44660570875,-0.10056072875
892,1778428753410,0.95266741,-0.015258343,-0.1367085146666666,-0.2095460633333333,-0.2753733511111111,-0.1901092444444444
893,1778428753420,0.9985109725,-0.0039026667499999,-0.13665431,-0.2244863725,-0.213185695,-0.2841966875
894,1778428753430,1.0129927333333333,0.0174264913333333,-0.1132315422222222,-0.2312565933333333,-0.2493783933333333,-0.3485901666666666
895,1778428753440,1.012071175,0.0222573965,-0.072168841,-0.21042733375,-0.3209238725,-0.38307758125
896,1778428753450,1.0149982,0.020245085,-0.041252404,-0.15584241,-0.4369085,-0.42209545
897,1778428753460,0.97551048,0.017226615125,-0.077542633,-0.08147175325,-0.55999421,-0.46592374
898,1778428753470,0.9116995744444444,0.0173722867777777,-0.0993621653333333,-0.0251210919999999,-0.58738055,-0.44245702
899,1778428753480,0.8492530425,0.01960861325,-0.0975056885,0.03336753375,-0.60672405125,-0.3823903725
900,1778428753490,0.8102911899999999,0.0375936565,-0.132023705,0.1461452175,-0.6563553950000001,-0.24624780875
901,1778428753500,0.8260848,0.06320491,-0.17644322,0.2247154399999999,-0.67452806,-0.16126367
902,1778428753510,0.8659308375,0.0795816293749999,-0.204428845,0.286716435,-0.660707645,-0.123477045
903,1778428753520,0.8884435749999999,0.10360360525,-0.209951275,0.3473430225,-0.598783025,-0.0961320874999999
904,1778428753530,0.9067195666666668,0.1072217073333333,-0.1932124833333333,0.3990105133333333,-0.52100181,-0.0813699433333333
905,1778428753540,0.9260296375,0.0999753475,-0.168512115,0.44584214375,-0.4511107012499999,-0.0856713275
906,1778428753550,0.9208126,0.1290386944444444,-0.1076824388888889,0.5355688055555556,-0.3515935,-0.0997632377777777
907,1778428753560,0.90950429,0.13781292,-0.0971321925,0.5745781975,-0.25823568625,-0.002748808125
908,1778428753570,0.90346736,0.13909347,-0.08540133,0.61504686,-0.14064758,0.13201937
909,1778428753580,0.90346736,0.13909347,-0.08540133,0.61504686,-0.14064758,0.13201937
910,1778428753590,0.96111171625,0.08434562,-0.12629548,0.6276455725,-0.22196661125,0.23815407625
911,1778428753600,0.9326323333333334,0.0559416091111111,-0.2075019422222222,0.5809072555555556,-0.4177007577777777,0.3768333733333333
912,1778428753610,0.9265861225,0.043504825125,-0.2298304749999999,0.5000548375,-0.4353814,0.420186565
913,1778428753620,1.0080365333333332,-0.0127683603333333,-0.2536597833333333,0.3827891222222221,-0.3568196466666666,0.4436193311111111
914,1778428753630,1.065519475,-0.04192317775,-0.250288985,0.2454078995,-0.226242548,0.421942745
915,1778428753640,1.0893014,-0.030638220125,-0.200587155,0.06833853951125,-0.067422265375,0.36139250875
916,1778428753650,1.0589908875,0.014394894625,-0.14793164,-7.635591e-05,-0.059404895,0.30794337
917,1778428753660,1.0105162833333334,0.0567817679999999,-0.0809498456666666,-0.037541654,-0.15367899,0.26436961
918,1778428753670,0.99130785,0.07320549,-0.059302237,-0.046500746,-0.24204823,0.24563695
919,1778428753680,0.986158502222222,0.0779212122222222,-0.0733748741111111,-0.0906853666666666,-0.3131780033333333,0.1901177322222222
920,1778428753690,0.9932934525,0.06671120875,-0.11284576525,-0.143320035,-0.30779065875,0.0985754790625
921,1778428753700,1.0022333,0.0486512133333333,-0.1829578266666666,-0.2001033866666667,-0.1823209396666666,-0.0004666188888888
922,1778428753710,1.0019067874999998,0.03933156375,-0.20833532125,-0.2891598125,0.0563792906249999,-0.10845402375
923,1778428753720,0.998564375,0.032406613375,-0.20497765625,-0.3446705625,0.1903552725,-0.1562241925
924,1778428753730,0.9775638444444444,0.0103258057777777,-0.1894250066666666,-0.4045336,0.32611609,-0.19363858
925,1778428753740,0.9333166,-0.02094634425,-0.17744937375,-0.42102647,0.44828552,-0.23578705
926,1778428753750,0.9115979555555556,0.0147976117777777,-0.1868503366666666,-0.3756201533333334,0.4678326466666667,-0.2516690533333333
927,1778428753760,0.8963937925,0.008415125325,-0.1925493525,-0.31993124625,0.46218232,-0.25044736
928,1778428753770,0.8919219466666666,-0.0094314451333333,-0.20980899,-0.2269636922222222,0.4454349155555556,-0.2512618244444444
929,1778428753780,0.8990769,-0.013659334,-0.22379355,-0.17844376,0.40552622,-0.25411245
930,1778428753790,0.91444355,0.00048783334,-0.23403804,-0.14423631,0.39636353,-0.255945
931,1778428753800,0.9288347,0.011708,-0.22379355,-0.13140851,0.4207974,-0.255945
932,1778428753810,0.95775788875,0.03688096325,-0.1677575025,-0.192817755,0.392393,-0.2434226287499999
933,1778428753820,0.9910368288888888,0.0580013534444444,-0.1134009244444444,-0.3192864733333333,0.3183786822222222,-0.2069414722222222
934,1778428753830,0.99350303,0.06369274,-0.13616648,-0.40575528,0.27419406,-0.17225893
935,1778428753840,0.99350303,0.06369274,-0.13616648,-0.40575528,0.27419406,-0.17225893
936,1778428753850,0.9637926811111112,0.0981629111111111,-0.1518178077777777,-0.4986719488888889,0.3371113222222222,-0.1569453266666666
937,1778428753860,0.946892145,0.1532101625,-0.1260439425,-0.5803049125,0.4711923125,-0.150822
938,1778428753870,0.96301347,0.17497973,-0.09201756,-0.567019,0.50142926,-0.15820944
939,1778428753880,0.9948954233333333,0.17335361,-0.0404393503333333,-0.55697395,0.4514076444444444,-0.1677115044444444
940,1778428753890,1.0274921666666663,0.1581189766666666,0.0134459066666666,-0.5474719,0.34505233,-0.18264332
941,1778428753900,1.0454879,0.13055639,0.042959824,-0.54159245125,0.18256697375,-0.20081602875
942,1778428753910,1.0522701,0.1160298077777777,0.0186020344444444,-0.5241917855555555,-0.0113261266666666,-0.2116925077777777
943,1778428753920,1.067958725,0.0904854675,-0.0267164982499999,-0.485165425,-0.18844638,-0.2084516275
944,1778428753930,1.0789349,0.07271766,-0.04320374,-0.4356868,-0.21089502,-0.19974706
945,1778428753940,1.0789349,0.07271766,-0.04320374,-0.4356868,-0.21089502,-0.19974706
946,1778428753950,1.0789349,0.07271766,-0.04320374,-0.4356868,-0.21089502,-0.19974706
947,1778428753960,1.0789349,0.07271766,-0.04320374,-0.4356868,-0.21089502,-0.19974706
948,1778428753970,1.0482623375,0.053478730375,-0.0772910975,-0.15989881875,-0.148817665,-0.1590302675
949,1778428753980,1.0432925,0.05271649,-0.073937245,-0.12224581,-0.13881505,-0.12820157
950,1778428753990,1.0432925,0.05271649,-0.073937245,-0.12224581,-0.13881505,-0.12820157
951,1778428754000,1.0077340875,0.09664817125,-0.082268518125,-0.19204464875,-0.20211409125,-0.0008399151249999
952,1778428754010,0.9949666,0.11372615,-0.094456725,-0.2518218,-0.28236416,0.091703445
953,1778428754020,0.9949666,0.11372615,-0.094456725,-0.2518218,-0.28236416,0.091703445
954,1778428754030,1.0287626,0.1123710566666666,-0.1431045616666666,-0.30292935,-0.40351553,0.2073571883333333
955,1778428754040,1.0650316,0.10909174,-0.20501198,-0.32878855,-0.49188477,0.28412032
956,1778428754050,1.0650316,0.10909174,-0.20501198,-0.32878855,-0.49188477,0.28412032
957,1778428754060,1.0656719125,0.10759774375,-0.2316903599999999,-0.3533751375,-0.5163949800000001,0.3135937012499999
958,1778428754070,1.0621046,0.090554066,-0.2303793,-0.39414918,-0.5163186,0.32199287
959,1778428754080,1.051243577777778,0.1076553331111111,-0.2065635466666666,-0.4244879322222222,-0.4757312233333333,0.3234860477777778
960,1778428754090,1.0218279,0.13714215,-0.17717497,-0.47905695,-0.42957833,0.34520507
961,1778428754100,0.9944788,0.16693048,-0.19766398,-0.54197425,-0.40636614,0.42339352
962,1778428754110,0.9970921571428571,0.17494488,-0.2105784942857143,-0.6283654785714285,-0.3631705042857143,0.5014946985714286
963,1778428754120,1.0240502444444444,0.1561676477777777,-0.1867453144444444,-0.7409746888888888,-0.3478605422222222,0.5822138044444444
964,1778428754130,1.0638121,0.11518965,-0.16668655,-0.8009735,-0.34894648,0.6042043
965,1778428754140,1.06087745,0.0818454775,-0.1500011275,-0.753021965,-0.32359633125,0.5673244025
966,1778428754150,1.01968218125,0.0353564845,-0.09938461,-0.6058077599999999,-0.3168770225,0.48569994
967,1778428754160,0.98886865,0.025123417,-0.06613191,-0.45828816,-0.370937,0.42705858
968,1778428754170,0.9717673911111112,0.0166676389999999,-0.0561313245555555,-0.2473676855555555,-0.5017261777777777,0.36040836
969,1778428754180,0.9351993625,0.0162280795,-0.0894335679999999,0.046271679375,-0.6940752175,0.2625116075
970,1778428754190,0.90297955,0.03125182,-0.13519081,0.12270394,-0.74111044,0.2352525399999999
971,1778428754200,0.84049117,0.067416281875,-0.2135071175,0.0836097185,-0.6461236725,0.28045524
972,1778428754210,0.7905949125,0.10979298625,-0.28641915875,-0.02130329875,-0.42705859125,0.43118181
973,1778428754220,0.8082077666666666,0.1046097633333333,-0.2846304366666666,-0.1035131566666666,-0.2119131033333333,0.6062404533333334
974,1778428754230,0.85962715625,0.07890704775,-0.2444311675,-0.13812783,-0.07101099,0.72270864
975,1778428754240,0.93029815,0.033447072,-0.17376013,-0.14240377,0.00167983,0.8106707
976,1778428754250,1.0730809,-0.11079915,0.022928167,-0.13629529,-0.2145601,0.8033405
977,1778428754260,1.0730809,-0.11079915,0.022928167,-0.13629529,-0.2145601,0.8033405
978,1778428754270,1.04350605,-0.16000171,0.041149504625,0.11598462425,-0.6465818625,0.46073154
979,1778428754280,1.0005767,-0.1207997299999999,-0.06710757,0.3536042,-0.6653654,0.1662268
980,1778428754290,0.8982155125,0.025809434775,-0.2704578575,0.4909684374999999,-0.3195494749999999,-0.06841488875
981,1778428754300,0.8429455,0.12299499,-0.3460568,0.448361875,0.17810969375,-0.2016273175
982,1778428754310,0.8479932911111111,0.1589591433333333,-0.1989208193333333,0.0645886133333333,0.9012627166666668,-0.1940967111111111
983,1778428754320,0.9205529475,0.149631435,0.049366444375,-0.2678565275,1.0258415925,-0.0738361607
984,1778428754330,0.97545326,0.12567806,0.16497913,-0.39842513,0.92413557,0.0031305922
985,1778428754340,0.97545326,0.12567806,0.16497913,-0.39842513,0.92413557,0.0031305922
986,1778428754350,1.10877277,-0.022600404375,0.32802598375,-0.22348419,0.5253286525,0.0735307368999999
987,1778428754360,1.1297474777777778,-0.106652562,0.3228236922222222,0.0667774855555555,0.3538078233333333,0.0408673780666666
988,1778428754370,1.1060097,-0.118604474,0.28163227,0.234489,0.3267269,-0.0023670332
989,1778428754380,1.1060097,-0.118604474,0.28163227,0.234489,0.3267269,-0.0023670332
990,1778428754390,0.9877176625,-0.0801609255,0.12233564125,0.490510325,0.3742966599999999,-0.08360972165
991,1778428754400,0.9708188,-0.07466899,0.09957898,0.5270848,0.38109234,-0.09521582
992,1778428754410,0.91081534875,0.008598062375,0.100371708125,0.55472568,0.4241570775,0.00129805
993,1778428754420,0.91047996,0.0275702055,0.131478705,0.547624575,0.4202629125,0.062000995
994,1778428754430,0.92070415,0.0299983623333333,0.1734416877777777,0.5350258333333333,0.3826533866666667,0.0950291666666666
995,1778428754440,0.9387674777777778,0.0051764535555555,0.2300947433333333,0.5093023911111111,0.2881756733333333,0.1092822715555555
996,1778428754450,0.95423245,-0.007561417,0.25748456,0.50494161,0.2427354287499999,0.09857547525
997,1778428754460,0.9817951299999998,-0.024635585,0.26968038,0.51242447,0.2192178,0.05688515
998,1778428754470,0.97160396375,-0.024707996625,0.23361500625,0.535025835,0.2610608475,-0.0200816024999999
999,1778428754480,0.93316420625,-0.01033596875,0.17973609,0.5704549975000001,0.394683685,-0.1239256349999999
1000,1778428754490,0.89346683,0.0248795,0.15497856,0.56862247,0.51608956,-0.11476293
