id,timestamp,acc_x,acc_y,acc_z,gyro_x,gyro_y,gyro_z
0,1778428959990,0.38194302,0.021220751,0.90737003,0.0513111699999999,0.15859123,0.0055739814
1,1778428960000,0.3769562822222222,0.0207871207777777,0.9388081722222223,0.0279632295555555,0.1748804833333333,0.0099177841555555
2,1778428960010,0.37633294,0.020732917,0.94273794,0.025044737,0.17691664,0.0104607595
3,1778428960020,0.39730978,-0.0160985,1.0257305,-0.025655584,0.12071869,0.020234315
4,1778428960030,0.39730978,-0.0160985,1.0257305,-0.025655584,0.12071869,0.020234315
5,1778428960040,0.39730978,-0.0160985,1.0257305,-0.025655584,0.12071869,0.020234315
6,1778428960050,0.376283405,-0.00774435425,0.96623392625,-0.05719057275,-0.168975635,-0.011147963
7,1778428960060,0.3683751575,-0.006158896,0.8675201875,-0.0522274425,-0.2587701625,-0.03657447875
8,1778428960070,0.36435053,-0.015854584,0.8336767,-0.02015796,-0.1621036,-0.04023956
9,1778428960080,0.3670336,-0.025855167,0.8097424,0.0183932897777777,-0.0469928177777777,-0.0489271662222222
10,1778428960090,0.3855983755555555,-0.0097566668888888,0.8200512,0.0517184013333333,0.1395192211111111,-0.0505560938888888
11,1778428960100,0.40316376,0.0102445,0.8463603,0.054365408,0.2911451,-0.039628714
12,1778428960110,0.41093860125,0.018415708,0.8996866124999999,0.0361927015,0.3232145624999999,-0.0199288914249999
13,1778428960120,0.41706705,0.021464668,0.9464271,0.027488127,0.303362,-0.0066429637
14,1778428960130,0.41706705,0.021464668,0.9464271,0.027488127,0.303362,-0.0066429637
15,1778428960140,0.40316376875,0.024147750375,0.9670990625,0.034283802875,0.18791188,-0.00984991205
16,1778428960150,0.3955481333333333,0.0262887978888888,0.960086511111111,0.0234158113333333,0.1101306683333333,-0.0166201356666666
17,1778428960160,0.39706585,0.024391668,0.9464271,0.012827792,0.085289545,-0.018249061
18,1778428960170,0.4007517166666667,0.0228197595555555,0.9256637622222222,-0.0021040294888888,0.0704934697777777,-0.0225928641111111
19,1778428960180,0.39889523125,0.0214036875,0.9125227875,-0.009162709,0.0791810775,-0.0358109194999999
20,1778428960190,0.4019442,0.020489,0.9068822,-0.023823043,0.09384141,-0.059175827
21,1778428960200,0.40331622875,0.019665781375,0.90584554125,-0.0300078714999999,0.096361155,-0.065437012125
22,1778428960210,0.41353024,0.0123177925,0.9021257825,-0.062917267,0.1165954724999999,-0.09445225875
23,1778428960220,0.42194536,0.0075614169999999,0.90761393,-0.070247434,0.1298814,-0.09765921
24,1778428960230,0.42194536,0.007561417,0.90761393,-0.070247434,0.1298814,-0.09765921
25,1778428960240,0.4291675825,-0.00140252074125,0.92920056625,-0.0662769285,0.13675343125,-0.0798682825
26,1778428960250,0.43295208,-0.005610083,0.9464271,-0.056808796,0.14087665,-0.07017108
27,1778428960260,0.43295208,-0.005610083,0.9464271,-0.056808796,0.14087665,-0.07017108
28,1778428960270,0.4147955387499999,-0.00792729195,0.97344471,-0.01847813,0.1495812249999999,-0.0605502349999999
29,1778428960280,0.38657743,-0.0131715005,1.0086564,0.049478628,0.16408885,-0.03840702
30,1778428960290,0.38657743,-0.0131715005,1.0086564,0.049478628,0.16408885,-0.03840702
31,1778428960300,0.38657743,-0.0131715005,1.0086564,0.049478628,0.16408885,-0.03840702
32,1778428960310,0.38657743,-0.0131715005,1.0086564,0.049478628,0.16408885,-0.03840702
33,1778428960320,0.38657743,-0.0131715005,1.0086564,0.049478628,0.16408885,-0.03840702
34,1778428960330,0.38657743,-0.0131715005,1.0086564,0.049478628,0.16408885,-0.03840702
35,1778428960340,0.3461787249999999,0.0007317502499999,1.26795505,0.320389379,0.18302511,-0.081471752
36,1778428960350,0.31372256,0.050879494,1.64378495,0.5332696525,0.0501658275,-0.1388913945
37,1778428960360,0.3245921,0.1232388999999999,1.8303508,0.39888325,-0.26533678,-0.15507884
38,1778428960370,0.3245921,0.1232389,1.8303508,0.39888325,-0.26533678,-0.15507884
39,1778428960380,0.3245921,0.1232388999999999,1.8303508,0.39888325,-0.26533678,-0.15507884
40,1778428960390,0.3245921,0.1232388999999999,1.8303508,0.39888325,-0.26533678,-0.15507884
41,1778428960400,0.3245921,0.1232389,1.8303508,0.39888325,-0.26533678,-0.15507884
42,1778428960410,0.3245921,0.1232388999999999,1.8303508,0.39888325,-0.26533678,-0.15507884
43,1778428960420,0.3245921,0.1232389,1.8303508,0.39888325,-0.26533678,-0.15507884
44,1778428960430,0.3245921,0.1232389,1.8303508,0.39888325,-0.26533678,-0.15507884
45,1778428960440,0.40143728,0.11030750375,1.6731845375,0.09437589895,-2.070371345,-0.12125317675
46,1778428960450,0.4115111111111111,0.05992558,1.4892265111111112,-0.0026470046666666,-2.7859726,-0.11598462
47,1778428960460,0.4168231,0.06296099,1.4655123,0.038483378,-2.8010402,-0.10743276
48,1778428960470,0.4168231,0.06296099,1.4655123,0.038483378,-2.8010402,-0.10743276
49,1778428960480,0.4168231,0.06296099,1.4655123,0.038483378,-2.8010402,-0.10743276
50,1778428960490,0.4168231,0.06296099,1.4655123,0.038483378,-2.8010402,-0.10743276
51,1778428960500,0.42194536,0.07735208,1.1111319,0.35062632,-2.9977329,0.0037414394
52,1778428960510,0.42194536,0.07735208,1.1111319,0.35062632,-2.9977329,0.0037414393999999
53,1778428960520,0.42194536,0.07735208,1.1111319,0.35062632,-2.9977329,0.0037414394
54,1778428960530,0.42194536,0.07735208,1.1111319,0.35062632,-2.9977329,0.0037414394
55,1778428960540,0.42194536,0.07735208,1.1111319,0.35062632,-2.9977329,0.0037414394
56,1778428960550,0.3781470566666667,0.0387166916666666,0.8512336166666667,0.4068242666666666,-3.14657605,0.0613646991333333
57,1778428960560,0.3390441625,0.00466490625,0.6086826187500001,0.46622915625,-3.1830487375,0.1275143625
58,1778428960570,0.3448372,0.008781,0.59814465,0.48684525,-3.0704238,0.1546207
59,1778428960580,0.3448372,0.008781,0.59814465,0.48684525,-3.0704238,0.1546207
60,1778428960590,0.3877186285714286,0.0216737392857142,0.5041931857142857,0.3921639285714285,-2.9966857285714283,0.2266134285714285
61,1778428960600,0.4013479544444445,0.0089978157777777,0.4189438199999999,0.3119393244444444,-3.027460811111111,0.2779439911111111
62,1778428960610,0.39389494,-0.02268425,0.33751968,0.25899923,-3.1027987,0.30611083
63,1778428960620,0.3991797933333333,-0.0315567193333333,0.31498788,0.2032085166666667,-3.1938149000000005,0.35375692
64,1778428960630,0.4280585,-0.055521531,0.24063903,0.0784938749999999,-3.41860665,0.47042874
65,1778428960640,0.4554838862499999,-0.056649645125,0.170871242,0.07146912925,-3.51718215,0.493793625
66,1778428960650,0.46807608,-0.046618573,0.033934906,0.092237934,-3.6550045,0.47470468
67,1778428960660,0.4859328233333334,-0.0213630342222222,-0.0216984192222222,0.1103597386666666,-3.573150933333333,0.4327598377777777
68,1778428960670,0.51899370375,0.010823801875,-0.098447048125,0.11972606,-3.460755,0.39285114
69,1778428960680,0.52298784,0.014391083,-0.10714039,0.11972606,-3.460755,0.39285114
70,1778428960690,0.52298784,0.014391083,-0.10714039,0.11972606,-3.460755,0.39285114
71,1778428960700,0.52298784,0.014391083,-0.10714039,0.11972606,-3.460755,0.39285114
72,1778428960710,0.617828736,0.0424110104,-0.251569544,0.257166692,-3.0494105599999997,0.231465294
73,1778428960720,0.6938480777777777,0.07290737,-0.3980753888888889,0.3653545377777778,-2.533285377777778,0.08545923
74,1778428960730,0.7135782,0.084669575,-0.4349034,0.35490227,-2.2353954,0.05077668
75,1778428960740,0.7135782,0.084669575,-0.4349034,0.35490227,-2.2353954,0.05077668
76,1778428960750,0.7135782,0.084669575,-0.4349034,0.35490227,-2.2353954,0.05077668
77,1778428960760,0.7135782,0.084669575,-0.4349034,0.35490227,-2.2353954,0.05077668
78,1778428960770,0.7135782,0.084669575,-0.4349034,0.35490227,-2.2353954,0.05077668
79,1778428960780,0.7135782,0.084669575,-0.4349034,0.35490227,-2.2353954,0.05077668
80,1778428960790,0.7552232125,0.046679550375,-0.4872197375,0.22395187875,-1.8302510625,-0.02886253
81,1778428960800,0.7611725,0.041252404,-0.4946935,0.20524468,-1.7723733,-0.04023956
82,1778428960810,0.7611725,0.041252404,-0.4946935,0.20524468,-1.7723733,-0.04023956
83,1778428960820,0.7611725,0.041252404,-0.4946935,0.20524468,-1.7723733,-0.04023956
84,1778428960830,0.81205960375,0.02247082375,-0.50816989625,-0.1010188662499999,-0.7972319875,-0.091016243
85,1778428960840,0.81303526625,0.0097871565625,-0.521524355,-0.1739387574999999,-0.4118637524999999,-0.0364981235
86,1778428960850,0.8058397,-0.0078053335,-0.53372014,-0.20707722,-0.16760121,0.015958386
87,1778428960860,0.7989490650000001,-0.0279170255,-0.5032610587499999,-0.237314165,0.09674293525,0.06406260475
88,1778428960870,0.7986964514285715,-0.0338652162857142,-0.4801194642857142,-0.2546360357142857,0.3716896485714285,0.1039203857142857
89,1778428960880,0.79852223,-0.032471407,-0.4522215,-0.25411245,0.61672664,0.1259109
90,1778428960890,0.7958391125000001,-0.012317791375,-0.38730158,-0.22883865625,0.9335368775,0.14164021
91,1778428960900,0.7945585525000001,0.0046953960625,-0.336052405,-0.1983726475,1.20993565,0.1569113899999999
92,1778428960910,0.7907169,0.018781584,-0.2848032,-0.175924,1.3510414,0.1674485
93,1778428960920,0.78437124625,0.0225661035,-0.2757744749999999,-0.1714190025,1.3796748625,0.17676392125
94,1778428960930,0.7307362024999999,0.050948094,-0.2090899575,-0.1441599499999999,1.57674945,0.255715935
95,1778428960940,0.7030898,0.0566191559999999,-0.19863963,-0.15698774,1.5666705,0.29694813
96,1778428960950,0.7030898,0.056619156,-0.19863963,-0.15698774,1.5666705,0.29694813
97,1778428960960,0.6520095766666666,0.0281520484333333,-0.2238646833333333,-0.2032763888888888,1.4799302111111112,0.3984845211111111
98,1778428960970,0.6242742,-0.0009756667,-0.24672171,-0.23090026,1.432895,0.48753247
99,1778428960980,0.6242742,-0.0009756667,-0.2467217099999999,-0.23090026,1.432895,0.4875324699999999
100,1778428960990,0.6242742,-0.0009756667,-0.2467217099999999,-0.23090026,1.432895,0.4875324699999999
101,1778428961000,0.6624210528571429,-0.0252627985714285,-0.2370042457142857,-0.2185087971428571,2.050810542857143,0.4511434242857143
102,1778428961010,0.6492926,-0.0169928613333333,-0.1336900488888889,-0.1971000477777778,2.256520677777778,0.3920366777777777
103,1778428961020,0.6418362,-0.0102445,-0.09811548,-0.18691926,2.3051848,0.36475217
104,1778428961030,0.6396409511111111,-0.0072903982222222,-0.0925020088888888,-0.1838650233333333,2.3010446,0.3605441122222222
105,1778428961040,0.6001134014285714,0.0185376664285714,-0.0582568854285714,-0.1562896328571428,2.2433146,0.3127429042857143
106,1778428961050,0.5897972688888888,0.0115453888888888,-0.0622834488888888,-0.1447708,2.3962011,0.2951156
107,1778428961060,0.588509945,0.0049088229125,-0.054667826375,-0.1344627525,2.486072,0.2858001775
108,1778428961070,0.5814973875,-0.0021342709,-0.01813368075,-0.05039489825,3.25054735,0.201808665
109,1778428961080,0.5627666133333333,-0.0043905,0.0658066833333333,-0.030542362,3.4761791,0.17050274
110,1778428961090,0.54176944,-0.006341833,0.15790555,-0.030542362,3.4761791,0.17050274
111,1778428961100,0.5073771625,-0.032848714875,0.29398438125,0.06612422,4.328082,-0.0913980175
112,1778428961110,0.4915226,-0.054667823,0.3743816,0.0684149,4.4865966,-0.16424155
113,1778428961120,0.4902687175,-0.064336831375,0.3897864625,0.069789305,4.509808775000001,-0.17477866625
114,1778428961130,0.4741740366666667,-0.13967278,0.5619636833333334,0.0625100386666666,4.9575598,-0.3375185533333333
115,1778428961140,0.4512458649999999,-0.14301139,0.78484765,0.0616192187499999,5.144402625,-0.40949672625
116,1778428961150,0.4429527,-0.13104422,0.87904525,0.06963659,5.164637,-0.43851197
117,1778428961160,0.44703827,-0.091282001875,1.11654375,0.11942063875,4.696041087499999,-0.49974940625
118,1778428961170,0.475149665,-0.03600057475,1.29785015,0.17286977,4.2642484,-0.5295282
119,1778428961180,0.4816270200000001,-0.0034656491111111,1.3140807222222222,0.1964213266666666,4.155712711111111,-0.5323109488888889
120,1778428961190,0.452884645,0.0896774925,1.273366975,0.39750886,3.275210275,-0.549686165
121,1778428961200,0.4023596125,0.1430380725,1.2779518375,0.4355341,3.2385595,-0.53502584
122,1778428961210,0.3697167,0.17400406,1.3188269,0.4355341,3.2385595,-0.53502584
123,1778428961220,0.3792599,0.18132155,1.3839831,0.37139514,3.1976328,-0.3908659
124,1778428961230,0.455312375,0.111671915,1.3581432624999998,0.21501822625,2.4974489875,-0.2560213437499999
125,1778428961240,0.48688814,0.07735208,1.336145,0.13866232,2.1591923,-0.20944425
126,1778428961250,0.5007914266666667,0.017257104,1.2471561333333332,-0.007330165,1.5399968333333334,-0.1241292533333333
127,1778428961260,0.48176209125,-0.0060064478749999,1.1813761125,-0.076737683125,1.2930873125,-0.08338065125
128,1778428961270,0.43051293,-0.0070735829999999,1.1297001,-0.1435491,1.2636902,-0.06894939
129,1778428961280,0.40412038625,0.00634183325,1.135950475,-0.19967069375,1.4171656375,-0.0681858274999999
130,1778428961290,0.3895586344444444,0.0567004622222222,1.184123933333333,-0.2953785866666666,1.7231832222222223,-0.0611441133333333
131,1778428961300,0.38999227,0.07101024,1.2114426,-0.3555131,1.8879762,-0.06345176
132,1778428961310,0.4049931175,0.0748519275,1.2548217,-0.40911494,1.967233575,-0.06620057
133,1778428961320,0.4114569022222222,0.0705495086666666,1.2901091777777778,-0.4244030888888889,1.9563231666666665,-0.0489271664444444
134,1778428961330,0.41657916,0.051009074,1.3630064,-0.41537613,1.8256698,0.014736691
135,1778428961340,0.44109279,0.021098792875,1.3858126125,-0.36345413,1.6143166,0.061161082
136,1778428961350,0.44996527,0.018995010625,1.3811171375,-0.28137152375,1.3353121625,0.09124530675
137,1778428961360,0.4358791,0.022196416,1.3661773,-0.21562909,1.152516,0.100866154
138,1778428961370,0.5287465687499999,0.1518266895,1.2570627,-0.3337516662499999,1.4224341625,0.1142284329999999
139,1778428961380,0.5195653874999999,0.1498486775,1.3350017,-0.729370715,1.6031685750000002,0.186995615
140,1778428961390,0.324085205,-0.0280389837499999,2.307886125,-1.8192558625,1.80069170625,0.37941251
141,1778428961400,0.5485495375,-0.123398970625,2.517033325,-1.12003617,-0.09391775625,0.170044607
142,1778428961410,0.5647281,-0.082962155,2.3806877,-0.49539712,-0.5799231,0.056274302
143,1778428961420,0.4965762325,-0.04332569825,1.588743575,0.2987043,-1.6282134,-0.13186665
144,1778428961430,0.43402939,-0.0488409263333333,0.9981679244444444,0.4362806866666667,-1.7739174111111111,-0.2593301222222222
145,1778428961440,0.3945047175,-0.037227782,0.837007645,0.4443913875,-1.3269893,-0.272056105
146,1778428961450,0.39267537,-0.05588741,0.8734351,0.51860934,-0.8615237,-0.28030252
147,1778428961460,0.4014800511111111,-0.0512800917777777,0.9901763133333332,0.6496699888888888,-0.5080467622222221,-0.3381294133333333
148,1778428961470,0.3670450375,-0.046191718625,1.1213078625,0.70300885625,-0.33413345,-0.35100811
149,1778428961480,0.3860896,-0.061660102,1.247644,0.7144876899999999,-0.2789790233333333,-0.3415908833333334
150,1778428961490,0.4135340375,-0.07073583625,1.3441409625,0.7125533525,-0.32603971625,-0.33970743875
151,1778428961500,0.4452563444444444,-0.0588686077777777,1.4316587666666667,0.67926214,-0.6251258266666667,-0.3413872533333333
152,1778428961510,0.4575877,-0.03003224,1.4464563,0.65116316,-0.8267054,-0.34260896
153,1778428961520,0.4438940225,0.0133277587499999,1.4425841875,0.59954659375,-1.0308811625,-0.341921755
154,1778428961530,0.4080725775,0.074916715,1.456338775,0.5376219600000001,-1.1936719375,-0.33336988
155,1778428961540,0.3872007933333333,0.1060834255555555,1.4819359888888888,0.5053742822222222,-1.2946823444444444,-0.30175005
156,1778428961550,0.402980835,0.1241535924999999,1.499050925,0.4848600125,-1.486725875,-0.24273543875
157,1778428961560,0.4236528,0.1276294,1.489904,0.4886778,-1.5859885,-0.21677442
158,1778428961570,0.4197195999999999,0.1236657525,1.4316269375,0.492342895,-1.773747675,-0.1790546125
159,1778428961580,0.410420305,0.12095218625,1.383038,0.47585002,-1.9244742,-0.14469445
160,1778428961590,0.4056300533333333,0.1141868768888888,1.328221177777778,0.3956254166666667,-2.006531366666666,-0.1047857573333333
161,1778428961600,0.40410895625,0.10579886025,1.235396025,0.1963874025,-2.093449875,-0.036956257875
162,1778428961610,0.4226847425,0.110982088,1.2206505,0.0710873475,-2.096962375,-0.0148894011875
163,1778428961620,0.4517878555555555,0.12689765,1.219681611111111,-0.1199975533333333,-2.196369222222222,0.0203021875
164,1778428961630,0.4717958,0.13555669,1.2244921999999998,-0.2071535787499999,-2.319616125,0.042682951875
165,1778428961640,0.48429655,0.1375080225,1.21845525,-0.2486148375,-2.5040156375,0.067804044375
166,1778428961650,0.4781851022222222,0.1270602688888888,1.1983999333333333,-0.2488184466666666,-2.6929202333333335,0.094554065
167,1778428961660,0.47344226,0.11226265,1.1723856,-0.23700874,-2.7882123,0.107585475
168,1778428961670,0.4751497,0.07149807,1.1030827,-0.20768806,-2.949476,0.12713258
169,1778428961680,0.47580012,0.064668408,1.0890981,-0.2036157444444444,-2.9768962666666665,0.1279470422222222
170,1778428961690,0.47920477375,0.035573721875,0.987576675,-0.17264070125,-3.1976327,0.1207186885
171,1778428961700,0.472954435,0.0046344169999999,0.87534066,-0.1502684225,-3.292772175,0.105600217
172,1778428961710,0.4827958111111111,-0.0186460746666666,0.8142954466666666,-0.1352687311111111,-3.249741288888889,0.085459228
173,1778428961720,0.5135055875,-0.021495156625,0.83670661875,-0.1204896249999999,-3.2408501000000003,0.03199312425
174,1778428961730,0.5212804,-0.018293751,0.85562915,-0.08429692,-3.3233144,-0.007864659
175,1778428961740,0.5259757875,-0.002561125,0.831900675,-0.022524994625,-3.4637329375,-0.03573456625
176,1778428961750,0.5191664666666667,0.017805917,0.80770975,0.042962924,-3.594327,-0.0447191116666666
177,1778428961760,0.4974299249999999,0.01987920925,0.7669807200000001,0.11178505,-3.740675925,-0.053143713125
178,1778428961770,0.4657182333333333,0.0146350006666666,0.6448445199999999,0.2324613188888888,-3.9298859777777775,-0.0673204622222222
179,1778428961780,0.4472889911111111,0.0129004821111111,0.5221171866666666,0.33535514,-4.008820966666666,-0.0673204591111111
180,1778428961790,0.43734257,0.0186596255,0.3823089,0.3742203075,-3.960351825,-0.053296423
181,1778428961800,0.4441722466666666,0.0169115561666666,0.30261929,0.4115753,-3.882375422222222,-0.02171053
182,1778428961810,0.4546911712499999,0.0121653441875,0.24394334875,0.42820394,-3.865747,-0.010308048
183,1778428961820,0.4675611522222221,0.0059353055555555,0.1634275511111111,0.4881348222222221,-3.7779884777777775,-0.0036565995777777
184,1778428961830,0.48197934,0.008781,0.09909115,0.53326964,-3.7038724,-0.0060321167
185,1778428961840,0.4938969549999999,0.034418929375,0.012195833125,0.590078435,-3.557498225,-0.016569231625
186,1778428961850,0.5051819,0.057594825,-0.05808266,0.6071822,-3.4564793,-0.013362284
187,1778428961860,0.51728627625,0.08284019625,-0.138853375,0.56900419375,-3.21236945,0.024128466375
188,1778428961870,0.5183534,0.08540133,-0.17815064,0.54976255,-3.1156263,0.055663455
189,1778428961880,0.5183534,0.08540133,-0.17815064,0.54976255,-3.1156263,0.055663455
190,1778428961890,0.5336668250000001,0.05289942775,-0.36759767,0.46851984,-2.9904027,0.100866154
191,1778428961900,0.5526542074999999,0.0482040338749999,-0.440757405,0.402166555,-2.7877541375,0.10170606925
192,1778428961910,0.56887466,0.04735032,-0.480028,0.351848,-2.6190076,0.1002553
193,1778428961920,0.56887466,0.04735032,-0.480028,0.351848,-2.6190076,0.1002553
194,1778428961930,0.56887466,0.04735032,-0.480028,0.351848,-2.6190076,0.1002553
195,1778428961940,0.56887466,0.04735032,-0.480028,0.351848,-2.6190076,0.1002553
196,1778428961950,0.56887466,0.04735032,-0.480028,0.351848,-2.6190076,0.1002553
197,1778428961960,0.670915665,0.0550032075,-0.5283654437499999,0.1127776701249999,-1.8037842,0.12629266625
198,1778428961970,0.7367808,0.04978949,-0.5454587,-0.004275931,-1.4112862,0.14057122
199,1778428961980,0.73629298,0.0483956811428571,-0.5404278914285714,-0.0800209898571428,-1.15315962,0.1402221685714285
200,1778428961990,0.724158125,0.037410721125,-0.5155788625,-0.2028012875,-0.77020205,0.1437781725
201,1778428962000,0.7153161,0.029788323,-0.5081089,-0.23028941,-0.6941516,0.14606886
202,1778428962010,0.7153161,0.029788323,-0.5081089,-0.23028941,-0.6941516,0.14606886
203,1778428962020,0.7165705714285714,0.0128274038571428,-0.5298523257142856,-0.2402374957142857,-0.5009493114285715,0.13402644
204,1778428962030,0.74126275,-0.0022867189,-0.57134052375,-0.23716144875,-0.26312246375,0.10506572875
205,1778428962040,0.76287985,-0.010732334,-0.5996082,-0.23517619,-0.06314634,0.07154548
206,1778428962050,0.7788182875,-0.007622396225,-0.6111561000000001,-0.2255553475,0.13064496,0.0509293885
207,1778428962060,0.7909336644444445,0.0030354072666666,-0.60998816,-0.1926883766666666,0.4466396466666666,0.0306187191111111
208,1778428962070,0.7897412,0.014147166,-0.59472984,-0.14599249,0.7645517,0.022066858
209,1778428962080,0.77811324875,0.01753151025,-0.5562100725,-0.0945286107499999,1.075835625,0.03260397275
210,1778428962090,0.7685170777777777,0.017589102,-0.5111375888888889,-0.0285062047777777,1.4369672444444446,0.0477903127777777
211,1778428962100,0.7677582,0.010000584,-0.4739301,0.017103724,1.656465,0.050165832
212,1778428962110,0.7454398,-0.00798827075,-0.4385850324999999,0.062153708625,1.8252879375,0.026724567285
213,1778428962120,0.708993325,-0.030653465625,-0.4052370525,0.10376767725,1.980672225,-0.0144312657875
214,1778428962130,0.6886987,-0.041496325,-0.39121184,0.120947756,2.0547376,-0.039628714
215,1778428962140,0.6886987,-0.041496325,-0.39121184,0.120947756,2.0547376,-0.039628714
216,1778428962150,0.65208454375,-0.007717676125,-0.31455342,0.19470755825,2.2808273,-0.091245308
217,1778428962160,0.63500655,0.016342416,-0.2743148,0.24861483,2.400477,-0.10071344
218,1778428962170,0.6256767462499999,0.034190257125,-0.244629375,0.287861765,2.4603400375,-0.0802500575
219,1778428962180,0.6054926555555556,0.0747231955555555,-0.1564014033333333,0.3956254133333333,2.6692498333333337,-0.0060321173333333
220,1778428962190,0.6018339,0.08271824,-0.11762882,0.4379775,2.7963061,0.03917058
221,1778428962200,0.6023488444444445,0.0769726479999999,-0.10451152,0.4383847133333333,2.8627526444444444,0.0542381466666666
222,1778428962210,0.5996958375,0.055308106875,-0.08634269,0.389720535,3.058894075,0.0748287881249999
223,1778428962220,0.5864367,0.034178823,-0.06540016,0.3170297,3.2251208,0.076432265
224,1778428962230,0.57710685,0.0153133935,-0.023038692625,0.23471805,3.4910112,0.08971819375
225,1778428962240,0.571496775,0.003292875,0.0593860887499999,0.1331647,3.857424,0.11613733
226,1778428962250,0.5681429,0.00512225,0.1242145699999999,0.1331647,3.857424,0.11613733
227,1778428962260,0.5681429,0.00512225,0.12421457,0.12316207625,3.896441875,0.1196497025
228,1778428962270,0.54018393,0.016647313,0.359426465,-0.1209477575,4.454680075000001,0.157827665
229,1778428962280,0.5301223875,0.020031656125,0.4614713,-0.21738527,4.421694437499999,0.132401148125
230,1778428962290,0.5178655766666667,0.0277353576666666,0.5578069333333333,-0.3027766266666666,4.3803095,0.1051420833333333
231,1778428962300,0.50127923,0.032471407,0.651349,-0.36727192,4.345032875,0.08391514
232,1778428962310,0.4996328075,0.03667896925,0.78203496625,-0.393996485,4.204690825,0.0657424325
233,1778428962320,0.5001642000000001,0.037384585,0.8928526428571429,-0.3994940942857142,4.020956757142857,0.0464134842857142
234,1778428962330,0.5023361999999999,0.0412524056666666,0.9753719666666668,-0.3370519377777778,3.758721344444444,0.0283789458666666
235,1778428962340,0.5091455349999999,0.050734668,0.984786875,-0.2576248275,3.5890331,-0.00481042195
236,1778428962350,0.4915429222222222,0.0672972905555555,1.024571988888889,-0.1928241233333333,3.5285082,-0.0410540263333333
237,1778428962360,0.48699107625,0.075339761875,1.085074775,-0.1500393625,3.427845725,-0.056732440625
238,1778428962370,0.498291265,0.0820550925,1.139403375,-0.14660335,3.3381276,-0.06589515
239,1778428962380,0.5082986,0.0881149,1.1935079666666666,-0.1939779499999999,3.031074888888889,-0.0839490824444444
240,1778428962390,0.5081089,0.09323715,1.2400113,-0.23700874,2.7553792,-0.090329036
241,1778428962400,0.5190309888888889,0.069550131,1.2569770999999998,-0.2606281722222222,2.1914315222222225,-0.0978628211111111
242,1778428962410,0.503280125,0.0478686481249999,1.2297249125,-0.250294675,1.9968597,-0.1086544575
243,1778428962420,0.4755290933333333,0.0310824366666666,1.220792811111111,-0.2023940577777777,1.9885623666666667,-0.1103512555555555
244,1778428962430,0.4610634875,0.0243992889999999,1.21815035,-0.1180462375,2.05091965,-0.11063971
245,1778428962440,0.449599415,0.03417882325,1.231390475,-0.073301675,2.135980175,-0.11461022
246,1778428962450,0.4558192625,0.045246544375,1.2702075125,-0.0783411625,2.1711039249999997,-0.125910895
247,1778428962460,0.4659350155555555,0.0570256877777777,1.2982024222222224,-0.1193867044444444,2.084329711111111,-0.1508029211111111
248,1778428962470,0.46612477,0.07637641,1.3310227,-0.18676655625,1.8571283625,-0.162332655
249,1778428962480,0.43600104,0.092627355,1.38593455,-0.211964,1.5451381375,-0.127361649
250,1778428962490,0.4334399,0.09226148,1.3793488,-0.211964,1.3382137,-0.096437514
251,1778428962500,0.4025365499999999,0.0841120494285714,1.3519560285714285,-0.2151055057142857,1.1036483285714287,-0.0456499242857142
252,1778428962510,0.3736422275,0.070095552,1.336023075,-0.201808655,0.9393303825,0.02809897425
253,1778428962520,0.3698555833333333,0.0527706936666666,1.3286411666666664,-0.2150182311111111,1.008364602222222,0.067744658
254,1778428962530,0.4102814055555555,0.0076833746666666,1.3870355222222222,-0.2576418022222222,1.1802756888888888,0.095097036
255,1778428962540,0.44286502375,-0.0090858964375,1.4165498375,-0.282211435,1.252236925,0.09032903375
256,1778428962550,0.5232393425,0.0013148631874999,1.477891125,-0.3555131175,1.3568445,0.07444700875
257,1778428962560,0.67939262,0.0026661442222222,1.6329340666666663,-0.5518156544444444,1.5600190555555555,0.1424716344444444
258,1778428962570,0.8062056,-0.096530028,2.29830485,-0.732863975,1.31726345125,0.175084093125
259,1778428962580,0.7863873666666666,-0.0938774333333333,2.3944182,-0.5950416,0.58801687,0.075821415
260,1778428962590,0.6911569412499999,-0.0717114975,2.0290285,-0.3234818075,-0.3119234024999999,-0.02741177025
261,1778428962600,0.5031543725,-0.0292928675,1.233715325,0.172869775,-1.749142,-0.22227204
262,1778428962610,0.3989867077777778,-0.0046615185222222,0.9294512444444444,0.2370087399999999,-1.5933187,-0.24426255
263,1778428962620,0.3550550087499999,-0.0018903542375,0.77184,0.2819060175,-1.1109020875,-0.2341835675
264,1778428962630,0.3863335133333333,-0.0133950898888888,0.7429667777777778,0.2889986377777778,-0.6295374788888889,-0.2205073755555555
265,1778428962640,0.4223188424999999,-0.03381294625,0.811335465,0.2970244825,-0.3675009875,-0.2296022175
266,1778428962650,0.4338193333333333,-0.0400870281111111,0.8993309066666667,0.3176405699999999,-0.1798181566666666,-0.2342853733333333
267,1778428962660,0.4349034,-0.038325407,0.94298184,0.32497075,-0.07108735,-0.22899136
268,1778428962670,0.43929392,-0.03808149,1.0474391,0.3282964655555556,-0.0097990082777777,-0.2142631577777777
269,1778428962680,0.44514793,-0.032471407,1.129944,0.33031564875,-0.0179436375625,-0.204175695
270,1778428962690,0.45557537875,-0.022230717375,1.2486399124999998,0.28923617375,-0.156300545125,-0.19799087375
271,1778428962700,0.466460125,-0.00506127125,1.3920438625,0.1840177325,-0.401555715,-0.209596965
272,1778428962710,0.465393,0.011708,1.4420658,0.12949961,-0.5298336,-0.22838052
273,1778428962720,0.460911045,0.0526288325,1.4744686125,0.0905581004999999,-0.7416449,-0.2205922125
274,1778428962730,0.460392745,0.0917736475,1.483562125,0.0601684539999999,-0.997360875,-0.20257222125
275,1778428962740,0.464539305,0.11067719,1.462028875,0.046424391625,-1.1590826875,-0.1760767175
276,1778428962750,0.4741469088888889,0.1177914211111111,1.4325259444444445,0.0207009343333333,-1.2749994111111111,-0.1415044644444444
277,1778428962760,0.48985710625,0.1082989975,1.4271259125,-0.0013744063749999,-1.3563099875,-0.1127776775
278,1778428962770,0.5052632100000001,0.0942026466666666,1.429300866666667,-0.0215832696666666,-1.477665,-0.0990845166666666
279,1778428962780,0.51469463,0.08247432,1.4257234,-0.039094225,-1.5982054,-0.09460497
280,1778428962790,0.5122012699999999,0.065887988,1.3761540666666667,-0.1037761627777777,-1.7925227555555554,-0.09256881
281,1778428962800,0.50478554,0.055917899375,1.33527985,-0.1856975699999999,-2.009229325,-0.07643226
282,1778428962810,0.508169905,0.0512529925,1.3107167,-0.210436885,-2.1165859,-0.0594812475
283,1778428962820,0.5215243,0.05052124,1.2878495,-0.20219044,-2.198134,-0.04573719
284,1778428962830,0.5278661333333334,0.0510903786666666,1.2745052333333335,-0.18508672,-2.2317305666666667,-0.0463480366666666
285,1778428962840,0.5508210287499999,0.047868646375,1.2112025375,-0.046882531,-2.4144501375000003,-0.07024743
286,1778428962850,0.55960584,0.04393549,1.1758308,0.025655584,-2.5072227,-0.08055548
287,1778428962860,0.5586301725,0.04204513575,1.1576170875,0.0445154934999999,-2.5295949749999997,-0.08360971625
288,1778428962870,0.5518005,0.028812656,1.0301211,0.17653486,-2.6862009,-0.10498937
289,1778428962880,0.54250115,0.021220751,0.9588669,0.24739315,-2.7387338,-0.10804361
290,1778428962890,0.54250115,0.021220751,0.9588669,0.24739315,-2.7387338,-0.10804361
291,1778428962900,0.5370740125,0.01579360485,0.92741308875,0.27060534375,-2.704373625,-0.112014115
292,1778428962910,0.5476539,0.00951275,0.8204747,0.35123718,-2.7081914,-0.1300341
293,1778428962920,0.5464000125,0.011281145875,0.8121472375000001,0.353985995,-2.7465220375,-0.1309503725
294,1778428962930,0.505944155,0.03164818825,0.6798758,0.374907525,-3.0730197749999997,-0.1395022425
295,1778428962940,0.4792048,0.0220236427777777,0.5966438888888889,0.379947,-3.2475696,-0.14591613
296,1778428962950,0.4619782,0.011708,0.54960525,0.379947,-3.2475696,-0.14591613
297,1778428962960,0.4368005733333333,-0.0073446021111111,0.4471195822222222,0.3444499933333333,-3.442497622222222,-0.1573864922222222
298,1778428962970,0.4314886,-0.011708,0.38316262,0.34207445,-3.402114,-0.15263546
299,1778428962980,0.4314886,-0.011708,0.38316262,0.34207445,-3.402114,-0.15263546
300,1778428962990,0.4713892977777777,0.013090195,0.2405424944444444,0.3114642066666667,-3.1632047222222224,-0.1419116933333333
301,1778428963000,0.48810774,0.027318668,0.22233005,0.29198498,-3.049655,-0.13858597
302,1778428963010,0.48810774,0.027318668,0.22233005,0.29198498,-3.049655,-0.13858597
303,1778428963020,0.48810774,0.027318668,0.22233005,0.29198498,-3.049655,-0.13858597
304,1778428963030,0.573935915,0.07158573,0.173939265,0.2212794175,-2.798291325,-0.099186326875
305,1778428963040,0.6082976800000001,0.07335793625,0.12875751975,0.19791451,-2.7075806,-0.078112096
306,1778428963050,0.61256623,0.07076632,0.112750486,0.19791451,-2.7075806,-0.078112096
307,1778428963060,0.62695736,0.07198591,0.10811607,0.2085025266666666,-2.297973444444444,-0.0379997891111111
308,1778428963070,0.647995115,0.0723517824999999,0.0986033175,0.20952061,-2.1791975,-0.026800923
309,1778428963080,0.6550077,0.07247374,0.0954324,0.20952061,-2.1791975,-0.026800923
310,1778428963090,0.6762170750000001,0.06530869,0.099700940625,0.1980672225,-2.0703904375,-0.00313059175
311,1778428963100,0.6999460000000001,0.0448840555555555,0.1045386244444444,0.2197013988888888,-2.047865466666667,0.0158226415555555
312,1778428963110,0.7030898,0.04027674,0.10518907,0.22784603,-2.0600824,0.01718008
313,1778428963120,0.7266582312500001,0.007469948125,-0.022085892375,0.27060533,-2.088792,-0.0041995747
314,1778428963130,0.74187254375,0.015275281125,-0.0635822175,0.29450473125,-1.9851772,-0.0322985498374999
315,1778428963140,0.7560502,0.022440333,-0.0910419,0.30420193,-1.941578,-0.04573719
316,1778428963150,0.7730464222222222,0.0422822771111111,-0.1322672066666666,0.2918492466666667,-1.7911738444444447,-0.0665738677777777
317,1778428963160,0.7841616124999999,0.0667721915,-0.153880925,0.2810660925,-1.7264070875,-0.078570228125
318,1778428963170,0.7907169,0.077595994,-0.1703453,0.26877278,-1.7253381,-0.08605311
319,1778428963180,0.7919669125,0.0796997715,-0.23023827875,0.24197185875,-1.7324391875,-0.098499119
320,1778428963190,0.7904729,0.08052299,-0.2657777,0.22173755,-1.741831,-0.108654454
321,1778428963200,0.7904729,0.08052299,-0.2657777,0.22173755,-1.741831,-0.108654454
322,1778428963210,0.7975736288888888,0.0700616749999999,-0.3996981144444444,0.1476214191111111,-1.6226224111111112,-0.128337311
323,1778428963220,0.79785139125,0.064272045625,-0.4584451825,0.09605573325,-1.5370444,-0.1453052925
324,1778428963230,0.79827833,0.061497495,-0.5139629,0.054365408,-1.4509913,-0.15813309
325,1778428963240,0.8003690171428571,0.0654698485714285,-0.5750378857142857,0.0009599042857142,-1.2363221214285716,-0.1348336285714285
326,1778428963250,0.79957916,0.0733680977777777,-0.6717702,-0.0928487826666666,-0.8757768,-0.0884964976666666
327,1778428963260,0.794009745,0.077108155,-0.6968089375,-0.168517485,-0.6414659775,-0.0341310901
328,1778428963270,0.7900461299999999,0.07811431575,-0.7151370125,-0.21929416,-0.49868044,0.0055739814
329,1778428963280,0.7844292644444445,0.0727989624444444,-0.7167186444444444,-0.3331153666666667,-0.1360407766666666,0.0984227666666666
330,1778428963290,0.781448025,0.06314393075,-0.702358025,-0.416597825,0.13232479,0.1601183374999999
331,1778428963300,0.7831554625,0.0539970547499999,-0.677166025,-0.4821112,0.3887279375,0.2027249325
332,1778428963310,0.78608245,0.04686249,-0.6520807,-0.5247178,0.5861843,0.22608984
333,1778428963320,0.78608245,0.04686249,-0.6520807,-0.5247178,0.5861843,0.22608984
334,1778428963330,0.7812854166666666,0.0409000831111111,-0.5645654511111111,-0.5868799822222222,1.0419272333333334,0.2260219666666666
335,1778428963340,0.7718933425,0.04515507625,-0.4713575025,-0.59336176875,1.4289244,0.20532102875
336,1778428963350,0.773707455,0.051862786375,-0.41840091,-0.55891570375,1.5892718,0.178901885
337,1778428963360,0.79830543,0.0580284553333333,-0.3232065488888889,-0.47279578,1.7603091,0.12224581
338,1778428963370,0.79852223,0.07320549,-0.28090054,-0.41415444,1.8079551,0.08070819
339,1778428963380,0.7119287,0.0941152475,-0.230964704,-0.190278922,2.12058676,0.0413085459
340,1778428963390,0.7211701,0.094456725,-0.20501198,-0.09834641,2.2941897,0.03917058
341,1778428963400,0.7211701,0.094456725,-0.20501198,-0.09834641,2.2941897,0.03917058
342,1778428963410,0.7266582312500001,0.091556404375,-0.1782878575,-0.07154548625,2.3914671125,0.03825430925
343,1778428963420,0.7662947333333334,0.0610909646666666,0.038152632,0.1345900166666666,3.0762777,0.0259355569999999
344,1778428963430,0.768063115,0.03490295125,0.1165997895,0.195471135,3.06523155,0.0048104225
345,1778428963440,0.7637742133333334,0.0156919721111111,0.1870468233333333,0.2909669277777778,2.9856686999999997,-0.0310089814444444
346,1778428963450,0.7494034975,0.015031365,0.22955608875,0.42072106,2.86594265,-0.074905145
347,1778428963460,0.7278778355555555,0.0351375511111111,0.2182241211111111,0.59048569,2.7669854,-0.1418438266666666
348,1778428963470,0.7076327287499999,0.05857049,0.1944015925,0.6617766625,2.8237940750000003,-0.18409409875
349,1778428963480,0.6944917475,0.07625826,0.18796829125,0.658340645,2.88610055,-0.19356223
350,1778428963490,0.68040556,0.09762765,0.18668772,0.61939913,2.9539046,-0.18989713
351,1778428963500,0.6545427500000001,0.0910952575,0.21542416,0.544875725,3.0710346,-0.1567586825
352,1778428963510,0.61902999875,0.067199040625,0.28957100125,0.5004366,3.1994653499999997,-0.10315682675
353,1778428963520,0.6067800055555556,0.0515511114444444,0.3649874166666667,0.5270933111111111,3.193221022222222,-0.0336559865111111
354,1778428963530,0.5998521,0.048569907,0.4051151,0.5552602,3.1487648,-0.0017561859
355,1778428963540,0.5869245,0.07466899,0.44124526,0.67071027,2.968565,0.056274302
356,1778428963550,0.565703745,0.1308689125,0.403102775,0.705528585,2.999718125,0.1017824225
357,1778428963560,0.548202725,0.1593080725,0.4024929925,0.66475451,3.1178408,0.1470614724999999
358,1778428963570,0.548682915,0.1476534275,0.435063485,0.5238014999999999,3.2038938,0.18012358
359,1778428963580,0.54298896,0.11543357,0.47734493,0.379947,3.2519982,0.19432579
360,1778428963590,0.54298896,0.11543357,0.47734493,0.379947,3.2519982,0.19432579
361,1778428963600,0.532256635,0.0821846775,0.5234756625,0.27961533675,3.250623775,0.208222565
362,1778428963610,0.49138919125,-0.013693634225,0.7495978175,-0.1669903665,3.2367269875,0.24640051625
363,1778428963620,0.4757188266666667,0.0235074689333333,0.87206305,-0.3676621733333333,3.2129039777777777,0.2283974833333333
364,1778428963630,0.4650271425,0.0838844675,0.9130410975,-0.4758691,3.1950365,0.188217305
365,1778428963640,0.452648355,0.1496505,0.96677893,-0.5599178475000001,3.229014875,0.1548497775
366,1778428963650,0.4469366366666666,0.2004385233333333,1.0730706666666667,-0.6310136911111112,3.298829688888889,0.1221779364444444
367,1778428963660,0.44627602,0.2169333974999999,1.1537600875,-0.6628456,3.2831514,0.106974624
368,1778428963670,0.4463404044444444,0.2064449822222222,1.2226660888888887,-0.7202652444444444,3.009356,0.0887170844444444
369,1778428963680,0.43034906875,0.17240716375,1.2711830875,-0.733932975,2.8822064,0.08307523
370,1778428963690,0.4273826611111111,0.1238080422222222,1.2952042888888888,-0.7161250888888888,2.488438977777778,0.0669301986666666
371,1778428963700,0.43563515,0.11177482,1.2809894,-0.7025507,2.3296187,0.058106847
372,1778428963710,0.43563515,0.11177482,1.2809894,-0.7025507,2.3296187,0.058106847
373,1778428963720,0.43563515,0.11177482,1.2809894,-0.7025507,2.3296187,0.058106847
374,1778428963730,0.4036897125,0.092211935,1.2223959875,-0.8687011625,2.22997425,-0.0068720304999999
375,1778428963740,0.3844431574999999,0.0797912412499999,1.265889375,-1.0114103250000002,2.205311375,-0.032909396
376,1778428963750,0.39023617,0.07125416,1.327364,-1.0183587,2.1689658,-0.015805673
377,1778428963760,0.39023617,0.07125416,1.327364,-1.0183587,2.1689658,-0.015805673
378,1778428963770,0.4070664224999999,0.03874082875,1.4103376125,-0.8525900625,2.0042662,-0.01664558775
379,1778428963780,0.41243258,0.0141471659999999,1.4554813,-0.6946097,1.8824786,-0.021914145
380,1778428963790,0.41243258,0.014147166,1.4554813,-0.6946097,1.8824786,-0.021914145
381,1778428963800,0.4440503074999999,-0.05607034625,1.449703475,-0.40102123125,1.34508565,-0.0079410146587499
382,1778428963810,0.4413468899999999,-0.0838632922222222,1.3703171,-0.3052200133333333,1.08225168,0.0031984641522222
383,1778428963820,0.422921,-0.099822894,1.3173635,-0.24250636,0.96674216,0.014125843
384,1778428963830,0.40706643625,-0.09976191925,1.2852083625,-0.1863847687499999,0.949638415,0.0033596599375
385,1778428963840,0.4009414044444444,-0.0869427422222222,1.303466977777778,-0.1199975544444444,0.9342993866666666,-0.0076610427666666
386,1778428963850,0.4051151,-0.06832716,1.3547132,-0.043981,0.87633675,-0.013362284
387,1778428963860,0.4196417044444445,-0.0444775288888888,1.3928725777777775,0.0519898877777777,0.656160241111111,-0.0447191076666666
388,1778428963870,0.42279908125,-0.0229624685,1.4069075125,0.12965233375,0.4311818249999999,-0.075439634375
389,1778428963880,0.4195062,-0.011951917,1.4076736,0.17164809,0.3082488,-0.093383275
390,1778428963890,0.4093158911111111,0.0073750911111111,1.3858769999999998,0.23001793,0.15146466,-0.1201926844444444
391,1778428963900,0.384778535,0.0384778525,1.320381925,0.289541605,-0.022754060625,-0.14507622625
392,1778428963910,0.37243026,0.05052124,1.2900448,0.31092125,-0.090634465,-0.15202461
393,1778428963920,0.3460364444444444,0.0643431855555555,1.278286,0.2935460477777777,-0.1635289038888888,-0.1547394855555555
394,1778428963930,0.3302631625,0.070674855,1.2833409125000002,0.26503135875,-0.228380525,-0.15454434875
395,1778428963940,0.3187381,0.06832716,1.310046,0.20890976,-0.29038152,-0.15080291
396,1778428963950,0.320476,0.059210774125,1.3693787625,0.122474872875,-0.39392013,-0.15385715625
397,1778428963960,0.3299582733333333,0.0558874066666666,1.4562232,0.0309495936666666,-0.5962123533333333,-0.1646487933333333
398,1778428963970,0.3333731,0.05979007,1.5138078,-0.012216945,-0.77539426,-0.17279342
399,1778428963980,0.3384953599999999,0.0618023845,1.541454225,-0.02962609275,-0.94902754,-0.1851630725
400,1778428963990,0.349200601111111,0.0730699788888888,1.5718159333333332,-0.0574875135555555,-1.2860626000000002,-0.2330636833333333
401,1778428964000,0.34312975,0.07857166,1.5911903,-0.076966755,-1.4314442,-0.25159273
402,1778428964010,0.33215353,0.07564466,1.6050937,-0.076966755,-1.4314442,-0.25159273
403,1778428964020,0.33215353,0.07564466,1.6050937,-0.076966755,-1.4314442,-0.25159273
404,1778428964030,0.33215353,0.07564466,1.6050937,-0.076966755,-1.4314442,-0.25159273
405,1778428964040,0.33215353,0.07564466,1.6050937,-0.081548109375,-1.45688025,-0.25304349125
406,1778428964050,0.4061909714285714,0.0528210272857142,1.5238607,-0.0251320011428571,-2.312973142857143,-0.2637223885714285
407,1778428964060,0.4236528,0.049545575,1.4972215,-0.010384403,-2.4259799,-0.26380965
408,1778428964070,0.417958835,0.0624121795,1.360593875,-0.0029778805624999,-2.5765537750000003,-0.254570605
409,1778428964080,0.44764807,0.06445498,1.284110675,-0.035887276875,-2.6451977500000003,-0.2381540762499999
410,1778428964090,0.45588025,0.06418057,1.2605003,-0.098957255,-2.725906,-0.22960222
411,1778428964100,0.45588025,0.06418057,1.2605003,-0.098957255,-2.725906,-0.22960222
412,1778428964110,0.4586853,0.03703722075,1.230856875,-0.2854183775,-2.9316087625,-0.1757713
413,1778428964120,0.4731983499999999,0.00951275,1.1890023,-0.38605547,-3.1406713,-0.13553174
414,1778428964130,0.47319835,0.00951275,1.1890023,-0.38605547,-3.1406713,-0.13553174
415,1778428964140,0.4555143925,-0.0108847815,1.020970375,-0.41476528625,-3.5467319375,-0.0632226925
416,1778428964150,0.4488067,-0.0160985,0.9656966,-0.41843036,-3.6989856,-0.03413109
417,1778428964160,0.44002566,-0.028050419,0.90297955,-0.3728204444444444,-3.8303856,-0.0159414163333333
418,1778428964170,0.4381788942857142,-0.0530649425714285,0.8276092857142857,-0.3115321,-3.9097278,-0.0121405889999999
419,1778428964180,0.4388873866666666,-0.0774435426666666,0.7693233333333334,-0.2674832355555556,-3.9121034333333338,-0.0363029914444444
420,1778428964190,0.44856276125,-0.0994265325,0.705243125,-0.17409147,-3.898427275,-0.0794864985
421,1778428964200,0.4595390299999999,-0.10079856,0.676259,-0.08063184,-3.9671476,-0.096437514
422,1778428964210,0.4725275625,-0.091522103125,0.5900649,0.0780357375,-4.105046375,-0.1421746975
423,1778428964220,0.4699054525,-0.074668988,0.50889404,0.1733279087499999,-4.1792642375,-0.18073442875
424,1778428964230,0.4566119925,-0.056558179,0.4097571525,0.2286095875,-4.197742225,-0.203793915
425,1778428964240,0.45185561,-0.04417940675,0.2963816225,0.29778804,-4.0725187,-0.233878145
426,1778428964250,0.45874627,-0.03844736525,0.236408625,0.32924667125,-3.982876825,-0.2415137325
427,1778428964260,0.4752919444444445,-0.0383796106666666,0.1845466711111111,0.3872771688888889,-3.8416524,-0.2499637933333333
428,1778428964270,0.49542522,-0.036861908,0.15229547,0.430876385,-3.746860725,-0.2583120237499999
429,1778428964280,0.5241362999999999,-0.0210581403333333,0.0832162363333333,0.4732030066666666,-3.6447560111111112,-0.2674068622222222
430,1778428964290,0.5485212033333333,-0.0050680465555555,0.0217085823333333,0.4984513733333333,-3.430077011111111,-0.2659137
431,1778428964300,0.57302123,0.014878917,-0.021220751,0.5120645500000001,-3.1758384428571427,-0.2498474342857142
432,1778428964310,0.5940590677777777,0.030767379,-0.0231178801111111,0.54345045,-3.0386596666666668,-0.2300094466666666
433,1778428964320,0.6201277,0.04686249,-0.027562585,0.58091575,-2.9641364,-0.2112768
434,1778428964330,0.62500601,0.0575135173333333,-0.0710915496666666,0.6166842388888889,-2.8925993333333335,-0.1920011733333333
435,1778428964340,0.6306160525,0.0594241945,-0.133125148,0.6523849,-2.71559785,-0.135226308125
436,1778428964350,0.6405353333333333,0.0420078704444444,-0.1797801388888888,0.6506881,-2.610116422222222,-0.1028174727777777
437,1778428964360,0.66145249,0.0128970936875,-0.25923386625,0.626423875,-2.397728175,-0.03718532775
438,1778428964370,0.67138064,-0.0034148335,-0.29187676,0.5943544,-2.2671597,0.004963134
439,1778428964380,0.6821129733333333,-0.0200011658333333,-0.3180774933333333,0.5655088277777778,-2.188088866666667,0.0239672706666666
440,1778428964390,0.68747914,-0.028294332,-0.33117786,0.53433864375,-2.10360525,0.041232189375
441,1778428964400,0.7412763488888889,-0.0309232102222222,-0.4086078511111111,0.4049238577777777,-1.672669488888889,0.0605502345555555
442,1778428964410,0.77293004,-0.00973760975,-0.3850453375,0.32390176,-1.22803205,0.03489465
443,1778428964420,0.79461956,0.022928167,-0.32190904,0.3115321,-1.1180795,0.012904149
444,1778428964430,0.7804350844444444,0.0475095496666666,-0.2964604044444445,0.3248350133333333,-1.1045730666666669,-0.0234751991111111
445,1778428964440,0.7673245977777777,0.0606031313333333,-0.3103941266666666,0.34146363,-1.1107494,-0.043904647
446,1778428964450,0.76239204,0.066863656,-0.34361762,0.34092065,-1.083464888888889,-0.0474339863333333
447,1778428964460,0.7642349822222223,0.0670804702222222,-0.4174837133333333,0.3272105133333333,-0.9498929666666668,-0.058768596
448,1778428964470,0.7662947250000001,0.0627780555,-0.4629614549999999,0.289999745,-0.8378534,-0.0568851515
449,1778428964480,0.7639165125,0.0513444584999999,-0.5121945,0.2363978875,-0.6933879625,-0.0597866745
450,1778428964490,0.7648312,0.0445046291111111,-0.5461395666666666,0.1852903322222222,-0.5491771322222222,-0.0695602302222222
451,1778428964500,0.765197075,0.0512529915,-0.57863134,0.110868775,-0.34993912,-0.079639213
452,1778428964510,0.76711790625,0.057411886625,-0.59888784375,0.0604738799999999,-0.21555273325,-0.0793337875
453,1778428964520,0.7703599533333334,0.0582452706666666,-0.6109401,-0.0276917416666666,0.015652958,-0.0707819233333333
454,1778428964530,0.7720343574999999,0.05637524375,-0.6082976999999999,-0.1081199637499999,0.21707984,-0.0614665029999999
455,1778428964540,0.7730290774999999,0.050399286,-0.5994519375,-0.1904316362499999,0.4143835125,-0.050242187625
456,1778428964550,0.7738662566666666,0.041658934,-0.5807452999999999,-0.2830259055555555,0.6526309444444445,-0.0273438981111111
457,1778428964560,0.77730143,0.036130156,-0.5698503,-0.335966,0.791429,-0.012751437
458,1778428964570,0.78260666,0.02714335225,-0.5398371375000001,-0.3975088625,1.00035782,0.00587940475
459,1778428964580,0.7848628933333334,0.0234160003333333,-0.4947646666666667,-0.45467398,1.2822192666666667,0.0210487783333333
460,1778428964590,0.7838872,0.022928167,-0.4607586,-0.46851984,1.4133478,0.020234315
461,1778428964600,0.7838872,0.022928167,-0.4607586,-0.46851984,1.4133478,0.020234315
462,1778428964610,0.76108862,0.0287936016249999,-0.354910195,-0.41270367375,1.6261517875,-0.0342838021625
463,1778428964620,0.7407444750000001,0.0339958859999999,-0.3130594275,-0.34650312,1.754506125,-0.07704311125
464,1778428964630,0.7267802325,0.0372277815,-0.2990723275,-0.2987043199999999,1.8869072,-0.09643751
465,1778428964640,0.72385323,0.03539841,-0.28407145,-0.26938364,2.0119781,-0.10376768
466,1778428964650,0.73376233375,0.028705945375,-0.23980439,-0.22738788875,2.1381944749999997,-0.1123958975
467,1778428964660,0.7537939874999999,0.01939137625,-0.17198413,-0.1630198574999999,2.3080101125,-0.12484191
468,1778428964670,0.7675143,0.01683025,-0.14031307,-0.1111742,2.404753,-0.1312558
469,1778428964680,0.7675143,0.01683025,-0.14031307,-0.1111742,2.404753,-0.1312558
470,1778428964690,0.777716875,0.0107018439,-0.069420973,-0.0143549105,2.6055690499999997,-0.1333937675
471,1778428964700,0.7838872,0.0065857503,-0.01975725,0.04886778,2.7504926,-0.13431004
472,1778428964710,0.7838872,0.0065857503,-0.01975725,0.04886778,2.7504926,-0.13431004
473,1778428964720,0.774488755,0.0220820819125,0.07913190375,0.06956023125,2.9528356875000004,-0.119267929
474,1778428964730,0.77190477,0.03442274,0.17083314,0.08429692,3.1078382,-0.100102596
475,1778428964740,0.77083763625,0.03533742775,0.1878844425,0.08773293625,3.1095180375,-0.095292174
476,1778428964750,0.7587332833333333,0.0436915746666666,0.32790532,0.1183007533333333,3.0927707,-0.057139672
477,1778428964760,0.74946445,0.04759424,0.36922884,0.13133216,3.0357583,-0.048180576
478,1778428964770,0.74946445,0.04759424,0.36922884,0.13133216,3.0357583,-0.048180576
479,1778428964780,0.7406834566666666,0.0584891866666666,0.3728266133333333,0.1252236866666666,2.9620492333333335,-0.0367780946666666
480,1778428964790,0.727199445,0.059241263625,0.40238246375,0.064062605,2.9820035125,-0.005955760125
481,1778428964800,0.7044720333333333,0.0376139837777777,0.5530776811111111,-0.1537298933333333,3.0436991,0.0904817516666666
482,1778428964810,0.7016263,0.026586918,0.59180284,-0.15820944,2.9093127,0.097811915
483,1778428964820,0.68632053125,0.018110813,0.6166785175,-0.10101886525,2.7673672125,0.085365901875
484,1778428964830,0.6780748,0.0207329163333333,0.6372289277777778,-0.0330536237777777,2.643051333333333,0.0646225488888889
485,1778428964840,0.6779664,0.021708583,0.63744575,-0.023212196,2.620993,0.060550235
486,1778428964850,0.629918575,0.06591466975,0.57915346875,-0.017332790125,2.6653555,0.011911521625
487,1778428964860,0.582534,0.0983594,0.6225668,-0.116943306111111,2.900285888888889,7.635586666666665e-05
488,1778428964870,0.582534,0.0983594,0.6225668,-0.12949961,2.92886,-0.0005344914
489,1778428964880,0.587412345,0.0712084235,0.73247795625,-0.1861556975,2.7928701,0.041232191175
490,1778428964890,0.5971080125,0.0144025169375,0.86931905,-0.2654894925,2.4273544,0.112930391875
491,1778428964900,0.5991203,0.0026830835,0.8785574,-0.27488127,2.3265646,0.12530005
492,1778428964910,0.5993032625000001,0.0138537048125,0.8814843875,-0.321611085,2.1943161250000003,0.13576080875
493,1778428964920,0.585247575,0.043173251875,0.8669713,-0.494204075,1.9168387125,0.14637428125
494,1778428964930,0.5613132,0.06100966,0.8346523,-0.6042043,1.9252379,0.13568445
495,1778428964940,0.5282538085714286,0.0608005828571428,0.8708304371428571,-0.7691330571428571,2.0582279714285714,0.1392622642857142
496,1778428964950,0.5162800937500001,0.0451245825,0.9442433775,-0.993924825,2.2048532,0.165615965
497,1778428964960,0.5144507,0.03125182,0.98252684,-1.0727241,2.2758641,0.18943901
498,1778428964970,0.5171338000000001,0.0200240315,1.008641155,-1.0859336750000002,2.2706719250000003,0.20547375125
499,1778428964980,0.5407671125,-0.02366372925,1.1075989,-1.1260205625,2.1715621625000003,0.2726669524999999
500,1778428964990,0.5585082,-0.043447657625,1.132230775,-1.0933401749999998,1.877897125,0.3048891299999999
501,1778428965000,0.55329451875,-0.050765157,1.130184175,-0.999727835,1.55414815,0.32229829
502,1778428965010,0.54347303125,-0.05049075075,1.0881390375,-0.8729770925,1.3174448749999998,0.3232145575
503,1778428965020,0.50621095,-0.048996761,1.013100215,-0.7387434125,1.2746855,0.3155789625
504,1778428965030,0.4617343,-0.050277323,0.98911256,-0.6439094,1.4377817,0.30916506
505,1778428965040,0.4369157575,-0.05789971975,1.071068645,-0.5069363925,1.7835976125,0.31099760125
506,1778428965050,0.469547225,-0.07217647125,1.19590055,-0.2946574475,1.988536925,0.31153209875
507,1778428965060,0.5128246511111111,-0.1005817488888888,1.2613947333333333,-0.0730301816666666,1.7664853555555555,0.2912468733333333
508,1778428965070,0.5227787657142857,-0.1179424228571428,1.2431343714285714,0.027226335,1.595991142857143,0.2732123428571428
509,1778428965080,0.5174048444444445,-0.1313694533333333,1.1899373111111111,0.1453816433333333,1.3610186333333332,0.2383067944444444
510,1778428965090,0.50566975,-0.139825225,1.13456315,0.1930277249999999,1.19588625,0.2129566199999999
511,1778428965100,0.4798946262499999,-0.13470297875,1.1071987125,0.1934095125,1.0820873375,0.196463745
512,1778428965110,0.4331858366666667,-0.1203931999999999,1.1089468,0.1790461288888888,1.027699622222222,0.1848237133333333
513,1778428965120,0.4095665725,-0.107140395,1.13640775,0.1646233375,1.078527275,0.1769166362499999
514,1778428965130,0.41487178,-0.09470064,1.1616532,0.16248538,1.0993724,0.17477867
515,1778428965140,0.4469908266666666,-0.0822575097777777,1.1839071333333335,0.2140001533333333,1.0496647,0.16215449
516,1778428965150,0.4643563425,-0.0758275975,1.1791807625,0.26900187125,1.0185114875,0.145534362
517,1778428965160,0.4675882475,-0.0711322014999999,1.1622019,0.367577345,1.022195625,0.110028862
518,1778428965170,0.4629809244444445,-0.0683542608888889,1.1599456888888888,0.4442895688888889,1.0644862222222224,0.0778575715555555
519,1778428965180,0.4564900275,-0.06588799125,1.2068616,0.5034145,1.0883007875,0.06513159
520,1778428965190,0.4507579875,-0.06387568125,1.289114875,0.56228492625,1.070175725,0.049478628625
521,1778428965200,0.4573979377777777,-0.0590854295555555,1.3595677444444445,0.58213747,1.0266051,0.036116343
522,1778428965210,0.4550265575,-0.03331749225,1.4420124749999998,0.625965715,0.85068115,-0.012140589
523,1778428965220,0.44234289,-0.00762239675,1.45233315,0.64673452,0.608327515,-0.03779617325
524,1778428965230,0.42648069,0.011220166,1.4148005,0.6113053725,0.3184805025,-0.049402271
525,1778428965240,0.4106032375,0.009695687,1.369645475,0.55403846,0.0787229425,-0.05047125525
526,1778428965250,0.3904801,0.00512225,1.3215101,0.48256934,-0.12239852,-0.048180576
527,1778428965260,0.39401689875,0.0023781875125,1.3234614,0.3824667425,-0.26380966625,-0.059557605875
528,1778428965270,0.39828545,0.0,1.3290715,0.335966,-0.3300866,-0.06956023
529,1778428965280,0.390388645,0.0053356773749999,1.3483065375,0.2376195875,-0.5684697275,-0.07918107375
530,1778428965290,0.3773560133333333,0.0158274808888888,1.3608924777777778,0.1563769,-0.7635166622222223,-0.0848992839999999
531,1778428965300,0.36727753,0.021708583,1.3910568,0.1044548825,-0.9121476975,-0.0895654759999999
532,1778428965310,0.375517325,0.0209158537499999,1.444878475,0.127361655,-1.008737895,-0.097048357
533,1778428965320,0.3991255711111111,0.0184563598888888,1.4881965444444445,0.2090455066666666,-1.1749562111111111,-0.1263011577777777
534,1778428965330,0.40874333375,0.021251239875,1.49914235,0.3077143125,-1.306678675,-0.167906645
535,1778428965340,0.41365218,0.0248795,1.4920993,0.37139514,-1.3996801,-0.19722731
536,1778428965350,0.43438128,0.038138657625,1.4686222625,0.416292405,-1.5375789625,-0.2399866175
537,1778428965360,0.4500262733333333,0.047756849,1.4233554333333334,0.3991547422222222,-1.735790388888889,-0.2564116233333333
538,1778428965370,0.45978296,0.048569907,1.3820319,0.35734564,-1.917755,-0.24548425
539,1778428965380,0.46010816,0.0459681289999999,1.359266366666667,0.2858765088888889,-2.0321870555555552,-0.2436517022222222
540,1778428965390,0.4639904775,0.03917911475,1.306379575,0.155155205,-2.20943455,-0.24548424
541,1778428965400,0.47179582,0.04393548775,1.2614759750000002,0.09620844325,-2.25463715,-0.2496074575
542,1778428965410,0.4760034025,0.0565581775,1.21984625,0.0050394902499999,-2.28945545,-0.24594238
543,1778428965420,0.4826603022222222,0.0638553511111111,1.199761688888889,-0.0332572386666666,-2.326004488888889,-0.2361179199999999
544,1778428965430,0.495181325,0.068875969,1.171554625,-0.105982,-2.4160535999999997,-0.2221193374999999
545,1778428965440,0.5093285000000001,0.059952684,1.15523,-0.1696119233333333,-2.5567011666666666,-0.2120912566666666
546,1778428965450,0.5186515155555556,0.0536108511111111,1.1313736,-0.2063984988888888,-2.7293673666666667,-0.2062542744444444
547,1778428965460,0.51353608125,0.050063895,1.08056995,-0.2149418725,-2.847159125,-0.199747055
548,1778428965470,0.5046941,0.05174082,1.0515857,-0.20768806,-2.897554,-0.19172968
549,1778428965480,0.5001511375000001,0.04908823,0.99402519375,-0.16859384625,-2.9109926,-0.1721825725
550,1778428965490,0.502011,0.04759424,0.96740395,-0.14171657,-2.9146576,-0.15996562
551,1778428965500,0.5093285000000001,0.04271590625,0.94604223125,-0.1093416624999999,-2.990937225,-0.1449235125
552,1778428965510,0.525548925,0.0115555519,0.83903145,-0.06368083,-3.107380075,-0.1274380125
553,1778428965520,0.5272157,0.0001084075333333,0.7847476777777778,-0.02097242242,-3.1359881,-0.1259617933333333
554,1778428965530,0.52481722,-0.0079272915,0.7218865999999999,0.0142785548375,-3.090352675,-0.12942326125
555,1778428965540,0.525427005,-0.00853708325,0.70260195,0.050623966875,-3.0615664875,-0.124994623125
556,1778428965550,0.5336659666666667,-0.0053390645555555,0.6634059400000001,0.1493860888888888,-3.1163729777777776,-0.1155095196666666
557,1778428965560,0.53463485,-0.0066467295,0.6166442225,0.2462478,-3.2059555375,-0.1169008964999999
558,1778428965570,0.5269514175,-0.01429961575,0.5749078212500001,0.31672431,-3.2735305749999997,-0.1204132679999999
559,1778428965580,0.5180552888888889,-0.0196217408888888,0.5162123722222223,0.3625039111111111,-3.4027246555555557,-0.13342771
560,1778428965590,0.5149386,-0.018537667,0.49249825,0.3586436899999999,-3.4645729375,-0.1429382625
561,1778428965600,0.5044501666666666,0.0126938301333333,0.4261122566666666,0.2704017199999999,-3.4383575333333334,-0.1383823566666666
562,1778428965610,0.514816625,0.037593656875,0.39758417625,0.1478250375,-3.4464003,-0.10224056
563,1778428965620,0.5255184675,0.049759000625,0.37953053,0.062230070625,-3.5025981125,-0.06780404125
564,1778428965630,0.5397774177777778,0.048895131,0.3296194888888888,0.0146603342,-3.586589766666666,-0.0182490619999999
565,1778428965640,0.5450012975,0.04716738825,0.292757155,0.010308047275,-3.63079975,0.0070247435
566,1778428965650,0.55704469,0.04180121975,0.2136633775,0.0554343875,-3.61942265,0.0213032985
567,1778428965660,0.57771663,0.047899136,0.1266689775,0.11789352,-3.5522296,0.02008160475
568,1778428965670,0.59472984,0.056863073,0.04905774,0.16370706,-3.4674745,0.017790927
569,1778428965680,0.5966506874999999,0.060338886875,0.02279477475,0.1730988375,-3.4005866874999997,0.0166455885
570,1778428965690,0.6266524375,0.1044268225,-0.0732969575,0.20341213,-2.8566272,0.026953636
571,1778428965700,0.6440315,0.11250656,-0.08320607,0.19730367,-2.6269486,0.03978143
572,1778428965710,0.6590560688888889,0.1065983555555555,-0.0818780811111111,0.2018510866666666,-2.573872777777778,0.0425641784444444
573,1778428965720,0.697723595,0.07938725075,-0.1018199675,0.2232646724999999,-2.455911425,0.042530242
574,1778428965730,0.6991871,0.050277323,-0.15619814,0.23884128,-2.4504137,0.026953636
575,1778428965740,0.6991871,0.050277323,-0.15619814,0.23884128,-2.4504137,0.026953636
576,1778428965750,0.6991871,0.050277323,-0.15619814,0.23884128,-2.4504137,0.026953636
577,1778428965760,0.7439545571428571,0.0490228952857142,-0.3051353857142857,0.2947774442857143,-1.8054353857142855,-0.0147585052857142
578,1778428965770,0.75922114,0.060033992,-0.3228847,0.31580803,-1.551781,-0.026800923
579,1778428965780,0.75922114,0.060033992,-0.3228847,0.31580803,-1.551781,-0.026800923
580,1778428965790,0.75989191,0.061040148,-0.3236469375,0.31588438875,-1.540327625,-0.026266431625
581,1778428965800,0.78291154,0.055399574,-0.35874045,0.3206948,-1.3337086,-0.010918895
582,1778428965810,0.78291154,0.055399574,-0.35874045,0.3206948,-1.3337086,-0.010918895
583,1778428965820,0.77548730625,0.0477161985,-0.40398317625,0.3092414225,-1.2620104125,-0.01061347125
584,1778428965830,0.7689778,0.039057158,-0.47197875,0.28465483,-1.1223555,-0.007253811
585,1778428965840,0.774229625,0.039240095,-0.48613355,0.263275175,-1.0539406075,0.0041995754999999
586,1778428965850,0.7902595075,0.038260615875,-0.53280932375,0.190431635,-0.83319567625,0.043141089375
587,1778428965860,0.79218036,0.027562585,-0.56228894,0.12949961,-0.7246939,0.07521057
588,1778428965870,0.79218036,0.027562585,-0.56228894,0.12949961,-0.7246939,0.07521057
589,1778428965880,0.7772743488888889,0.0137948434444444,-0.6131862044444444,-0.0130314084444444,-0.4059673844444444,0.1354808366666666
590,1778428965890,0.77632576,0.009024917,-0.6254938,-0.092237934,-0.2268534,0.16134003
591,1778428965900,0.77632576,0.009024917,-0.6254938,-0.092237934,-0.2268534,0.16134003
592,1778428965910,0.762696935,0.0197305725,-0.63957999,-0.2247918,0.15248275,0.19921257
593,1778428965920,0.7710206000000001,0.0306013786666666,-0.6239490566666667,-0.2837046177777778,0.4581778611111111,0.22201753
594,1778428965930,0.7833994,0.03222749,-0.61402977,-0.31214294,0.6197809,0.22792238
595,1778428965940,0.7880338,0.030763991,-0.5966811,-0.323596345,0.9426328,0.2228828924999999
596,1778428965950,0.78014718,0.034504045,-0.53626096,-0.31397548,1.148851,0.2150946
597,1778428965960,0.7775454,0.040032823,-0.50225496,-0.31397548,1.148851,0.2150946
598,1778428965970,0.7643434,0.041435342,-0.4464208625,-0.24540789,1.656006925,0.1790545975
599,1778428965980,0.7511719,0.042715907,-0.4180427,-0.2211267,1.8049009000000005,0.1698919
600,1778428965990,0.7511719,0.042715907,-0.4180427,-0.2211267,1.8049009,0.1698919
601,1778428966000,0.731536595,0.0071955416999999,-0.343617615,-0.18302511,2.12215975,0.11468656875
602,1778428966010,0.727451005,0.0010366458749999,-0.3205598625,-0.1702736749999999,2.2439475,0.07719582
603,1778428966020,0.7206823,-0.0017074167,-0.29016936,-0.15149012,2.360772,0.03917058
604,1778428966030,0.71775526,0.009268833,-0.23891638,-0.10384403,2.516538,-0.005421269
605,1778428966040,0.7124670833333333,0.0408729836666666,-0.19053619,-0.0515147857777777,2.7422799,-0.0373210706666666
606,1778428966050,0.7043094,0.058326576,-0.15790555,-0.028709821,2.908091,-0.046348035
607,1778428966060,0.70211416,0.068571076,-0.09616415,-0.021379653,3.100508,-0.051845662
608,1778428966070,0.699278625,0.0543857963749999,-0.0591917175,-0.0283280416249999,3.1483831625,-0.0587940505
609,1778428966080,0.69308925,0.020976834,0.0219525,-0.0452027,3.236727,-0.07566871
610,1778428966090,0.6851923925000001,-0.0044209895,0.06060948375,-0.0637571815,3.2784173625,-0.09712471375
611,1778428966100,0.67738707875,-0.0213731985,0.12745027525,-0.0716981959999999,3.3386621375,-0.1050657325
612,1778428966110,0.6801887211111111,-0.0020055371111111,0.2147516866666666,-0.0834824566666666,3.4543922888888887,-0.1082472242222222
613,1778428966120,0.66945979375,0.033336548125,0.2891441575,-0.088420140625,3.4813712624999997,-0.098957256
614,1778428966130,0.65966882375,0.05482027125,0.32767155,-0.081777174375,3.4354050875,-0.06925480575
615,1778428966140,0.6386924266666667,0.0722569266666666,0.3542415222222222,-0.0748627222222222,3.422424611111111,-0.0230679673333333
616,1778428966150,0.6249145275,0.074425076875,0.3685009125,-0.0792574299999999,3.4589991,-0.002367032875
617,1778428966160,0.6048388444444445,0.0635301333333333,0.4160405377777778,-0.0904732648888888,3.5066535444444447,0.0203700585555555
618,1778428966170,0.5794545125,0.040093802625,0.48360675,-0.086587598,3.5638355500000003,0.03092414275
619,1778428966180,0.5686307,0.032471407,0.5090846,-0.087962,3.6050677,0.03000787
620,1778428966190,0.5394559999999999,0.029159477,0.63592128125,-0.1191915725,3.6662289125,0.0271827035
621,1778428966200,0.53991335,0.031800636125,0.7172713,-0.1227803025,3.5781906,0.02710634775
622,1778428966210,0.5678176866666668,0.044748546,0.7580828666666667,-0.1099525055555555,3.3804798000000003,0.0285825613333333
623,1778428966220,0.5886623824999999,0.050246834875,0.75226950625,-0.0980409825,3.1435728000000003,0.0226777055
624,1778428966230,0.5815583175,0.057289928,0.7139059725,-0.1270562325,3.06049755,0.0124460131249999
625,1778428966240,0.5464267125,0.05625328425,0.7234111049999999,-0.2261661975,3.1903025,0.016111095875
626,1778428966250,0.5376228,0.049301658,0.7821798,-0.2870982,3.280097,0.03672719
627,1778428966260,0.5377333375,0.0187091712375,0.8912944125000001,-0.36856997625,3.23756685,0.0601684539999999
628,1778428966270,0.5269819625000001,-0.0073479897375,0.9733837875,-0.4448495225,3.141892875,0.077348533
629,1778428966280,0.5397075275000001,-0.02864115325,1.0693726375,-0.4865398325,2.8638046875,0.110105215
630,1778428966290,0.5586030577777777,-0.0324985088888888,1.088014066666667,-0.4964830777777778,2.5901791333333333,0.1291008722222222
631,1778428966300,0.5486296,-0.032715324,1.084545,-0.49051034,2.3436682,0.14973393
632,1778428966310,0.533118005,-0.03417882375,1.06502785,-0.4680617075,2.22959245,0.1657686825
633,1778428966320,0.50396234,-0.039544992,1.0162178,-0.45189123,2.108492,0.1754573955555555
634,1778428966330,0.4739301,-0.04466724,1.0242671,-0.438893765,2.131856975,0.19272231125
635,1778428966340,0.4457712777777777,-0.0582181667777777,1.121881222222222,-0.3996977333333333,2.2880811333333337,0.2293476933333333
636,1778428966350,0.4521605475,-0.057930206875,1.2437845125,-0.382695815,2.2951822374999997,0.245942375
637,1778428966360,0.46295386,-0.05259453125,1.312309825,-0.35978904,2.2276073,0.2566322
638,1778428966370,0.47246656,-0.043447655,1.3476397,-0.29931515,2.0669544,0.25357798
639,1778428966380,0.483004575,-0.019360886125,1.3443657624999998,-0.2171562,1.811314825,0.2416664475
640,1778428966390,0.4681845333333332,-0.0161256028888888,1.3195045,-0.1383908366666666,1.6181853333333334,0.2399357155555555
641,1778428966400,0.4446601,-0.02561125,1.2885813,-0.06474981,1.497034,0.23708509
642,1778428966410,0.4107252,-0.041740242,1.2605003,-0.030542362,1.4658808,0.21081866
643,1778428966420,0.4107252,-0.041740242,1.2605003,-0.030542362,1.4658808,0.21081866
644,1778428966430,0.37270848875,-0.069485764,1.324128375,0.0074065227499999,1.486191475,0.18569755875
645,1778428966440,0.36727753,-0.07344941,1.3332181,0.012827792,1.489093,0.18210883
646,1778428966450,0.36727753,-0.07344941,1.3332181,0.012827792,1.489093,0.18210883
647,1778428966460,0.36727753,-0.07344941,1.3332181,0.012827792,1.489093,0.18210883
648,1778428966470,0.38156952125,-0.05225914625,1.342368725,-0.007635591375,0.9747786,0.06055023275
649,1778428966480,0.3714850888888888,-0.0428785157777777,1.3290444,0.1170790583333333,0.6816800888888888,0.0230849361111111
650,1778428966490,0.38535786,-0.048569907,1.3298032,0.310310405,0.5551837875,0.008475506
651,1778428966500,0.41194475,-0.056131326,1.3119973,0.40743512,0.4750101,-0.03229855
652,1778428966510,0.4044646766666667,-0.043854184,1.283835,0.50659599,0.3939710266666666,-0.1259617966666666
653,1778428966520,0.39682195,-0.033447072,1.2783062,0.54243237,0.35528404,-0.16301987
654,1778428966530,0.3891385475,-0.0191474595,1.25995155,0.5549547349999999,0.2777064425,-0.22105035
655,1778428966540,0.3780403475,-0.0113421255,1.239333,0.506850515,0.210971375,-0.2534252575
656,1778428966550,0.3826747733333333,-0.00951275,1.2234758666666667,0.43492324,0.1223476176666666,-0.2471131766666666
657,1778428966560,0.3832540875,-0.012439750125,1.214400125,0.3524588675,0.006948386875,-0.23196924375
658,1778428966570,0.3785282,-0.014878917,1.216077,0.29442838,-0.06253549,-0.2216612
659,1778428966580,0.36744014,-0.0189441936666666,1.2543212,0.1795212277777778,-0.2101569066666666,-0.2100551033333333
660,1778428966590,0.36306995875,-0.019970677875,1.28791435,0.0956739544999999,-0.3297048099999999,-0.2158581475
661,1778428966600,0.36435053,-0.011220166,1.336389,0.004275931,-0.46813807,-0.22654797
662,1778428966610,0.368199845,0.0054881255,1.38349535,-0.02733541475,-0.5944307562500001,-0.22929679
663,1778428966620,0.3805066077777778,0.0172909817777777,1.4385764222222222,-0.0071265522222222,-0.7984028355555556,-0.2213897044444444
664,1778428966630,0.38828486,0.022013480125,1.4647806,0.0737598075,-0.951318275,-0.2080698449999999
665,1778428966640,0.38828486,0.022928167,1.4733176,0.15393351,-1.0466105,-0.19661646
666,1778428966650,0.38869138,0.026190553,1.476569866666667,0.2649719711111111,-1.1577167444444445,-0.1804629422222222
667,1778428966660,0.3948164066666667,0.0306013783333333,1.479551088888889,0.3891097133333333,-1.2807684999999998,-0.1491739933333333
668,1778428966670,0.41146076875,0.0337824575,1.4860927875,0.44164258,-1.3349303,-0.1312558
669,1778428966680,0.43368387,0.036130156,1.498685,0.44164258,-1.3349303,-0.1312558
670,1778428966690,0.4518962966666666,0.0545594155555555,1.4893619777777778,0.5355773533333333,-1.702049588888889,-0.1171384444444444
671,1778428966700,0.44289169625,0.071589541625,1.4527409999999998,0.54243239,-1.9073706,-0.1114032675
672,1778428966710,0.43124464,0.07857166,1.4349922,0.51494426,-1.9770072,-0.10315683
673,1778428966720,0.4325455622222222,0.0820406911111111,1.4087508666666666,0.4182946355555555,-2.140239155555556,-0.0565966971111111
674,1778428966730,0.4511848512499999,0.08046201,1.3501892875,0.315808025,-2.353899875,0.0014507614999999
675,1778428966740,0.46612477,0.07710816,1.3068751,0.24617144,-2.5041683,0.03672719
676,1778428966750,0.46612477,0.07710816,1.3068751,0.24617144,-2.5041683,0.03672719
677,1778428966760,0.48822588,0.09372498,1.1701215875,0.034436512,-2.903204375,0.09857547875
678,1778428966770,0.4818709355555556,0.1003649322222222,1.078142188888889,-0.0464922631111111,-3.0265106,0.1271325911111111
679,1778428966780,0.47466183,0.10567689,1.0215839,-0.09590302,-3.0502658,0.14851224
680,1778428966790,0.47747832375,0.10555494,0.9787499375,-0.13950224,-3.035987225,0.18707197875
681,1778428966800,0.4944224888888889,0.1010153842222222,0.9537920666666666,-0.1394089244444444,-3.067980433333333,0.2260219777777777
682,1778428966810,0.5088407,0.091529734,0.9351765,-0.1142284349999999,-3.1107397,0.2407501799999999
683,1778428966820,0.49533381,0.0635301266666666,0.9174518666666668,-0.0219905033333333,-3.1868919666666664,0.2466550333333333
684,1778428966830,0.47600339375,0.030661087875,0.8989129625,0.1101052175,-3.228327675,0.242124585
685,1778428966840,0.4741739999999999,0.014635001,0.8856309,0.22051586,-3.2182488,0.22608984
686,1778428966850,0.4875352155555556,0.0241308123333333,0.8199428666666666,0.4326834733333333,-3.2475015000000003,0.1641227766666666
687,1778428966860,0.48981518,0.03539841,0.7645873,0.5271612,-3.2836094,0.1246892
688,1778428966870,0.48981518,0.03539841,0.7645873,0.5271612,-3.2836094,0.1246892
689,1778428966880,0.48794388,0.049423614125,0.5759444149999999,0.615046835,-3.4962606125,0.049325914875
690,1778428966890,0.480820755,0.049179697,0.5029180375,0.639709795,-3.520465475,0.01824906145
691,1778428966900,0.4788084,0.046618573,0.45588025,0.6493306,-3.5163422,-0.0023670332
692,1778428966910,0.48664088,0.0411982032222222,0.3827865522222222,0.6504165822222222,-3.4647596222222226,-0.0284298507999999
693,1778428966920,0.50927134875,0.03826442775,0.3090500425,0.6163449037500001,-3.34049465,-0.048104220625
694,1778428966930,0.54960525,0.037105825,0.2582163,0.5870242,-3.2603972,-0.053067356
695,1778428966940,0.5783569187500001,0.041099959125,0.2018639225,0.5218162749999999,-3.2201576875,-0.0613901505
696,1778428966950,0.59277850625,0.0410999581249999,0.1676317375,0.44668206,-3.186637375,-0.05688515175
697,1778428966960,0.59765685,0.037593655,0.1586373,0.41415444,-3.1962583,-0.046348035
698,1778428966970,0.61076353125,0.037349740125,0.10121398175,0.38613182875,-3.22367005,-0.04344651175
699,1778428966980,0.6201277,0.039057158,0.0278065019999999,0.34329617,-3.1883173,-0.043904647
700,1778428966990,0.6201277,0.039057158,0.027806502,0.34329617,-3.1883173,-0.043904647
701,1778428967000,0.6467973428571429,0.0540754562857142,-0.0352503157142857,0.2901524542857143,-2.9209408,-0.0535036748571428
702,1778428967010,0.66113615,0.06305246125,-0.071745804,0.25281441625,-2.72468425,-0.0650552299999999
703,1778428967020,0.6662584,0.06198532,-0.0939689,0.24800399,-2.604958,-0.06772769
704,1778428967030,0.677935905,0.05799118825,-0.104152415625,0.25892288875,-2.5136364,-0.0715454825
705,1778428967040,0.7093909777777778,0.0556163877777777,-0.1329549116666666,0.30318385,-2.3280408,-0.0754650866666666
706,1778428967050,0.71726745,0.05710699,-0.14570972,0.33169007,-2.214016,-0.07383616
707,1778428967060,0.71726745,0.05710699,-0.14570972,0.33169007,-2.214016,-0.07383616
708,1778428967070,0.71726745,0.05710699,-0.14570972,0.33169007,-2.214016,-0.07383616
709,1778428967080,0.74629354,0.05271649,-0.22135438,0.49173203,-1.8627787,-0.09460497
710,1778428967090,0.74629354,0.05271649,-0.22135438,0.49173203,-1.8627787,-0.09460497
711,1778428967100,0.74629354,0.05271649,-0.22135438,0.49173203,-1.8627787,-0.09460497
712,1778428967110,0.7466768328571429,0.0511484545714285,-0.25555498,0.5138970657142857,-1.767901042857143,-0.1062983328571428
713,1778428967120,0.74043953,0.049301658,-0.39413884,0.55403847,-1.5114652,-0.1349209
714,1778428967130,0.74043953,0.049301658,-0.39413884,0.55403847,-1.5114652,-0.1349209
715,1778428967140,0.7166968785714286,0.0575599782857142,-0.5805129914285715,0.2757539057142857,-1.3478453714285714,-0.029942425
716,1778428967150,0.7053460475000001,0.06088769625,-0.68087816,0.014889405,-1.2327661,0.062000995
717,1778428967160,0.70260197,0.057594825,-0.75702584,-0.17409147,-1.1296856,0.12957597
718,1778428967170,0.7154990922222222,0.044856954,-0.7810889533333333,-0.3599926544444444,-0.8838535388888888,0.1954796077777778
719,1778428967180,0.72580457,0.036861908,-0.78900945,-0.4807368,-0.7075902,0.23525254
720,1778428967190,0.75981948875,0.03120227925,-0.76825748125,-0.621661145,-0.3674246255,0.26732202625
721,1778428967200,0.81218153,0.02930049,-0.7047972,-0.75508356,0.085900396,0.29389387
722,1778428967210,0.8273120125,0.04436234525,-0.6244495025000001,-0.73110781875,0.512806275,0.28686914375
723,1778428967220,0.83099365,0.05588741,-0.57302123,-0.6758261375,0.746846675,0.27770643375
724,1778428967230,0.8212335833333333,0.0746689933333333,-0.4913836788888889,-0.5355009555555555,1.1259780888888888,0.2656591777777777
725,1778428967240,0.7992539666666666,0.0851675733333333,-0.4322101733333333,-0.4064170355555556,1.4190490999999998,0.2625370588888889
726,1778428967250,0.7757083825,0.086094965,-0.4008465599999999,-0.3465030975,1.56147825,0.26625305
727,1778428967260,0.73798894375,0.074729972375,-0.3781508624999999,-0.3068743875,1.67899005,0.27289601
728,1778428967270,0.6977236333333333,0.0516798467777777,-0.3658140311111111,-0.3073919155555555,1.7186357333333335,0.2757042022222222
729,1778428967280,0.6561548975,0.0146654905,-0.37494185,-0.3414636175,1.7261016,0.274499475
730,1778428967290,0.64378756,-0.006829667,-0.3873092,-0.37811446,1.7370969,0.26946
731,1778428967300,0.6513794900000001,-0.0348462063333333,-0.38828486,-0.4127291533333333,1.8181359666666663,0.2564285933333333
732,1778428967310,0.6732709975,-0.061619447,-0.369800545,-0.4403445175,2.0544320249999997,0.195700195
733,1778428967320,0.6884548,-0.05905832,-0.34581286,-0.43919918,2.2147794,0.15523157
734,1778428967330,0.6918696624999999,-0.031926406625,-0.30694246375,-0.4258368975,2.5076807499999996,0.13064495375
735,1778428967340,0.68805844375,0.02629345525,-0.22818024625,-0.4063661425,2.8864061,0.1353790225
736,1778428967350,0.6796738,0.06540016,-0.16473523,-0.39888325,3.1860266,0.15523157
737,1778428967360,0.6610447,0.0764577133333333,-0.0521371832333333,-0.4070279,3.3243496222222224,0.1781043955555555
738,1778428967370,0.6563797625,0.06027790925,0.0125655197625,-0.40132666375,3.355842225,0.17897823875
739,1778428967380,0.64689749,0.0278903447499999,0.0585704895,-0.37567106,3.3216348,0.1570641
740,1778428967390,0.63787936,0.0013279909999999,0.08337546,-0.3432282733333333,3.3929680666666666,0.1096216306666666
741,1778428967400,0.6266862888888888,-0.0236328155555555,0.1616964277777778,-0.282007811111111,3.6189986,0.0579032308888888
742,1778428967410,0.618969025,-0.018324240625,0.25299494875,-0.186308415,3.9557705,0.0022143214999999
743,1778428967420,0.6076879,-0.002927,0.33215353,-0.14904673,4.113369,-0.02069245
744,1778428967430,0.59064424,0.02256991375,0.4750963099999999,-0.0809372575,4.177813325000001,-0.0391705799999999
745,1778428967440,0.5826153066666666,0.0391384609999999,0.5444626333333333,-0.0312889526222222,4.019502233333333,-0.0405110524444444
746,1778428967450,0.5736920249999999,0.0372201587499999,0.5449632,-0.0018325418,3.8085563,-0.037185326
747,1778428967460,0.5610693,0.022196416,0.5244513,-0.014049487,3.6698177,-0.02741177
748,1778428967470,0.5289502388888888,-0.0045531111333333,0.53521414,-0.0464922644444444,3.7293498666666665,-0.0107152787622222
749,1778428967480,0.5042595999999999,-0.033851059,0.5934035200000001,-0.11774081,4.00402745,0.001756185855
750,1778428967490,0.4877457062499999,-0.060704758,0.7353897125,-0.18753011,4.3282346,0.00236703325
751,1778428967500,0.5016044777777778,-0.0684897662222222,0.9001676555555557,-0.1978466388888889,4.422525688888888,-0.0071859388888888
752,1778428967510,0.5285446,-0.0422204505,1.08026115,-0.14866495,4.200796525,-0.0222195692499999
753,1778428967520,0.5488735,-0.012195834,1.1662875,-0.0912877288888888,3.9034328777777776,-0.0239503036666666
754,1778428967530,0.55329068625,0.0251462839999999,1.1675567,-0.0082464387499999,3.3772981625000003,-0.0221432131624999
755,1778428967540,0.5347872850000001,0.0609486749999999,1.1308548875,0.10369132,2.8060796249999997,0.013973131275
756,1778428967550,0.5034643666666666,0.0478381586666666,1.0577853,0.2113531544444444,2.540428944444445,0.0561385604444444
757,1778428967560,0.436595585,0.0462526994999999,1.03903925,0.28831992,2.5855637,0.07704311
758,1778428967570,0.40633467,0.056375243,1.0596654,0.28831992,2.5855637,0.07704311
759,1778428967580,0.40633467,0.056375243,1.0596654,0.28831992,2.5855637,0.07704311
760,1778428967590,0.40633467,0.056375243,1.0596654,0.28831992,2.5855637,0.07704311
761,1778428967600,0.4388899324999999,0.05875343025,1.226573125,-0.11086877375,2.6124410124999997,0.113617589375
762,1778428967610,0.48338862,0.0543426,1.2639151888888889,-0.3956932733333333,2.113718177777778,0.2006378766666666
763,1778428967620,0.47807667,0.061741404,1.2383039,-0.4422534,1.8262806,0.25052375
764,1778428967630,0.47807667,0.061741404,1.2383039,-0.4422534,1.8262806,0.25052375
765,1778428967640,0.47807667,0.061741404,1.2383039,-0.4422534,1.8262806,0.25052375
766,1778428967650,0.3906901422222222,0.0842867588888888,1.1100546,-0.43736663,1.1726741,0.35131353
767,1778428967660,0.35556954,0.076864235,1.1216508,-0.43736663,1.1726741,0.35131353
768,1778428967670,0.3575818425,0.056893564,1.1361333625,-0.33963108875,1.4982555875,0.29259582875
769,1778428967680,0.3603259025,0.041004678625,1.143119325,-0.31412821625,1.5839269,0.2627406775
770,1778428967690,0.3492277,0.017074168,1.1755869,-0.30664533,1.6918942,0.20287764
771,1778428967700,0.34178824375,-0.0009451770624999,1.204742525,-0.2990097275,1.672194375,0.20203773
772,1778428967710,0.3377026075,-0.0262858327499999,1.2423895875,-0.2748812575,1.602252425,0.2166217125
773,1778428967720,0.34581286,-0.042959824,1.2692814,-0.25289077,1.5147485,0.2267007
774,1778428967730,0.36566538,-0.05000292,1.2726657375,-0.16225630375,1.26558965,0.2368560224999999
775,1778428967740,0.375923,-0.0481362794444444,1.2486805555555556,-0.0555871,1.0351571,0.2346417
776,1778428967750,0.36483836,-0.048569907,1.2185162,-0.0555871,1.0351571,0.2346417
777,1778428967760,0.3178005499999999,-0.04637465925,1.18997795,0.1120904725,1.028981775,0.1840177425
778,1778428967770,0.3159500044444445,0.0264920601111111,1.1947004888888888,0.0991608677777777,1.5139339777777776,0.1762039755555555
779,1778428967780,0.3626431,0.09957898,1.2522072,-0.2699945,2.4432364,0.277401
780,1778428967790,0.3828339977777777,0.0323121835555555,1.9053888888888888,-0.6593756911111112,2.3503875111111108,0.3545035066666667
781,1778428967800,0.39267537,-0.0039026667,2.3052564,-0.74312842,1.436123742857143,0.26466048
782,1778428967810,0.46027076,-0.0160985,2.1620164,-0.3671192,-0.74057597,0.07154548
783,1778428967820,0.4163962325,-0.026472581,1.6801970750000002,-0.063986249,-1.3974085175,-0.014278556
784,1778428967830,0.35020337,-0.03320316,1.2211993,0.15882029,-1.7772601,-0.07872294
785,1778428967840,0.35020337,-0.03320316,1.2211993,0.15882029,-1.7772601,-0.07872294
786,1778428967850,0.30707204,-0.0422280772499999,0.9987511075,0.291068715,-1.12505656,-0.1176644475
787,1778428967860,0.2946682711111111,-0.0636656444444444,0.9413117022222222,0.4267786255555555,-0.2457896684444444,-0.1574543577777777
788,1778428967870,0.3111462,-0.04783816,1.0586898,0.45813546,-0.036269058,-0.18928629
789,1778428967880,0.3114443155555555,-0.0396533988888888,1.2617741111111112,0.5469119288888888,0.047824248,-0.2477918866666666
790,1778428967890,0.314259965,-0.03695337875,1.4403964875,0.61168719375,-0.0035123735,-0.2854184075
791,1778428967900,0.33093393,-0.04783816,1.549938,0.64322215,-0.2060846,-0.29984966
792,1778428967910,0.3495799977777777,-0.0445283434444444,1.6197184111111111,0.6570001333333333,-0.4711922944444444,-0.3112521466666667
793,1778428967920,0.35733792625,-0.0112811465,1.67488435,0.60351709,-1.06707382,-0.3291703175
794,1778428967930,0.35337427,0.014635001,1.6785431,0.53754556,-1.3795222,-0.338333
795,1778428967940,0.35337427,0.014635001,1.6785431,0.53754556,-1.3795222,-0.338333
796,1778428967950,0.3460262825,0.046607142,1.651670325,0.4915029537499999,-1.5230140375,-0.3419217312499999
797,1778428967960,0.3272752,0.15375897,1.5477427,0.2754921,-2.1834736,-0.3536042
798,1778428967970,0.35776477125,0.153301635,1.4823006375,0.2591519399999999,-2.377570275,-0.330392
799,1778428967980,0.369968225,0.1432019575,1.4248621,0.2657185675,-2.5040156875,-0.3067980262499999
800,1778428967990,0.37831474,0.1276294,1.3581546375,0.26793289,-2.58945795,-0.27763008375
801,1778428968000,0.391516745,0.1086648785,1.277101875,0.2492256875,-2.63611135,-0.238001365
802,1778428968010,0.4162539333333333,0.0942128126666666,1.2060663333333332,0.2050410577777777,-2.7183720666666664,-0.2078832022222222
803,1778428968020,0.42997554,0.08596919125,1.1410003,0.1242310574999999,-2.7908847625,-0.1902789175
804,1778428968030,0.43197644,0.083236565,1.081606575,0.039705069,-2.845479275,-0.1755422275
805,1778428968040,0.43142763,0.0794863435,1.03475545,-0.082158958,-2.8922090000000003,-0.1541625725
806,1778428968050,0.431671545,0.07326646675,1.01225415,-0.158973005,-2.911145425,-0.1301868225
807,1778428968060,0.43734258,0.070522405,1.004022,-0.18325418,-2.9390917,-0.110487
808,1778428968070,0.4578925625,0.060765744375,0.9596558225,-0.17714570625,-3.00177985,-0.08185353125
809,1778428968080,0.4706507622222222,0.0540715826666666,0.9237666111111112,-0.15861666,-3.0314651777777777,-0.0704425644444444
810,1778428968090,0.4871702,0.04869186525,0.881812125,-0.129652325,-3.140060325,-0.05489989675
811,1778428968100,0.4908043777777777,0.0469979991111111,0.8066155111111111,-0.0981427933333333,-3.2791299333333335,-0.041868489
812,1778428968110,0.4832598925,0.04180121875,0.7686348000000001,-0.07314895925,-3.310944875,-0.03092414175
813,1778428968120,0.486289825,0.025782754,0.7403480475,0.033902024,-3.437543,0.0009926267499999
814,1778428968130,0.4910347500000001,0.012195834,0.72312146,0.092848785,-3.5114555,0.0122933015
815,1778428968140,0.4910652375,0.010945761,0.7195808525,0.108425390625,-3.5190911,0.0122169455625
816,1778428968150,0.494449585,-0.0231111045,0.6415923250000001,0.4833328925,-3.502445625,-0.0339783775
817,1778428968160,0.5054258333333334,-0.023659917,0.6154932333333334,0.7376998733333333,-3.3288122333333336,-0.09867728
818,1778428968170,0.5218292,-0.0150008738249999,0.6004237825000001,0.964375125,-3.20557375,-0.15492613
819,1778428968180,0.5315249,-0.0065857503,0.58887583,1.055544,-3.1877065,-0.17462596
820,1778428968190,0.5277848999999999,0.0259432479666666,0.5004831144444445,1.2628927111111112,-3.2213710222222223,-0.2069329877777777
821,1778428968200,0.516646025,0.0416792609999999,0.3717442675,1.4138824250000002,-3.2743705,-0.20547375
822,1778428968210,0.5149114822222223,0.0308656226666666,0.2617801922222222,1.3924602444444445,-3.287545933333333,-0.1738114988888889
823,1778428968220,0.51908517,0.024391668,0.19400522,1.3530266,-3.2457368,-0.14530529
824,1778428968230,0.5312403388888889,0.0201637786666666,0.1415089328888888,1.289227,-3.1702632444444445,-0.1276585922222222
825,1778428968240,0.55741054,0.024391668,0.037837572,1.105786325,-2.921987975,-0.0794101487499999
826,1778428968250,0.6153521875,0.04692347,0.020641448,0.86366164375,-2.6236653125,-0.0263427882374999
827,1778428968260,0.6447937222222222,0.0587331026666666,0.0184834625888888,0.696094388888889,-2.5945059111111113,0.0011623065333333
828,1778428968270,0.6606483,0.067839324,-0.0073175007,0.5570927,-2.61351,0.024510246
829,1778428968280,0.66125808,0.067229532,-0.01256170785,0.49051035,-2.6086232000000003,0.037338039
830,1778428968290,0.66186786,0.06661974,-0.017805915,0.423928,-2.6037364,0.050165832
831,1778428968300,0.660892195,0.07485955,-0.04227380625,0.366355645,-2.6006821999999996,0.063299049
832,1778428968310,0.6631687533333334,0.10949826,-0.1480574266666666,0.1240019933333333,-2.5613844666666665,0.1177662666666666
833,1778428968320,0.66577053,0.1144579,-0.1642474,0.0891837,-2.5463169,0.12530005
834,1778428968330,0.68486464,0.11031131625,-0.1928885512499999,-0.0374143962499999,-2.4290342,0.15003936375
835,1778428968340,0.73312205,0.09323715,-0.24501431,-0.3243599,-2.1443794,0.2034885
836,1778428968350,0.73312205,0.09323715,-0.24501431,-0.3243599,-2.1443794,0.2034885
837,1778428968360,0.73312205,0.09323715,-0.24501431,-0.3243599,-2.1443794,0.2034885
838,1778428968370,0.73312205,0.09323715,-0.24501431,-0.3243599,-2.1443794,0.2034885
839,1778428968380,0.72903265,0.0806601975,-0.28705563125,-0.31244837375,-2.09100655,0.1627144425
840,1778428968390,0.7083746888888889,0.0652104499999999,-0.4206749688888889,-0.2551984088888888,-1.8944748222222223,0.0833551986666666
841,1778428968400,0.7077242,0.05588741,-0.4846624,-0.24922568,-1.7473286,0.0898709
842,1778428968410,0.7299625625,0.05387509625,-0.52310215,-0.264955,-1.574888325,0.0954448825
843,1778428968420,0.7714513000000001,0.051862782125,-0.5854305000000001,-0.3089360125,-1.1386956625,0.108119966875
844,1778428968430,0.8044846333333333,0.0630422976666666,-0.5686578800000001,-0.3500833555555556,-0.8366825555555556,0.1107075872222222
845,1778428968440,0.8105437999999999,0.0717071425714285,-0.5456198228571428,-0.3822158571428571,-0.6461564285714286,0.0950194749999999
846,1778428968450,0.8090106,0.074912906,-0.53640324,-0.387888,-0.544494,0.07887565
847,1778428968460,0.8074251375,0.080401033125,-0.53740937875,-0.3637595375,-0.35589489,0.047187951
848,1778428968470,0.8051079250000001,0.07905949,-0.54513468125,-0.3119138825,-0.08162446,0.0025197461249999
849,1778428968480,0.8032108333333333,0.0748045,-0.549009,-0.2604245533333333,0.15899845,-0.0388142526666666
850,1778428968490,0.80510795,0.07271766,-0.5486296,-0.23151112,0.27831727,-0.060397524
851,1778428968500,0.80510795,0.07271766,-0.5486296,-0.23151112,0.27831727,-0.060397524
852,1778428968510,0.80510795,0.07271766,-0.5486296,-0.23151112,0.27831727,-0.060397524
853,1778428968520,0.80510795,0.07271766,-0.5486296,-0.23151112,0.27831727,-0.060397524
854,1778428968530,0.80510795,0.07271766,-0.5486296,-0.23151112,0.27831727,-0.060397524
855,1778428968540,0.80510795,0.07271766,-0.5486296,-0.23151112,0.27831727,-0.060397524
856,1778428968550,0.7932779975,0.066867471375,-0.4235727275,-0.041003122125,1.452050775,-0.063680827
857,1778428968560,0.7820442688888889,0.0520660466666666,-0.3781081111111111,-0.0480533183333333,1.7411692666666667,-0.0145839776666666
858,1778428968570,0.77656587125,0.049667530375,-0.35727694875,-0.056274305625,1.8306328625,0.004275931
859,1778428968580,0.77141696,0.047106408,-0.33678794,-0.06536066,1.8953063000000003,0.016569233
860,1778428968590,0.7479400075,0.046100251125,-0.29806998125,-0.073225315,2.0476364,0.035810921375
861,1778428968600,0.731841515,0.042898844,-0.27241681,-0.0766613312499999,2.23096685,0.04818057925
862,1778428968610,0.72287756,0.038325407,-0.25428313,-0.07574506,2.3308403,0.049554985
863,1778428968620,0.70897808875,0.043234229625,-0.19897883375,-0.057419643,2.5263116,0.048944138
864,1778428968630,0.6982114875,0.0499724275,-0.1592471025,-0.026724567,2.62297805,0.047111594
865,1778428968640,0.66089225,0.08564524,-0.08442566,0.03787253,2.7376647,0.057496
866,1778428968650,0.6481543544444445,0.1096303844444444,-0.0625815666666666,0.0916949611111111,2.7633202999999997,0.0737173877777777
867,1778428968660,0.628908655,0.1320198974999999,-0.052167675,0.16309622,2.7975278,0.10941801
868,1778428968670,0.6201277,0.1261659,-0.05344824,0.19119519,2.8714402,0.1466797
869,1778428968680,0.61598107,0.0992664585,-0.0611011243749999,0.1835596025,2.989181,0.17493139
870,1778428968690,0.60239285,0.0033233653333333,-0.0772707733333333,0.12793856,3.2635363111111113,0.2127190755555555
871,1778428968700,0.58936363,-0.03881324,-0.06100966,0.07330167,3.4792333,0.21937053
872,1778428968710,0.57722879625,-0.05872293825,0.026994716875,0.0233649069999999,3.8019038625,0.2037175625
873,1778428968720,0.57253337,-0.047106408,0.10372557,-0.007330167,4.0412893,0.18882816
874,1778428968730,0.57253337,-0.047106408,0.10372557,-0.007330167,4.0412893,0.18882816
875,1778428968740,0.5466096175,0.0402691169999999,0.3227551174999999,-0.02947338025,4.4276501,0.1585912225
876,1778428968750,0.5072475625,0.103786541,0.53782864,0.0155766055,4.674737775,0.1387386875
877,1778428968760,0.4731983499999999,0.118604474,0.68772304,0.086129464,4.757202,0.12774344
878,1778428968770,0.4477613257142857,0.1282217691428571,0.8347525057142857,0.2160654019999999,4.6865181,0.1028732221428571
879,1778428968780,0.44108264,0.1350282033333333,1.003693333333333,0.3612143555555555,4.449538633333333,0.0625185194444444
880,1778428968790,0.44891508,0.1311289288888888,1.0693983777777778,0.3939964922222222,4.293093933333334,0.0419533288333333
881,1778428968800,0.430269,0.1454658,1.1492134,0.40377003,4.010747,0.0104607595
882,1778428968810,0.430269,0.1454658,1.1492134,0.40377003,4.010747,0.0104607595
883,1778428968820,0.430269,0.1454658,1.1492134,0.40377003,4.010747,0.0104607595
884,1778428968830,0.430269,0.1454658,1.1492134,0.40377003,4.010747,0.0104607595
885,1778428968840,0.43429364125,0.15821044875,1.1970820625,0.3356605625,3.3369345875,-0.1110214873125
886,1778428968850,0.43840972625,0.20564080375,1.2665372375,0.1262163175,2.6487099875,-0.252432615
887,1778428968860,0.441977,0.21086596,1.2824528,0.07146913,2.5935047,-0.250371
888,1778428968870,0.441977,0.21086596,1.2824528,0.07146913,2.5935047,-0.250371
889,1778428968880,0.4752297,0.205682735,1.2887222375,-0.07322532,2.25372095,-0.2209739875
890,1778428968890,0.49518132,0.2025728,1.2924839,-0.16004199,2.0498507,-0.20333578
891,1778428968900,0.4995718175,0.19625764375,1.2759471125,-0.19340951875,1.96005615,-0.19478392
892,1778428968910,0.5303053,0.15205155,1.1601896,-0.42698222,1.3314943,-0.1349209
893,1778428968920,0.5303053,0.15205155,1.1601896,-0.42698222,1.3314943,-0.1349209
894,1778428968930,0.5303053,0.15205155,1.1601896,-0.42698222,1.3314943,-0.1349209
895,1778428968940,0.5303053,0.15205155,1.1601896,-0.42698222,1.3314943,-0.1349209
896,1778428968950,0.4574090942857142,0.1524348485714285,1.1787403142857145,-0.6179592514285714,1.5638780285714289,-0.1254963914285714
897,1778428968960,0.4168840844444444,0.1531085244444444,1.2214499444444444,-0.7419163977777777,1.7239297000000002,-0.1082472255555555
898,1778428968970,0.4290494,0.14912456,1.2539147,-0.7685222,1.6479132,-0.08544226
899,1778428968980,0.437098655,0.14335059125,1.2559269875,-0.772187285,1.5933950625,-0.0797155675
900,1778428968990,0.45051408,0.13372731,1.2592808,-0.77829576,1.5025315,-0.07017108
901,1778428969000,0.3908764733333333,0.0856655633333333,1.1325458333333334,-0.7622101466666666,0.8181026666666666,-0.0518456596666666
902,1778428969010,0.3667897,0.08174257,1.1196995,-0.77401984,0.8225822,-0.057954133
903,1778428969020,0.3316657,0.07613249,1.141408,-0.7727981,0.90382487,-0.06284091
904,1778428969030,0.3316657,0.07613249,1.141408,-0.7727981,0.90382487,-0.06284091
905,1778428969040,0.3316657,0.07613249,1.141408,-0.7727981,0.90382487,-0.06284091
906,1778428969050,0.3316657,0.07613249,1.141408,-0.7727981,0.90382487,-0.06284091
907,1778428969060,0.3316657,0.07613249,1.141408,-0.7727981,0.90382487,-0.06284091
908,1778428969070,0.4044596166666667,0.0204127758333333,1.3248536666666666,-0.2804934166666666,0.739405145,-0.0445154949999999
909,1778428969080,0.4188659325,0.01521430225,1.3428374875,-0.0688730275,0.555794675,-0.0445154955
910,1778428969090,0.41048127,0.024635585,1.2998015,0.0574196429999999,0.37788537,-0.053678203
911,1778428969100,0.39102890875,0.0302418557499999,1.2491011125,0.167295799125,0.26701660875,-0.057037862375
912,1778428969110,0.38267475,0.034178823,1.2300107,0.2235701,0.2398338999999999,-0.048791423
913,1778428969120,0.38669938875,0.034819104875,1.2485789,0.2244100162499999,0.19570019,-0.0240521098749999
914,1778428969130,0.39584628,0.03491057,1.2863555,0.21868332,0.11277767,0.0098499125
915,1778428969140,0.39584628,0.03491057,1.2863555,0.21868332,0.11277767,0.0098499125
916,1778428969150,0.39584628,0.03491057,1.2863555,0.21868332,0.11277767,0.0098499125
917,1778428969160,0.3899109666666667,0.0566191566666666,1.3278518333333331,0.2972789977777778,-0.1213804388888888,0.0230170639444444
918,1778428969170,0.38828486,0.07174199,1.3615428,0.37444937,-0.2543415,0.020234315
919,1778428969180,0.3825223375,0.0834804825,1.4191948875,0.38361207,-0.35390964,0.0037414394
920,1778428969190,0.3834065311111111,0.0867191502222222,1.4708446555555554,0.3615537044444444,-0.4570070777777778,-0.0092220969333333
921,1778428969200,0.3879799575,0.0908589585,1.557446025,0.276408385,-0.850375745,-0.051387524
922,1778428969210,0.3884068125,0.0998838745,1.587592625,0.239604835,-1.1333507749999998,-0.0691020924999999
923,1778428969220,0.3846870575,0.1152506225,1.5899098,0.2336490725,-1.38731045,-0.085289545
924,1778428969230,0.38121125,0.13445906,1.5875317,0.24189551,-1.5444509,-0.09399412
925,1778428969240,0.38288817875,0.1369630175,1.585637525,0.24189551,-1.5444509,-0.09399412
926,1778428969250,0.4182595055555556,0.1732994155555555,1.4787516333333333,0.2376195766666666,-2.0022555333333334,-0.1253509466666666
927,1778428969260,0.41609135,0.17180881,1.4437733,0.20341213,-2.066191,-0.13553174
928,1778428969270,0.41920889875,0.15280618125,1.435114175,0.1081199625,-2.1282681875,-0.1265217375
929,1778428969280,0.43953782,0.13665432,1.4420658,0.04214846,-2.2396715,-0.11476293
930,1778428969290,0.4674527488888889,0.1158942942222222,1.4144693333333334,-0.0170358517777777,-2.472065011111111,-0.1131340033333333
931,1778428969300,0.4818438466666666,0.1108804475555555,1.3535681222222222,-0.0474424706666666,-2.698485577777778,-0.1163918566666666
932,1778428969310,0.48108498,0.1107178433333333,1.2768529666666666,-0.060270262,-2.8639573,-0.1225003299999999
933,1778428969320,0.4710843833333333,0.0976818533333333,1.1572219666666668,-0.0717406133333333,-3.0251531888888885,-0.1202605511111111
934,1778428969330,0.46490517,0.08933448,1.1177481,-0.076355904,-3.0710347,-0.11781716
935,1778428969340,0.46301481,0.083960691,1.09754875,-0.078188447,-3.0794338249999997,-0.1149156365
936,1778428969350,0.4702442388888889,0.0448027517777777,0.9546864333333333,-0.0932560133333333,-3.0838623999999997,-0.085849492
937,1778428969360,0.4826907888888889,0.0327627516666666,0.8936496644444445,-0.0958351466666666,-3.064722511111111,-0.07403978
938,1778428969370,0.4990230375,0.02713573075,0.82269283,-0.0847550575,-3.0380487499999997,-0.05703786125
939,1778428969380,0.5149386,0.025123417,0.7743745,-0.07146913,-3.017891,-0.048791423
940,1778428969390,0.51539933,0.0268071195555555,0.7651530888888889,-0.0682112777777777,-3.015311855555556,-0.0452620834444444
941,1778428969400,0.51908517,0.04027674,0.6913818,-0.04214846,-2.9946787,-0.017027367
942,1778428969410,0.51204205875,0.048813821875,0.6815641687499999,-0.02344126275,-3.0262136125000003,0.0032833040624999
943,1778428969420,0.49225435,0.05808266,0.61866415,-0.0154747975333333,-3.1084999333333334,0.0676767883333333
944,1778428969430,0.4870215625,0.056893565,0.57737738125,-0.001985253525,-3.1148629125,0.106287426875
945,1778428969440,0.4961569875,0.0514969074999999,0.5370130000000001,0.038177955,-3.062482775,0.1469851225
946,1778428969450,0.5064015,0.04783816,0.5256709,0.07207998,-3.0111716,0.16805935
947,1778428969460,0.5210365444444444,0.0459139256666666,0.4863630688888888,0.1582773155555555,-2.9726202666666666,0.1753895188888888
948,1778428969470,0.5246953,0.044911157,0.45002624,0.203564855,-2.91229065,0.1724116425
949,1778428969480,0.5451876333333333,0.0409271821111111,0.4528685866666666,0.2562165,-2.879160777777778,0.1747107977777777
950,1778428969490,0.5678684675000001,0.0380205115,0.405934505,0.33016295625,-2.99658775,0.1512610425
951,1778428969500,0.56100836,0.037990023875,0.33269853,0.3602471625,-3.075005175,0.12667445625
952,1778428969510,0.550337,0.05271649,0.26992428,0.379947,-3.0905817,0.123467505
953,1778428969520,0.550337,0.05271649,0.26992428,0.379947,-3.0905817,0.123467505
954,1778428969530,0.5579594,0.06979065875,0.16681232125,0.36360683625,-2.9732990125,0.143396394375
955,1778428969540,0.5844311155555556,0.0913366266666666,0.0697940473333333,0.31764057,-2.741177,0.18516308
956,1778428969550,0.6100486600000001,0.0971398145714285,0.0421496720971428,0.2874472614285714,-2.646932014285714,0.2048847185714286
957,1778428969560,0.6440924575,0.09353442325,-0.0024391664949999,0.22570805875,-2.457591175,0.23425992375
958,1778428969570,0.65378815,0.078327745,-0.011220166,0.20280129,-2.3819988,0.2407501799999999
959,1778428969580,0.65378815,0.078327745,-0.011220166,0.20280129,-2.3819988,0.24075018
960,1778428969590,0.6689652055555555,0.0471877122222222,-0.0340907418888888,0.1455852622222222,-2.3185385333333333,0.2257504822222222
961,1778428969600,0.6718685,0.04027674,-0.040032823,0.09101624,-2.2726572,0.20837528
962,1778428969610,0.6718685,0.04027674,-0.040032823,0.09101624,-2.2726572,0.20837528
963,1778428969620,0.6904671375,0.0257141525,-0.109735822375,0.028098973,-2.1278864124999997,0.18905722875
964,1778428969630,0.71362775,0.01731808375,-0.17235761375,-0.04268295375,-1.963644875,0.16828842
965,1778428969640,0.718487,0.018049834,-0.1791263,-0.05619795,-1.933637,0.16439427
966,1778428969650,0.7380004,0.037593655,-0.26602164,-0.15026842,-1.7461069,0.14118208
967,1778428969660,0.7380004,0.037593655,-0.26602164,-0.15026842,-1.7461069,0.14118208
968,1778428969670,0.74632405,0.0386303015,-0.27492459,-0.1603474,-1.640325325,0.13789877125
969,1778428969680,0.7702786777777777,0.0336571135555555,-0.3092016444444445,-0.1559017911111111,-1.3060168666666667,0.1202096455555555
970,1778428969690,0.7697095,0.022440333,-0.3331292,-0.08429692,-1.0704335,0.1002553
971,1778428969700,0.7697095,0.022440333,-0.3331292,-0.08429692,-1.0704335,0.1002553
972,1778428969710,0.7710544833333333,-0.0182226068888888,-0.4021948966666666,-0.0031899800333333,-0.7722042666666666,0.0632651133333333
973,1778428969720,0.7692217,-0.03125182,-0.43173254,0.019547112,-0.6471163,0.04833329
974,1778428969730,0.7692217,-0.03125182,-0.43173254,0.019547112,-0.6471163,0.04833329
975,1778428969740,0.774119075,-0.04893577875,-0.4796202025,0.008857285125,-0.4249206125,0.028098975
976,1778428969750,0.7798799857142856,-0.0581871921428571,-0.5183882285714286,-0.0035778197142857,-0.2099242014285714,0.0083664266142857
977,1778428969760,0.7836433,-0.056375243,-0.5317688,-0.011606098,-0.10101887,-0.0017561859
978,1778428969770,0.8014491766666666,-0.0203263886666666,-0.5456924333333333,-0.0428271788888888,0.5112537,-0.0221856334444444
979,1778428969780,0.80535185,-0.0102445,-0.5383546,-0.04214846,0.6649836,-0.025579229
980,1778428969790,0.80535185,-0.0102445,-0.5383546,-0.04214846,0.6649836,-0.025579229
981,1778428969800,0.7998772933333334,0.0263260622222222,-0.4617003666666666,0.0022397731111111,1.2192935777777778,-0.0316877025555555
982,1778428969810,0.79339993,0.039301075,-0.4007246,0.05314371,1.5575078,-0.034741938
983,1778428969820,0.7928578933333333,0.0387048339999999,-0.3947588066666666,0.0590485666666666,1.575425988888889,-0.0363708637777777
984,1778428969830,0.777899835,0.0276121305,-0.29520014875,0.2051683262499999,1.869269,-0.09063446125
985,1778428969840,0.77117306,0.024391668,-0.27797353,0.25289077,1.9307355,-0.1135412299999999
986,1778428969850,0.77117306,0.024391668,-0.27797353,0.25289077,1.9307355,-0.11354123
987,1778428969860,0.77117306,0.024391668,-0.27797353,0.25289077,1.9307355,-0.11354123
988,1778428969870,0.7317398733333333,0.0464254697777777,-0.2191930033333333,0.3181835522222223,2.5547499555555557,-0.1702142833333333
989,1778428969880,0.72062132,0.048813825,-0.1469140575,0.303285675,2.853267625,-0.1752368025
990,1778428969890,0.72019446,0.04783816,-0.12811723,0.29503924,2.900761,-0.17340426
991,1778428969900,0.69443077125,0.039819398125,0.0622711655,0.1760767225,3.0644679125,-0.1081963275
992,1778428969910,0.6908668777777778,0.0333860967777777,0.0989827411111111,0.1345900133333333,3.047975,-0.0919579666666666
993,1778428969920,0.6899183,0.024635585,0.11909231,0.09101624,3.047975,-0.08055548
994,1778428969930,0.6849180149999999,0.007835823625,0.1723271275,-0.0072538135,3.133035625,-0.08681666375
995,1778428969940,0.6811373,-0.008781,0.22915971,-0.13072132,3.2067955,-0.10193513
996,1778428969950,0.6727831725,-0.0241172608749999,0.2773065799999999,-0.28350948375,3.2347415625,-0.125147335
997,1778428969960,0.6638192,-0.027318668,0.3153233,-0.42942563,3.2935357,-0.1336992
998,1778428969970,0.6616510400000001,-0.0199469642222222,0.3905918888888889,-0.63181968,3.2855267777777777,-0.1246722322222222
999,1778428969980,0.649294715,-0.015824094,0.4847348474999999,-0.7915816975000001,3.191371475,-0.10880717
1000,1778428969990,0.63159174,-0.016586334,0.53201276,-0.9029086,3.0699656,-0.09093989
