id,timestamp,acc_x,acc_y,acc_z,gyro_x,gyro_y,gyro_z
0,1778428935340,0.3178335933333333,-0.0140658603333333,1.0108414666666663,0.0010180793333333,0.3672973633333333,0.0021125136666666
1,1778428935350,0.32386038,-0.028294332,1.0413412,-0.026266431,0.34673217,0.011071607
2,1778428935360,0.3227220755555555,-0.0605218233333333,1.099423788888889,-0.070926154,0.1130491562222222,0.0142615865555555
3,1778428935370,0.31819607,-0.0591396288888888,1.0988547,-0.0656321437777777,-0.056630633,0.0042165431111111
4,1778428935380,0.3174575537499999,-0.0219715563625,1.0520621625,-0.05451811875,-0.2125748499999999,-0.00664296375
5,1778428935390,0.304000205,-0.0039331564375,1.0065107125,-0.0723854025,-0.299696935,-0.0142785542499999
6,1778428935400,0.28309578,-0.0043905,0.9720384,-0.1007898,-0.35146624,-0.0280226169999999
7,1778428935410,0.28980349875,-0.0270290165,0.9249396,-0.095215815,-0.3779617475,-0.052151084625
8,1778428935420,0.2986251622222222,-0.0275117685555555,0.8766602,-0.0620349349999999,-0.3089784344444444,-0.0534067161111111
9,1778428935430,0.2977917599999999,-0.0305810522499999,0.8411771874999999,-0.0250447375,-0.1306449565,-0.064826165
10,1778428935440,0.3060341099999999,-0.031079049,0.8505882666666666,-0.0048189063333333,0.003503888,-0.0765510377777777
11,1778428935450,0.32361645,-0.022928167,0.8624589,0.010384403,0.16042376,-0.07872294
12,1778428935460,0.34264195,-0.0036587503,0.9107849,6.787188888888902e-05,0.2587023022222222,-0.0640626066666666
13,1778428935470,0.34947161375,0.0090554065875,0.967705125,-0.0082464378125,0.26793289125,-0.040926766875
14,1778428935480,0.3442680666666666,0.0226842506666666,1.0053838666666666,-0.0065157038666666,0.19279867,-0.0231358393333333
15,1778428935490,0.3356903125,0.025336844375,1.0138700875,-0.0021379654,0.1163663971249999,-0.0133622834999999
16,1778428935500,0.3263266044444444,0.0172909817777777,0.9981611888888888,0.008551862,0.034589227,-0.004810422
17,1778428935510,0.3184331888888889,0.0042278889444444,0.9645244066666666,0.0181218018888888,-0.0268348597777777,-0.0021634173555555
18,1778428935520,0.31090227,-0.0084761045,0.9412439575,0.01786728225,-0.045355409875,-0.0036650836
19,1778428935530,0.3087883444444445,-0.0104071112222222,0.9323308166666666,0.0113346098888888,-0.0197083077777777,-0.008475506
20,1778428935540,0.31334144,-0.012683666,0.9317616,0.0166964913333333,0.0229831276666666,-0.0096972003333333
21,1778428935550,0.3193097775,-0.01061037525,0.940637975,0.021303297375,0.053907269375,-0.012827792125
22,1778428935560,0.3205268266666666,-0.0037400555533333,0.9617939,0.0232121953333333,0.0518965653333333,-0.0190635243333333
23,1778428935570,0.3202016,0.00048783334,0.9700871,0.019547112,0.025426516,-0.021914145
24,1778428935580,0.3162718455555555,0.0044176018222222,0.9703851888888888,0.016017772,-0.0113600619999999,-0.025443485
25,1778428935590,0.31846371125,-0.0001829375375,0.95615334625,0.014889401625,-0.021074230125,-0.026571855375
26,1778428935600,0.3216651,-0.0065857503,0.94911027,0.0179860574444444,-0.0052515893333333,-0.0246968944444444
27,1778428935610,0.32337253125,-0.0055186149125,0.94654908375,0.023212196,0.0071010995,-0.023746688
28,1778428935620,0.31998816625,-0.0002439167024999,0.948957825,0.023746687125,-0.000381779575,-0.023746688
29,1778428935630,0.3204997222222222,0.00639603726,0.952064377777778,0.0116739694444444,-0.0133283479555555,-0.0261900768888888
30,1778428935640,0.330994915,-0.0032318959999999,0.953683725,0.001374406325,-0.0081700819999999,-0.03336753225
31,1778428935650,0.3449997999999999,-0.0108136393333333,0.9651274533333332,0.0024433890666666,-0.0104098556666666,-0.0412576406666666
32,1778428935660,0.35471582,-0.00981764575,0.97923398,0.00213796545,-0.04344651275,-0.049554983
33,1778428935670,0.35800868,-0.006341833,0.98252684,-0.002443389,-0.08513684,-0.057343286
34,1778428935680,0.3568433155555556,-0.007073583,0.9762933666666668,-0.0090948364444444,-0.1036658711111111,-0.0616192157777777
35,1778428935690,0.3466259266666667,-0.0132528056666666,0.955696,-0.0128277916666666,-0.1107924166666666,-0.0528637396666666
36,1778428935700,0.344532285,-0.0115860425375,0.9453295375,0.001832542,-0.078875649,-0.032833040625
37,1778428935710,0.3615861266666667,0.0081034540999999,0.9639349444444444,0.015949901,-0.0563591442222222,-0.0134301556444444
38,1778428935720,0.3547158,0.013781293,1.00156,0.0235939765,-0.105065725,-0.0031305921875
39,1778428935730,0.3320620666666667,-0.0201739413333333,1.0233727666666668,0.0291170516666666,-0.20812075,-0.0041995747
40,1778428935740,0.297791775,-0.0538141169999999,1.0389059,0.025426516125,-0.23708509125,-0.0029015243
41,1778428935750,0.2772146666666667,-0.0870308277777777,1.0759300333333333,0.019547112,-0.2317401799999999,0.0061848285
42,1778428935760,0.26974135,-0.0920099385,1.149221025,0.0393996477499999,-0.2092915424999999,0.010460759375
43,1778428935770,0.260533505,-0.060060668875,1.1972115125,0.2258607775,-0.0143549111249999,0.0264191439375
44,1778428935780,0.26650944,-0.005610083,1.3332181,0.41293275,0.16897562,0.0098499125
45,1778428935790,0.2938043888888889,0.0507685444444444,1.533389,0.5894676,0.34795386,-0.035963632
46,1778428935800,0.33849534,0.09372498,1.703697,0.69392246,0.40720606,-0.07872294
47,1778428935810,0.36457537875,0.12153147375,1.869152475,0.73416204,0.1347681775,-0.1382805525
48,1778428935820,0.3797748555555555,0.1395575866666666,1.967601288888889,0.74665896,-0.4844273444444444,-0.18059869
49,1778428935830,0.3944640833333333,0.15164502,1.9227646,0.6585612088888888,-1.368408211111111,-0.1929513744444444
50,1778428935840,0.39999285,0.1527833,1.8820914,0.6181774,-1.6972392,-0.20577917
51,1778428935850,0.4006975011111111,0.1359869377777777,1.7744598444444444,0.5627260633333333,-2.064086866666667,-0.2046932177777777
52,1778428935860,0.39977943125,0.107445301875,1.625574975,0.4678326512499999,-2.45262805,-0.2138728999999999
53,1778428935870,0.38804093,0.095920235,1.570671,0.40743512,-2.5237155,-0.2320456
54,1778428935880,0.40130390375,0.09878625625,1.490845425,0.304583705,-2.6224435625,-0.2523562837499999
55,1778428935890,0.4179207375,0.1107991525,1.3963772250000002,0.22265383,-2.69185115,-0.261518995
56,1778428935900,0.4197501,0.12104365,1.3280958,0.175924,-2.6996396,-0.25098187
57,1778428935910,0.3965170449999999,0.121470505625,1.2927812625,0.1111742,-2.6569563625,-0.2274642425
58,1778428935920,0.39188263,0.118116645,1.274708525,0.040468633,-2.663599475,-0.2004342525
59,1778428935930,0.40413943,0.11518965,1.2602564,-0.054365408,-2.733236,-0.17340426
60,1778428935940,0.40413943,0.11518965,1.2602564,-0.054365408,-2.733236,-0.17340426
61,1778428935950,0.40413943,0.11518965,1.2602564,-0.054365408,-2.733236,-0.17340426
62,1778428935960,0.40413943,0.11518965,1.2602564,-0.054365408,-2.733236,-0.17340426
63,1778428935970,0.39679144125,0.11104306625,1.1731286125,-0.042377530175,-3.077448425,-0.1121668243
64,1778428935980,0.37511334,0.09640807,0.9939909,0.0018325417999999,-3.700207199999999,-0.0066429637
65,1778428935990,0.36800927,0.09177365,0.9481346,0.0018325418,-3.7002072,-0.0066429637
66,1778428936000,0.36800927,0.09177365,0.9481346,0.0018325418,-3.7002072,-0.0066429637
67,1778428936010,0.36800927,0.09177365,0.9481346,0.0018325418,-3.7002072,-0.0066429637
68,1778428936020,0.31661145625,0.05174463475,0.66995905,0.186384772725,-3.880101825,-0.043293798925
69,1778428936030,0.3141680533333333,0.0376749618888888,0.5256946188888889,0.2805146311111111,-3.8738237111111102,-0.0447191094444444
70,1778428936040,0.33117786,0.03515449,0.4109691,0.3286358,-3.7747307,-0.02985516
71,1778428936050,0.33117786,0.03515449,0.4109691,0.3286358,-3.7747307,-0.02985516
72,1778428936060,0.33117786,0.03515449,0.4109691,0.3286358,-3.7747307,-0.02985516
73,1778428936070,0.3516736333333333,0.0257094948222222,0.3278273933333333,0.3301289955555555,-3.711609788888889,0.0297363844444444
74,1778428936080,0.39096794,0.0009756667,0.19254172,0.335966,-3.6299598,0.12835428
75,1778428936090,0.4021406777777778,-0.0035232405666666,0.1526274673333333,0.3298575288888888,-3.634439377777778,0.1419286644444444
76,1778428936100,0.4445076449999999,-0.0207977065,0.0012767507499999,0.30695076,-3.63423585,0.19256960125
77,1778428936110,0.46734434,-0.03149574,-0.080279075,0.29626092,-3.5230615,0.21448374
78,1778428936120,0.4673443400000001,-0.03149574,-0.080279075,0.29626092,-3.5230615,0.21448374
79,1778428936130,0.46734434,-0.03149574,-0.080279075,0.29481015875,-3.4978640624999997,0.21769069
80,1778428936140,0.5079157711111111,-0.01130486,-0.2076306794444444,0.3373234255555555,-3.070084311111111,0.3226715711111111
81,1778428936150,0.525739475,-0.009146875,-0.2567375425,0.335965985,-2.965357975,0.3612397875
82,1778428936160,0.5705007444444444,-0.0154006271111111,-0.3685038844444444,0.3094959377777778,-2.730317644444445,0.4514924744444444
83,1778428936170,0.5932663,-0.033447072,-0.411213,0.27205611,-2.5526542625,0.510591955
84,1778428936180,0.6014578333333334,-0.0403309415555555,-0.4262884133333333,0.24494976,-2.4583547,0.53578943
85,1778428936190,0.6575879125,-0.072504231875,-0.5118476974999999,0.21631629125,-2.3216777,0.540370755
86,1778428936200,0.6911378844444445,-0.0764035133333333,-0.5594567611111111,0.19913621,-2.2396715,0.54311955
87,1778428936210,0.7047972,-0.07564466,-0.58180225,0.18936265325,-2.1669043125,0.53647659
88,1778428936220,0.7724612125,-0.019208438675,-0.6446412749999999,0.047875151625,-1.162060535,0.44133714375
89,1778428936230,0.78657025,0.0036587503,-0.6369579,0.017714571,-0.95131826,0.4142308
90,1778428936240,0.8010426766666667,0.0143097777666666,-0.6323234866666666,-0.0185290341111111,-0.6350351155555556,0.3561324377777777
91,1778428936250,0.8221922666666667,0.0200011666666666,-0.6141821733333334,-0.051514786,-0.2718524766666667,0.2808624799999999
92,1778428936260,0.8317795222222222,0.0210581394444444,-0.5822324444444444,-0.0610168528888888,-0.0292103755555555,0.2125154677777777
93,1778428936270,0.8464416333333333,0.0210581386666666,-0.5264839466666668,-0.050700322,0.3538587333333333,0.063197238
94,1778428936280,0.8484471600000001,0.0202992872222222,-0.4969395277777779,-0.040926766,0.52815384,-0.008475506
95,1778428936290,0.85538524,0.024635585,-0.45831943,-0.0071944228444444,0.8724001677777777,-0.1380430005555555
96,1778428936300,0.860080675,0.02811901975,-0.414704055,0.0074065229,1.01974271,-0.18378867375
97,1778428936310,0.8606429822222222,0.0396533983333333,-0.3445898822222222,0.0330536228888888,1.3889139888888888,-0.2693072788888889
98,1778428936320,0.85384046,0.0475129373333333,-0.2622713966666666,0.0256555843333333,1.5548608,-0.2943520266666666
99,1778428936330,0.8454930722222223,0.0446401402222222,-0.2119737522222222,0.0104522751555555,1.6324384444444444,-0.3005283777777778
100,1778428936340,0.8418072277777777,0.0268477713333333,-0.1788823877777777,-0.0229407086666666,1.7461917333333334,-0.2796238311111111
101,1778428936350,0.8426203111111111,0.0107323342222222,-0.1557577235555555,-0.0676004316666666,1.8311673666666668,-0.2572939666666667
102,1778428936360,0.8483117,-0.011464084,-0.121775396,-0.108730815,1.8837003,-0.24181916
103,1778428936370,0.8483117,-0.011464084,-0.121775396,-0.108730815,1.8837003,-0.24181916
104,1778428936380,0.8483117,-0.011464084,-0.121775396,-0.108730815,1.8837003,-0.24181916
105,1778428936390,0.8483117,-0.011464084,-0.121775396,-0.108730815,1.8837003,-0.24181916
106,1778428936400,0.8483117,-0.011464084,-0.121775396,-0.108730815,1.8837003,-0.24181916
107,1778428936410,0.81847382,-0.0008537084249999,-0.06412340525,-0.11262496375,1.9072179,-0.203793915
108,1778428936420,0.75415984375,0.03016563125,0.02839723625,-0.08353336125,1.94852645,-0.1154501287499999
109,1778428936430,0.7501962,0.03491057,0.03222749,-0.07818845,2.1029944,-0.08177718
110,1778428936440,0.7501962,0.03491057,0.03222749,-0.07818845,2.1029944,-0.08177718
111,1778428936450,0.747879,0.03469714375,0.050345925,-0.057572355,2.157665225,-0.074065233
112,1778428936460,0.730804875,0.0313051825,0.1967569025,0.1139230125,2.573194,-0.01992889225
113,1778428936470,0.72686151,0.024229056,0.26892829,0.19547112,2.671693,-0.019470757
114,1778428936480,0.7213327199999999,0.0218711953333333,0.3092050466666667,0.3252422244444444,2.7428229222222225,-0.0413255144444444
115,1778428936490,0.7076598111111111,0.0245271766666666,0.3534149288888889,0.4605788466666667,2.8396762000000004,-0.0791301766666666
116,1778428936500,0.6925471666666667,0.0277048696666666,0.3789618066666667,0.5888567555555555,2.9258735111111114,-0.1114372077777777
117,1778428936510,0.6664887666666667,0.0322816941111111,0.3995863288888889,0.7291479866666667,3.098879066666667,-0.14204744
118,1778428936520,0.6554956,0.034178823,0.40852994,0.79593396,3.2263424,-0.15385716
119,1778428936530,0.63110393,0.040764574,0.4578316,0.8582404,3.4285328,-0.15202461
120,1778428936540,0.63110393,0.040764574,0.4578316,0.8582404,3.4285328,-0.15202461
121,1778428936550,0.63110393,0.040764574,0.4578316,0.8571544444444444,3.440953377777778,-0.1505992988888889
122,1778428936560,0.594242,0.03491057,0.62646943,0.679873,3.4908395,-0.10804361
123,1778428936570,0.5834012277777778,0.0462120457777777,0.6778545777777778,0.5092429866666666,3.4032846666666665,-0.1011206733333333
124,1778428936580,0.5630206333333334,0.0566191553333333,0.7327155,0.2183439555555555,3.2743280222222224,-0.1020708788888889
125,1778428936590,0.544902225,0.07979886,0.785518425,0.115908267,3.18068175,-0.103614965
126,1778428936600,0.5121335300000001,0.121531485,0.866254815,0.008093726,3.042477475,-0.1130830975
127,1778428936610,0.497010705,0.1397109,0.9056092475,-0.0754396375,2.964136425,-0.14912309
128,1778428936620,0.4881077555555555,0.1676656033333333,0.9501130444444444,-0.13499725,2.888544,-0.18439952
129,1778428936630,0.4892968377777777,0.2033858611111111,0.963010088888889,-0.2255383877777778,2.5892966555555557,-0.2257335188888889
130,1778428936640,0.4730458875,0.21998234875,0.88798627625,-0.3281776987499999,2.296174725,-0.25586865875
131,1778428936650,0.4476616444444444,0.2085555288888889,0.8126354544444445,-0.4766814533333334,2.0307107444444443,-0.2676783666666666
132,1778428936660,0.4023236111111111,0.1681093955555555,0.7535297444444445,-0.5565582266666667,1.9712549666666668,-0.2432444666666667
133,1778428936670,0.38267475,0.14153264,0.7470253,-0.5822138,2.0119781,-0.23143476
134,1778428936680,0.37861963625,0.12150099,0.7771261112500001,-0.5983248875,2.0803167,-0.2408265299999999
135,1778428936690,0.37440191,0.1058124,0.8475358766666666,-0.5929375555555556,2.2043272111111114,-0.2828137977777777
136,1778428936700,0.3702045,0.11397006,0.91663885,-0.549228,2.3216777,-0.3365005
137,1778428936710,0.34617872625,0.1256475815,0.9824163325,-0.45837405,2.4096396625,-0.43293798875
138,1778428936720,0.32434818,0.13275166,1.0137787,-0.4111002,2.4554532,-0.4831038
139,1778428936730,0.3122336666666666,0.1324806288888889,1.0432113222222223,-0.351848,2.488439,-0.5307499
140,1778428936740,0.31163403,0.13080032,1.0496345,-0.3219165,2.4688919,-0.58328277
141,1778428936750,0.2593062975,0.12915388,1.067387,-0.3226800724999999,2.426132525,-0.609091075
142,1778428936760,0.21646588,0.1262472066666666,1.1157765,-0.3401061888888889,2.4423539,-0.6084632888888889
143,1778428936770,0.19888356,0.12445848,1.1455547,-0.3732277,2.4695027,-0.614436
144,1778428936780,0.19888356,0.12445848,1.1455547,-0.3732277,2.4695027,-0.614436
145,1778428936790,0.19888356,0.12445848,1.1455547,-0.4294256349999999,2.50523735,-0.6177956499999999
146,1778428936800,0.1632310688888888,0.1308545166666666,1.4338811111111112,-0.6014724488888888,2.5109046888888886,-0.5716088111111112
147,1778428936810,0.19115063125,0.141940445,1.6183070375,-0.6806365437499999,2.1192583125,-0.46905432375
148,1778428936820,0.2086707025,0.14045789,1.656041625,-0.6756734,1.840941,-0.42324078
149,1778428936830,0.21159771,0.1525190666666666,1.6129904000000002,-0.59524519,1.2653192333333334,-0.3033111
150,1778428936840,0.2327650975,0.193700335,1.5638489,-0.6426113237500001,1.3003410875,-0.236397895
151,1778428936850,0.29187676,0.17668714,1.6209482,-1.2140335333333334,1.8410088666666669,-0.0426150755555555
152,1778428936860,0.137698575,-0.0658956139999999,2.24052695,-1.84804205,0.5772220250000001,0.14293826375
153,1778428936870,0.20067481,-0.088717072,2.1455367,-1.72388735,-0.9920923,0.1485122374999999
154,1778428936880,0.32532385,-0.06491233,1.874286,-1.381202,-1.5927079,0.16867019
155,1778428936890,0.32532385,-0.06491233,1.874286,-1.381202,-1.5927079,0.16867019
156,1778428936900,0.32532385,-0.06491233,1.874286,-1.381202,-1.5927079,0.16867019
157,1778428936910,0.32532385,-0.06491233,1.874286,-1.381202,-1.5927079,0.16867019
158,1778428936920,0.32532385,-0.06491233,1.874286,-1.381202,-1.5927079,0.16867019
159,1778428936930,0.32532385,-0.06491233,1.874286,-1.381202,-1.5927079,0.16867019
160,1778428936940,0.32532385,-0.06491233,1.874286,-1.381202,-1.5927079,0.16867019
161,1778428936950,0.32532385,-0.06491233,1.874286,-1.381202,-1.5927079,0.16867019
162,1778428936960,0.32532385,-0.06491233,1.874286,-1.381202,-1.5927079,0.16867019
163,1778428936970,0.32532385,-0.06491233,1.874286,-1.381202,-1.5927079,0.16867019
164,1778428936980,0.3221442414285714,-0.0407558645285714,1.3450741428571429,0.2828986285714285,-0.8055002757142857,0.0305314542857142
165,1778428936990,0.32937898375,-0.04045586595875,1.3741883875,0.5729747162500001,-0.74004145625,-0.05337278125
166,1778428937000,0.3238603722222222,0.0240528934055555,1.4772847222222223,0.5693775388888889,-0.989801638888889,-0.1094010455555555
167,1778428937010,0.3153233,0.054423906,1.504539,0.5748073,-1.1058626,-0.13247749
168,1778428937020,0.3153233,0.054423906,1.504539,0.5748073,-1.1058626,-0.13247749
169,1778428937030,0.2886245533333333,0.1378840633333333,1.5119581333333332,0.5774542899999999,-1.5697247333333335,-0.1518209999999999
170,1778428937040,0.28651062,0.14717323,1.5003924,0.57053137,-1.705791,-0.1440836
171,1778428937050,0.29166336125,0.14833182875,1.4807800125,0.5695387212499999,-1.850103675,-0.1330883475
172,1778428937060,0.2969719511111111,0.1438905111111111,1.4466189111111112,0.57786152,-2.0461008777777776,-0.1193782155555555
173,1778428937070,0.3065118,0.13323948,1.4127958,0.58763504,-2.1736999,-0.11231954
174,1778428937080,0.3149497825,0.1273245,1.370811625,0.56381202,-2.287012175,-0.112930385
175,1778428937090,0.3260556166666666,0.1309900288888889,1.3182035444444449,0.5204419,-2.405822,-0.11109784
176,1778428937100,0.3358123,0.13031249,1.2976061,0.4385883199999999,-2.5444841,-0.1074327599999999
177,1778428937110,0.3358123,0.13031249,1.2976061,0.43858832,-2.5444841,-0.10743276
178,1778428937120,0.33173887,0.137922682,1.24239567,0.2296174782,-2.78967832,-0.087824564
179,1778428937130,0.324165245,0.14256929,1.210101175,0.0691784545,-3.036521825,-0.04818057285
180,1778428937140,0.31922594,0.14275223,1.1980273,0.036650836,-3.1675484,-0.0005344914
181,1778428937150,0.3329157687499999,0.12942828625,1.1455508,0.079715564,-3.33232455,0.0548998965
182,1778428937160,0.33825144,0.13177599,1.096009,0.120947756,-3.4106658,0.08376243
183,1778428937170,0.3477642,0.10665256,1.0386581,0.18508671,-3.4919083,0.11186141
184,1778428937180,0.35483778,0.095904985,1.01827585,0.19150060875,-3.5051942875,0.1139230175
185,1778428937190,0.3854150325,0.042471990125,0.89176699375,0.19096612375,-3.6010973875000003,0.1162900425
186,1778428937200,0.3876886111111111,0.0237717112222222,0.7911538633333334,0.15332267,-3.658059,0.116748184
187,1778428937210,0.38642498625,0.02692992475,0.73894936375,0.11010522025,-3.6065187,0.1226275865
188,1778428937220,0.3943827733333333,0.0419841566666666,0.64819838,0.014660334,-3.5051433999999997,0.1466797
189,1778428937230,0.39730978,0.04735032,0.60232174,-0.03787253,-3.444873,0.16500512
190,1778428937240,0.4291137911111111,0.0566462572222222,0.5665980888888889,-0.0647498111111111,-3.3333595222222225,0.2021310622222222
191,1778428937250,0.46918726,0.0679748333333333,0.5291670244444444,-0.0935275044444444,-3.1615079444444443,0.2611796288888889
192,1778428937260,0.48246717,0.07271766,0.5268905,-0.09162709,-3.1254,0.2877854
193,1778428937270,0.49019628125,0.06006447975,0.46957772,-0.0445154952499999,-3.3092650624999997,0.3242071925
194,1778428937280,0.4841746,0.044179406,0.41535962,-0.017714571,-3.433267,0.33115557
195,1778428937290,0.4739301,0.022928167,0.3606918,0.0,-3.4143307,0.3287122
196,1778428937300,0.4773991433333334,0.0108678427555555,0.3022364844444444,0.0190720086666666,-3.3312555555555554,0.3209747911111111
197,1778428937310,0.4865603875,0.0051832293,0.20884603,0.0433701545,-3.22634255,0.3106921875
198,1778428937320,0.4907907999999999,0.014878917,0.16693048,0.05070032,-3.208475,0.30794337
199,1778428937330,0.4907908,0.014878917,0.16693048,0.05070032,-3.208475,0.30794337
200,1778428937340,0.4907907999999999,0.014878917,0.16693048,0.05070032,-3.208475,0.30794337
201,1778428937350,0.4907908,0.014878917,0.16693048,0.05070032,-3.208475,0.30794337
202,1778428937360,0.4907907999999999,0.014878917,0.16693048,0.05070032,-3.208475,0.30794337
203,1778428937370,0.5645108375,0.06943240275,-0.0755913045,0.102545985,-2.8462426625,0.27701923
204,1778428937380,0.64272425,0.08914773425,-0.24568889,0.15210097,-2.51272,0.24258272
205,1778428937390,0.7015517288888888,0.0737204264444444,-0.2692467377777778,0.2100635866666666,-2.2510738666666668,0.1812943766666666
206,1778428937400,0.726414315,0.060521825,-0.28943762,0.2869454999999999,-1.95165705,0.09124530925
207,1778428937410,0.7321192555555556,0.0522557584444444,-0.3014471288888889,0.3154686711111111,-1.8251098666666663,0.0373380385555555
208,1778428937420,0.7611725,0.031007906,-0.3331292,0.332835415,-1.6579827125,-0.025273804125
209,1778428937430,0.784375,0.020001167,-0.357033,0.32802498,-1.5456727,-0.074447006
210,1778428937440,0.79565615,0.011159188,-0.37599754875,0.28847261375,-1.3819655875,-0.12858334725
211,1778428937450,0.8131572,0.014147166,-0.3804795,0.2596101,-1.3178266,-0.15691139
212,1778428937460,0.8294250577777778,0.024235832,-0.3727215977777778,0.19200966,-1.186969577777778,-0.2101229766666666
213,1778428937470,0.845841995,0.03375197025,-0.35444140625,0.132095725,-1.0846356875,-0.24227729375
214,1778428937480,0.85148257,0.034666654,-0.34239805,0.1007898,-1.044167,-0.25220355
215,1778428937490,0.8635870125,0.031004094875,-0.33764167125,0.06765133125,-1.018587825,-0.2575484875
216,1778428937500,0.8714838,0.025855167,-0.35044727,0.04459185,-0.960481,-0.25831205
217,1778428937510,0.8708130325000001,0.0230806149125,-0.35172783625,0.038330665625,-0.9181034675,-0.258159335
218,1778428937520,0.86611766,0.0036587503,-0.3606918,-0.005497625,-0.62146074,-0.25709033
219,1778428937530,0.8616999777777778,-0.0008130554555555,-0.3668506622222222,0.0030542363333333,-0.4832056566666666,-0.25688673
220,1778428937540,0.8528546275,-0.0076223956249999,-0.38883364,0.02275406125,-0.29481017,-0.2462478125
221,1778428937550,0.8589627599999999,-0.0109762506666666,-0.4184593666666666,0.03420745,-0.16699037,-0.2302130599999999
222,1778428937560,0.8658737333333333,-0.0114640836666666,-0.4419770166666666,0.0445239777777777,0.09092292,-0.1784267944444444
223,1778428937570,0.8758437849999999,-0.0139337395625,-0.44539184625,0.032527615,0.347190325,-0.1214822525
224,1778428937580,0.8796956311111112,-0.0134154171111111,-0.4272844155555555,0.0076016542222222,0.5797365,-0.0673883296666666
225,1778428937590,0.8736181,-0.013354437675,-0.3923628325,-0.0270299909999999,0.7654679625,-0.0242048225
226,1778428937600,0.8663615,-0.0040652782333333,-0.3618300533333333,-0.0535509426666666,0.9148201333333332,0.0023161296666666
227,1778428937610,0.84892145,0.00561008335,-0.327869745,-0.0586413359999999,1.005530975,0.018401774
228,1778428937620,0.8337546,0.0095398518888888,-0.3103602511111111,-0.049478628,1.0467632,0.020234315
229,1778428937630,0.79888044,0.0143301045,-0.2969380675,-0.0222195715,1.03263735,0.0068720319999999
230,1778428937640,0.7624191333333333,0.0111388614444444,-0.3073112855555555,0.0371259387777777,1.0351231,-0.0303302636666666
231,1778428937650,0.7536415125,0.016616823625,-0.32462259375,0.07192726375,1.1115129375,-0.0521510856249999
232,1778428937660,0.7510905666666666,0.0265157756666666,-0.3430484666666666,0.1043191322222222,1.2408852777777777,-0.072682342
233,1778428937670,0.7486107675,0.030763991,-0.3564232175,0.1298050375,1.474737925,-0.100713443
234,1778428937680,0.74458617,0.030763991,-0.35459387,0.13072132,1.6075972,-0.11354123
235,1778428937690,0.74458617,0.030763991,-0.35459387,0.13072132,1.6075972,-0.11354123
236,1778428937700,0.74458617,0.030763991,-0.35459387,0.13072132,1.6075972,-0.1135412299999999
237,1778428937710,0.74458617,0.030763991,-0.35459387,0.13072132,1.6075972,-0.11354123
238,1778428937720,0.74458617,0.030763991,-0.35459387,0.13072132,1.6075972,-0.1135412299999999
239,1778428937730,0.6828447280000001,0.0573082224,-0.1696135596,0.136341112,2.5308318400000003,-0.164852406
240,1778428937740,0.6275806666666667,0.0616329977777777,0.0025441857777777,0.1489788577777777,3.2950968444444446,-0.2101908533333333
241,1778428937750,0.62134725,0.05174082,0.046618573,0.1676012124999999,3.52933235,-0.23685602125
242,1778428937760,0.6105463,0.04515507325,0.12294162,0.1929513825,3.7851150375,-0.2774010025
243,1778428937770,0.597169,0.046618573,0.1893708,0.1795891,4.1084824,-0.32550523
244,1778428937780,0.5831302444444444,0.0634284954444444,0.2708321955555555,0.1623496266666666,4.2472127,-0.3666356233333333
245,1778428937790,0.5499024825000001,0.091163859,0.374053825,0.1233911525,4.3747354875,-0.41270369375
246,1778428937800,0.52399396875,0.108359985,0.4449878499999999,0.0488677835,4.42276325,-0.438664695
247,1778428937810,0.5085967,0.1144579,0.5281101,-0.020768806,4.414517,-0.4556156999999999
248,1778428937820,0.4996415114285714,0.1113915185714285,0.6205022442857143,0.0237357797142857,4.2165152,-0.4443586571428571
249,1778428937830,0.486392685,0.101286396,0.76154597,0.144236308125,3.9237678625,-0.43049459375
250,1778428937840,0.48429653,0.1014693316249999,0.7992539762499999,0.302827515,3.69234255,-0.43820655625
251,1778428937850,0.480028,0.112994395,0.8043762,0.43354885,3.6244621625,-0.4711159499999999
252,1778428937860,0.45563635,0.1601008,0.83538413,0.51799846,3.7217395,-0.5069269
253,1778428937870,0.45563635,0.1601008,0.83538413,0.51799846,3.7217395,-0.5069269
254,1778428937880,0.42927428625,0.21433796375,0.96315833625,0.6409314725,3.8586934875,-0.5556419525
255,1778428937890,0.41746719375,0.25760268625,1.121445,0.78799295,3.9111786,-0.57534176
256,1778428937900,0.4475871,0.25672227,1.1936367,0.8732401055555555,3.70260828888889,-0.5438492088888889
257,1778428937910,0.45938656875,0.247971775,1.2085156125,0.93306919375,3.2536015625,-0.49822229875
258,1778428937920,0.45014821125,0.23379413125,1.200557775,0.917034465,2.67413655,-0.4360685749999999
259,1778428937930,0.43978173,0.2289158,1.1811969,0.83869326,2.4029205,-0.39392012
260,1778428937940,0.43978173,0.2289158,1.1811969,0.83869326,2.4029205,-0.39392012
261,1778428937950,0.42350792875,0.2390726437499999,1.06636173375,0.4643202712499999,2.046949175,-0.3395547175
262,1778428937960,0.41462782,0.2613872,0.97886807,0.08857285,1.8427734,-0.2735832
263,1778428937970,0.4094141325,0.2867850262499999,0.96594049625,-0.2078407775,1.782605025,-0.22379916
264,1778428937980,0.3875454849999999,0.3019383475,0.983936975,-0.4214082575,1.7353407374999998,-0.17180079375
265,1778428937990,0.3626431,0.29846254,1.0167056,-0.4996730699999999,1.7273233,-0.14469445
266,1778428938000,0.3626431,0.29846254,1.0167056,-0.4996730699999999,1.7273233,-0.14469445
267,1778428938010,0.36418282375,0.28035173,1.0646315125,-0.64168550875,1.7574839125,-0.12652173825
268,1778428938020,0.37267417,0.27358305,1.0801545,-0.70438325,1.7542006,-0.118428014
269,1778428938030,0.37267417,0.27358305,1.0801545,-0.70438325,1.7542006,-0.118428014
270,1778428938040,0.3373570866666667,0.2769978733333333,1.0284949833333332,-1.08025795,1.6107193555555557,-0.0785193255555555
271,1778428938050,0.30724356,0.27651003,1.0279258,-1.3537139,1.5862176,-0.013362284
272,1778428938060,0.30724356,0.27651003,1.0279258,-1.3537139,1.5862176,-0.013362284
273,1778428938070,0.30724356,0.27651003,1.0279258,-1.3537139,1.5862176,-0.013362284
274,1778428938080,0.30724356,0.27651003,1.0279258,-1.3537139,1.5862176,-0.013362284
275,1778428938090,0.30724356,0.27651003,1.0279258,-1.3537139,1.5862176,-0.013362284
276,1778428938100,0.30724356,0.27651003,1.0279258,-1.3537139,1.5862176,-0.013362284
277,1778428938110,0.30724356,0.27651003,1.0279258,-1.3537139,1.5862176,-0.013362284
278,1778428938120,0.30724356,0.27651003,1.0279258,-1.3537139,1.5862176,-0.013362284
279,1778428938130,0.30724356,0.27651003,1.0279258,-1.3537139,1.5862176,-0.013362284
280,1778428938140,0.30724356,0.27651003,1.0279258,-1.3537139,1.5862176,-0.013362284
281,1778428938150,0.3199780022222222,0.2024677799999999,1.2786484555555555,-1.1011625222222223,1.160262011111111,0.0008908199999999
282,1778428938160,0.32995826,0.18863906,1.2944353,-1.0275215,1.0388222,-0.02069245
283,1778428938170,0.32995826,0.18863906,1.2944353,-1.0275215,1.0388222,-0.02069245
284,1778428938180,0.32995826,0.18863906,1.2944353,-1.0275215,1.0388222,-0.02069245
285,1778428938190,0.32995826,0.18863906,1.2944353,-1.0275215,1.0388222,-0.02069245
286,1778428938200,0.32995826,0.18863906,1.2944353,-1.0275215,1.0388222,-0.02069245
287,1778428938210,0.32995826,0.18863906,1.2944353,-1.0275215,1.0388222,-0.02069245
288,1778428938220,0.2821201066666667,0.1700099266666666,1.2474915,-1.0155081666666663,0.9978954,-0.0618228333333333
289,1778428938230,0.2832063099999999,-0.03398826225,1.5184003875,-1.7276955374999998,-0.9783482375,0.29343576125
290,1778428938240,0.35985839,-0.16435241,1.4678973555555557,0.7350528444444444,-0.4363061366666667,0.1141011772222222
291,1778428938250,0.41560352,-0.18010198,1.4657563,0.9508601,-0.498222295,0.058717687375
292,1778428938260,0.4279009733333333,-0.14683784,1.4830743333333334,1.0834394,-0.78211356,-0.0347419373333333
293,1778428938270,0.41438392,-0.11494574,1.466488,1.103801,-0.9458206,-0.07627955
294,1778428938280,0.3972826544444444,-0.0684084646666666,1.4452164444444444,1.0401371,-1.088691,-0.1277943344444444
295,1778428938290,0.391394785,-0.017741127125,1.45033225,0.953074425,-1.18588365,-0.17523680375
296,1778428938300,0.4008329933333333,0.0540241533333333,1.5157659666666667,0.8475166222222222,-1.2957004,-0.2220684355555555
297,1778428938310,0.41557302625,0.105981793125,1.5664138625,0.821284125,-1.5096613,-0.23128205
298,1778428938320,0.42148799625,0.1271110825,1.5721001,0.8258655,-1.6746378,-0.2228829
299,1778428938330,0.4113485355555555,0.1429487177777778,1.5241844999999998,0.83855752,-1.990377888888889,-0.1909830955555555
300,1778428938340,0.3977162933333333,0.1511300888888889,1.460031022222222,0.8317024888888889,-2.211912,-0.1491739955555555
301,1778428938350,0.38773605375,0.14747431625,1.3580936625,0.7739435,-2.397651875,-0.09315420875
302,1778428938360,0.3874176011111111,0.1305563966666666,1.2853222333333334,0.6927008,-2.481567,-0.06589515
303,1778428938370,0.379016015,0.126226875,1.245735825,0.469130695,-2.555174,-0.033214819
304,1778428938380,0.3916996811111111,0.1335375966666666,1.2064558555555556,0.38972056,-2.604958,-0.021303298
305,1778428938390,0.418134185,0.130861286875,1.194029325,0.25205086,-2.808217625,0.015652961
306,1778428938400,0.42560413,0.122751065,1.1540917,0.17348062,-2.965358,0.04344651
307,1778428938410,0.41767683,0.119854549375,1.134730825,0.164165199375,-2.9836070625,0.045355408
308,1778428938420,0.4105422625,0.1144578899999999,1.1123133749999998,0.051234814375,-3.2235936875,0.07284353525
309,1778428938430,0.4015783149999999,0.09445292,1.03070423,-0.005344913,-3.39356195,0.100102595
310,1778428938440,0.39958633,0.0748316053333333,0.9511327266666668,-0.0468316216666666,-3.5143061,0.1310012866666666
311,1778428938450,0.39682195,0.066863656,0.9195659,-0.061084725,-3.5456629,0.13996038
312,1778428938460,0.39682195,0.066863656,0.9195659,-0.061084725,-3.5456629,0.13996038
313,1778428938470,0.39682195,0.066863656,0.9195659,-0.061084725,-3.5456629,0.13996038
314,1778428938480,0.4046814733333333,0.0429869255555555,0.7187004688888889,0.0501573454444444,-3.715342555555555,0.18285543
315,1778428938490,0.4142009975,0.04375255,0.6589332800000001,0.0969719974999999,-3.711355125,0.1957001925
316,1778428938500,0.42243317,0.04393549,0.6135419,0.13133216,-3.737468999999999,0.2034885
317,1778428938510,0.42243317,0.04393549,0.6135419,0.13133216,-3.737469,0.2034885
318,1778428938520,0.4266712177777778,0.0498436937777777,0.5322431155555556,0.1848831,-3.7800246888888887,0.2239858111111111
319,1778428938530,0.42545164125,0.057228948375,0.412794645,0.26602397375,-3.824438275,0.25502872
320,1778428938540,0.4289173088888889,0.0641534761111111,0.3388680011111111,0.3082063777777777,-3.7952279222222223,0.2779439977777778
321,1778428938550,0.4388061,0.07344941,0.26846078,0.3286358,-3.717311,0.2926722
322,1778428938560,0.464783225,0.065796521125,0.1976525375,0.3681881875,-3.5357366,0.32351998
323,1778428938570,0.485001625,0.05344823975,0.16448750375,0.39834876125,-3.390431275,0.3472666575
324,1778428938580,0.5146946388888889,0.0430648431111111,0.1355973416666666,0.3885667355555555,-3.20691421111111,0.3662453488888889
325,1778428938590,0.54521856875,0.0253673321625,0.090916131875,0.31290649,-3.174725975,0.3658211575
326,1778428938600,0.5676551,0.0048783333,0.05588741,0.23090026,-3.1596074,0.35803285
327,1778428938610,0.5961357666666667,-0.0140929627111111,0.0407103701111111,0.1544086155555555,-3.1311011444444445,0.3380784944444445
328,1778428938620,0.6042731,-0.019513333,0.036374073,0.13255386,-3.1229565,0.33237725
329,1778428938630,0.6042731,-0.019513333,0.036374073,0.13255386,-3.1229565,0.33237725
330,1778428938640,0.644991925,-0.0228405098749999,0.0026945160875,0.0070247474999999,-2.9455818125,0.24884389875
331,1778428938650,0.6779664,-0.020245085,-0.020245085,-0.09712471,-2.7876015,0.17600037
332,1778428938660,0.6799177333333334,0.0139947186666666,-0.0675141016666666,-0.0976676877777777,-2.699775188888889,0.1082641944444444
333,1778428938670,0.6823569,0.038325407,-0.10348164,-0.08490777,-2.6318355,0.05444176
334,1778428938680,0.6927639888888889,0.0385422234444444,-0.1415461977777777,-0.0633244993333333,-2.590026277777778,0.0316367987555555
335,1778428938690,0.7013824,0.035642326,-0.20891462,-0.035429142,-2.4583547,0.0012980504
336,1778428938700,0.7377835722222222,0.0326882204444444,-0.2644801955555556,-0.0411303826666666,-2.2973626111111107,-0.013022924
337,1778428938710,0.75959464,0.028744055,-0.31816644,-0.06230642,-2.1480443,-0.020081604
338,1778428938720,0.7779518866666666,0.0241206482222222,-0.3427774711111111,-0.10017895,-1.961736,-0.015194826
339,1778428938730,0.7952598,0.0158545839175,-0.3577990825,-0.1371352025,-1.8528525,-0.01695101125
340,1778428938740,0.8116937,0.00048783334,-0.38706526,-0.19058435,-1.7448852,-0.02069245
341,1778428938750,0.8166673087499999,-0.0018293750775,-0.3906325425,-0.20409934375,-1.7041016,-0.020845161875
342,1778428938760,0.8518789412500001,-0.0175620005,-0.41349973625,-0.3213820125,-1.371428425,-0.019394400375
343,1778428938770,0.85465354,-0.0141471659999999,-0.39877325,-0.3591782,-1.2927818,-0.015194826
344,1778428938780,0.85465354,-0.014147166,-0.39877325,-0.3591782,-1.2927818,-0.015194826
345,1778428938790,0.85447058875,0.0053051882875,-0.396303605,-0.4125509725,-1.2265813,-0.0011453387999999
346,1778428938800,0.862215,0.027074749,-0.4004807,-0.4611897,-1.1419026,0.02145601
347,1778428938810,0.862215,0.027074749,-0.4004807,-0.4611897,-1.1419026,0.02145601
348,1778428938820,0.8660092100000001,0.0420857877777777,-0.4069309433333333,-0.4117789266666667,-1.0734198222222222,0.0330621074444444
349,1778428938830,0.8652638625,0.0569850335,-0.42434642,-0.3507790375,-0.99117605,0.0324512609999999
350,1778428938840,0.86465406,0.060521826,-0.42953727,-0.33413345,-0.968422,0.031840414
351,1778428938850,0.8531900225,0.06768687575,-0.5379620275,-0.2211267075,-0.658493345,0.0396287155
352,1778428938860,0.87066056,0.041728806875,-0.5816498,-0.17225893,-0.41743773,0.044668205
353,1778428938870,0.87782556,0.024635585,-0.5830218,-0.17225893,-0.41743773,0.044668205
354,1778428938880,0.8720630475,0.01399471975,-0.5703000375,-0.11911521675,-0.11850436,0.047646086125
355,1778428938890,0.85758054,-0.008293167,-0.5412816,-0.014049487,0.4798968699999999,0.058717694
356,1778428938900,0.85758054,-0.008293167,-0.5412816,-0.014049487,0.47989687,0.058717694
357,1778428938910,0.85758054,-0.008293167,-0.5412816,-0.014049487,0.4798968699999999,0.058717694
358,1778428938920,0.820791035,-0.0117994692875,-0.5276832325,-0.007635590675,0.8493926425,0.12484190975
359,1778428938930,0.79461956,-0.0048783333,-0.52981746,-0.025044737,1.148851,0.19676918
360,1778428938940,0.800839415,0.000426854175,-0.5257928399999999,-0.0575723592499999,1.28766595,0.2329618775
361,1778428938950,0.7947279411111111,0.007290398,-0.476935,-0.1130067399999999,1.497034,0.2719034
362,1778428938960,0.78315544,0.0131715005,-0.4344156,-0.1130067399999999,1.497034,0.2719034
363,1778428938970,0.7843401485714285,0.0151228337857142,-0.39982298,-0.1795018342857142,1.7118776571428571,0.3020966971428572
364,1778428938980,0.7830199111111111,0.0189170928888888,-0.3652144055555555,-0.2056519133333333,1.8696507666666664,0.3044819233333333
365,1778428938990,0.7782771,0.027074749,-0.33483663,-0.20890976,1.9417307,0.30000237
366,1778428939000,0.7782771,0.027074749,-0.33483663,-0.20890976,1.9417307,0.30000237
367,1778428939010,0.8030515555555556,0.0248523979999999,-0.2969516066666667,-0.1914666811111111,2.1282427666666663,0.2676274633333333
368,1778428939020,0.830986,0.0235379585,-0.1835777725,-0.1185043725,2.4962272999999997,0.1740151075
369,1778428939030,0.8236456,0.026099084,-0.14644147,-0.06902574,2.5544105,0.1350736
370,1778428939040,0.8236456,0.026099084,-0.14644147,-0.06902574,2.5544105,0.1350736
371,1778428939050,0.8236456,0.026099084,-0.14644147,-0.06902574,2.5544105,0.1350736
372,1778428939060,0.8236456,0.026099084,-0.14644147,-0.06902574,2.5544105,0.1350736
373,1778428939070,0.8236456,0.026099084,-0.14644147,-0.06902574,2.5544105,0.1350736
374,1778428939080,0.8236456,0.026099084,-0.14644147,-0.06902574,2.5544105,0.1350736
375,1778428939090,0.7829657377777778,0.0028456945111111,-0.0018734152888888,0.0051582657777777,3.0229982444444445,0.0282432022222222
376,1778428939100,0.7809602,0.0017074167,0.0065857503,0.002443389,3.072409,0.022677705
377,1778428939110,0.7809602,0.0017074167,0.0065857503,0.002443389,3.072409,0.022677705
378,1778428939120,0.7809602,0.0017074167,0.0065857503,0.002443389,3.072409,0.022677705
379,1778428939130,0.7809602,0.0017074167,0.0065857503,0.002443389,3.072409,0.022677705
380,1778428939140,0.772537445,-0.0012805625999999,0.102894725225,0.009773556,3.1035622125,0.0077883029999999
381,1778428939150,0.7416591,-0.005854,0.4107252,0.051922016,3.1475432,-0.053067356
382,1778428939160,0.727024125,0.003475812725,0.4202379525,0.089947259,3.0898181,-0.0791810765
383,1778428939170,0.7110679333333333,0.0135780287666666,0.41235131,0.1164682093333333,3.0872728,-0.1025459833333333
384,1778428939180,0.69065005,0.024391668,0.40877387,0.1123959,3.2220666,-0.12636903
385,1778428939190,0.67861684,0.0301813018888888,0.5031154155555556,0.0834145855555555,3.3232636555555555,-0.1368213055555555
386,1778428939200,0.66820973,0.021708583,0.5752165,0.0702474366666666,3.2359803888888887,-0.1381787455555555
387,1778428939210,0.66820973,0.021708583,0.5752165,0.06963659,3.2214558,-0.13797513
388,1778428939220,0.6495108771428572,-0.0016377262857142,0.6661015828571429,0.15253729,3.0674350142857145,-0.13797513
389,1778428939230,0.639397,-0.008781,0.70699245,0.25628437,2.8375043,-0.1624090144444444
390,1778428939240,0.6047609,0.0131715005,0.6735759,0.249531125,2.834331175,-0.2291440825
391,1778428939250,0.5901699366666667,0.0249709698888888,0.67677052,0.1565126377777777,2.944131122222222,-0.2528144111111111
392,1778428939260,0.5549714,0.056375243,0.70113844,0.08429692,2.9997182,-0.24426255
393,1778428939270,0.5468268875000001,0.065522117875,0.7813565625000001,-0.0215323664999999,2.91916265,-0.22074493125
394,1778428939280,0.5269988555555556,0.0748587044444444,0.9118757133333334,-0.1410378488888889,2.689475688888889,-0.1590154142222222
395,1778428939290,0.5239635,0.07296158,0.9874052,-0.14721419,2.4737787,-0.108654454
396,1778428939300,0.5239635,0.07296158,0.9874052,-0.14721419,2.4737787,-0.108654454
397,1778428939310,0.5312113085714285,0.0561313244285714,0.9670468371428572,-0.0346437660371428,1.7919858285714283,-0.0371853272857142
398,1778428939320,0.502369245,0.04058163525,0.8442184450000001,-0.026266432945,1.64104115,-0.03504736275
399,1778428939330,0.4610025,0.029788323,0.7836433,-0.10323319,1.8055118,-0.04146126
400,1778428939340,0.4525569,0.0216628489999999,0.7785400875,-0.16691401125,1.945777575,-0.03397838025
401,1778428939350,0.4291273511111111,-0.0032793241111111,0.8030549777777778,-0.3781823222222222,2.409707477777778,-0.0181811902666666
402,1778428939360,0.4278069774999999,-0.0070126045,0.9428141,-0.4713450125,2.68345195,0.0009926267749999
403,1778428939370,0.45457937,-0.0077240281,1.0710380666666666,-0.5055779266666667,2.637078522222222,0.0366593198888888
404,1778428939380,0.47295445,-0.0036587503,1.1279926,-0.51127917,2.3662696,0.06421532
405,1778428939390,0.4857828975,-0.005914979375,1.1468961750000002,-0.51799846,2.068176,0.091092594
406,1778428939400,0.4652024475,-0.0154277295,1.102549075,-0.51066829,1.68975625,0.0987281835
407,1778428939410,0.41340828,-0.014878917,1.0320724,-0.5045598,1.4817628,0.08498412
408,1778428939420,0.39205794,-0.007866312625,1.0346945,-0.5045598,1.4817628,0.08498412
409,1778428939430,0.27236345,0.061741404,1.1297001,-0.4111002,1.8360542,0.049554985
410,1778428939440,0.27236345,0.0617414039999999,1.1297001,-0.4111002,1.8360542,0.049554985
411,1778428939450,0.28026406125,0.06210727975,1.1526397,-0.37811444875,1.8609462125,0.049402273125
412,1778428939460,0.378802595,0.0266440854999999,1.3304435125,0.0150421138524999,1.8356724,0.039705072625
413,1778428939470,0.39267537,-0.015854584,1.3178513,0.11606098,1.6320312,0.03061872
414,1778428939480,0.39267537,-0.015854584,1.3178513,0.11606098,1.6320312,0.03061872
415,1778428939490,0.39267537,-0.015854584,1.3178513,0.11606098,1.6320312,0.03061872
416,1778428939500,0.39267537,-0.015854584,1.3178513,0.11606098,1.6320312,0.03061872
417,1778428939510,0.3619655566666667,-0.00804925,1.2386833666666666,-0.0643425766666666,1.3502948555555556,-0.0644698413333333
418,1778428939520,0.384549885,-0.00201231275,1.273740475,-0.17409147,1.3369919,-0.057343286
419,1778428939530,0.43636695,-0.014635001,1.339072,-0.32497075,1.3253858,-0.024968382
420,1778428939540,0.59502330625,-0.051797991375,1.717478175,-0.05986303125,1.7059436875,-0.046882525125
421,1778428939550,0.62744516,0.04320374,2.1932378,0.57297474,2.1304824,-0.15202461
422,1778428939560,0.5092636912499999,0.084665765375,2.0213146875,0.5759526125000001,0.1621799375,-0.1185807332499999
423,1778428939570,0.45246542,0.050277323,1.7351623,0.3915531,-0.924441,-0.068338536
424,1778428939580,0.364228575,-0.038912331,1.180396625,0.13499725,-1.741831,0.023899399
425,1778428939590,0.3489295777777778,-0.0843206344444444,0.9417825555555556,0.1377121155555555,-1.3960913888888888,-0.0095614559888888
426,1778428939600,0.3231286,-0.09909115,0.8148646,0.16370706,-0.7729508,-0.08055548
427,1778428939610,0.31800637,-0.08198649,0.82681656,0.1356080925,-0.37406758625,-0.11010521925
428,1778428939620,0.3271532499999999,-0.0028660199999999,0.958729705,0.0772721775,-0.1889808725,-0.1233147905
429,1778428939630,0.3206894333333333,0.0349715519999999,1.0298873666666666,0.0417412306666666,-0.1700446,-0.1076363783333333
430,1778428939640,0.3158111,0.05174082,1.0630803,0.012827792,-0.16515782,-0.083609715
431,1778428939650,0.32513414,0.0578116404444444,1.1038415444444445,-0.040383792,-0.1857908866666666,-0.0542890527777777
432,1778428939660,0.3387087825,0.057503357,1.2462275125,-0.0993390325,-0.27732465,-0.044668207
433,1778428939670,0.3432110966666666,0.0467811849999999,1.344611,-0.1211513716666666,-0.3502445333333333,-0.0502167346666666
434,1778428939680,0.34239805,0.042715907,1.3742266,-0.124001995,-0.3820086,-0.05673244
435,1778428939690,0.34239805,0.042715907,1.3742266,-0.124001995,-0.3820086,-0.05673244
436,1778428939700,0.34239805,0.042715907,1.3742266,-0.124001995,-0.3820086,-0.05673244
437,1778428939710,0.3456734928571428,0.0519847405714285,1.444653142857143,-0.083249756,-0.7227741142857143,-0.1061238028571428
438,1778428939720,0.3538621,0.07247374,1.5372543,-0.026266431,-1.2298646,-0.17706935
439,1778428939730,0.3538621,0.07247374,1.5372543,-0.026266431,-1.2298646,-0.17706935
440,1778428939740,0.3937831222222223,0.0778941133333333,1.514895366666667,0.0226013485555555,-1.5513060222222224,-0.1933586122222222
441,1778428939750,0.39877325,0.07857166,1.5121005,0.028709821,-1.5914862,-0.19539477
442,1778428939760,0.39877325,0.07857166,1.5121005,0.028709821,-1.5914862,-0.19539477
443,1778428939770,0.4175988888888889,0.063096502,1.4513414888888887,0.1292281326666666,-1.8248043777777776,-0.2044896066666666
444,1778428939780,0.4357164933333333,0.037176966,1.3483612,0.21644355,-2.0800367333333334,-0.21331295
445,1778428939790,0.4395920644444444,0.0253131296666666,1.3024032333333333,0.2080952999999999,-2.131415777777778,-0.2131772
446,1778428939800,0.4661654066666666,0.0209768336666666,1.2820091,0.2015795933333333,-2.2543996444444447,-0.1901007555555555
447,1778428939810,0.489693205,0.018903542,1.25049215,0.2064663675,-2.39452115,-0.176000375
448,1778428939820,0.4988401,0.020001167,1.2007103,0.20280129,-2.5512035,-0.1672958
449,1778428939830,0.4923356555555556,0.0313026398888888,1.1551520777777775,0.2023261844444444,-2.6129670666666667,-0.15779372
450,1778428939840,0.4915226,0.032715324,1.1494573,0.20219044,-2.6306138,-0.15507884
451,1778428939850,0.4915226,0.032715324,1.1494573,0.20219044,-2.6306138,-0.15507884
452,1778428939860,0.4915226,0.032715324,1.1494573,0.20219044,-2.6306138,-0.15507884
453,1778428939870,0.4915226,0.032715324,1.1494573,0.20219044,-2.6306138,-0.15507884
454,1778428939880,0.48100364,0.08003516,1.1001556,0.2247918,-2.8431885,-0.1129303899999999
455,1778428939890,0.429674485,0.0576354766666666,0.7502774833333333,0.2037175666666666,-3.66131665,0.135684455
456,1778428939900,0.4289045825,0.0391714922499999,0.6005457075,0.1216349624999999,-3.7002072,0.2473931425
457,1778428939910,0.45270932,0.027074749,0.57033813,0.07941014,-3.6446202,0.2810661
458,1778428939920,0.47210072625,0.02058046875,0.5137151875,0.04902049275,-3.62889085,0.2989333775
459,1778428939930,0.47868645875,0.01067135425,0.4565777024999999,0.048562358,-3.5536803125,0.30000235625
460,1778428939940,0.48295498,0.008537084,0.41535962,0.054976255,-3.3960054,0.2914505
461,1778428939950,0.48295498,0.008537084,0.41535962,0.054976255,-3.3960054,0.2914505
462,1778428939960,0.5125705266666666,0.0217085826666666,0.3823292266666667,0.070858285,-3.1341555333333333,0.2739395466666667
463,1778428939970,0.53466913375,0.028298144125,0.35694155625,0.0834570085,-2.9753606875000003,0.26785652125
464,1778428939980,0.55594707,0.029788323,0.3216651,0.10140064,-2.8999975,0.27556846
465,1778428939990,0.56128275875,0.029574897375,0.2757515925,0.079486496,-2.798978575,0.2696890724999999
466,1778428940000,0.5735903766666667,0.0305912159999999,0.2368024333333333,0.0198864706666666,-2.630478055555556,0.2623334533333333
467,1778428940010,0.58887583,0.024391668,0.23257454,-0.04031592,-2.461409,0.25968644
468,1778428940020,0.62030679125,0.0051832295,0.2261107525,-0.0957503025,-2.2599821,0.2303657674999999
469,1778428940030,0.6584949812499999,-0.002012312475,0.23105006,-0.12919419375,-2.116127675,0.20081604125
470,1778428940040,0.67772245,0.0019513334,0.24477036,-0.13377555,-2.0527523,0.18821731
471,1778428940050,0.67772245,0.0019513334,0.24477036,-0.13377555,-2.0527523,0.18821731
472,1778428940060,0.6811982624999999,-0.0020123127,0.235379575,-0.1009425097499999,-2.089403125,0.1572168125
473,1778428940070,0.6916257,-0.013903251,0.20720722,-0.002443389,-2.1993556,0.06421532
474,1778428940080,0.6916257,-0.013903251,0.20720722,-0.002443389,-2.1993556,0.06421532
475,1778428940090,0.69910581,-0.0082118616777777,0.1744715653333333,0.0142531025555555,-2.213608688888889,0.0434465124444444
476,1778428940100,0.7141461,-0.0063113437625,0.079985611,0.0389415135,-2.263189025,-0.0069483875
477,1778428940110,0.71653575,-0.00951275,0.05491174,0.035429142,-2.265327,-0.011529742
478,1778428940120,0.71653575,-0.00951275,0.05491174,0.035429142,-2.265327,-0.011529742
479,1778428940130,0.71653575,-0.00951275,0.05491174,0.035429142,-2.265327,-0.011529742
480,1778428940140,0.71653575,-0.00951275,0.05491174,0.035429142,-2.265327,-0.011529742
481,1778428940150,0.71653575,-0.00951275,0.05491174,0.035429142,-2.265327,-0.011529742
482,1778428940160,0.71653575,-0.00951275,0.05491174,0.035429142,-2.265327,-0.011529742
483,1778428940170,0.71653575,-0.00951275,0.05491174,0.035429142,-2.265327,-0.011529742
484,1778428940180,0.71653575,-0.00951275,0.05491174,0.035429142,-2.265327,-0.011529742
485,1778428940190,0.71653575,-0.00951275,0.05491174,0.035429142,-2.265327,-0.011529742
486,1778428940200,0.7346122025,-0.017260915,-0.30055487625,-0.27763007375,-1.8832421125,-0.0068720310625
487,1778428940210,0.741903,-0.014147166,-0.37267417,-0.33902022,-1.7473286,0.0122933015
488,1778428940220,0.741903,-0.014147166,-0.37267417,-0.33902022,-1.7473286,0.0122933015
489,1778428940230,0.777042265,0.005000292,-0.39450471,-0.33627142,-1.579002,-0.01885990775
490,1778428940240,0.8188358825000001,0.0246965627499999,-0.4368395025,-0.293970255,-1.33829,-0.07139277275
491,1778428940250,0.83879894,0.026343001,-0.49835226,-0.17531316,-1.1211338,-0.13553174
492,1778428940260,0.83879894,0.026343001,-0.49835226,-0.17531316,-1.1211338,-0.13553174
493,1778428940270,0.83879894,0.026343001,-0.49835226,-0.17531316,-1.1211338,-0.13553174
494,1778428940280,0.83879894,0.026343001,-0.49835226,-0.17531316,-1.1211338,-0.13553174
495,1778428940290,0.83879894,0.026343001,-0.49835226,-0.17531316,-1.1211338,-0.13553174
496,1778428940300,0.83879894,0.026343001,-0.49835226,-0.17531316,-1.1211338,-0.13553174
497,1778428940310,0.8463603,0.04686249,-0.5552153,0.35368055,0.6087856,-0.3340571
498,1778428940320,0.83074963,0.026586918,-0.556191,0.3011477,0.80547845,-0.32367268
499,1778428940330,0.8328635955555556,0.0097295653,-0.5280355888888889,0.211964,1.0522608,-0.322451
500,1778428940340,0.8359938775,0.002134270925,-0.47552319,0.1656159675,1.1928319875,-0.34383065625
501,1778428940350,0.8383720725,0.0029574896375,-0.42325639125,0.14049487375,1.3022499875,-0.374143965
502,1778428940360,0.8336767,0.015122834,-0.41194475,0.1500393562499999,1.42991705,-0.39414918875
503,1778428940370,0.83514017,0.033934906,-0.39267537,0.15698774,1.6014888,-0.39575267
504,1778428940380,0.8292252244444445,0.0673514924444444,-0.3367269655555555,0.1515579922222222,1.775173033333333,-0.3877437833333333
505,1778428940390,0.8055686977777778,0.07995385,-0.2959691488888889,0.1511507611111111,1.8545831666666668,-0.3671107188888889
506,1778428940400,0.7762715677777777,0.0801164608888889,-0.25707122,0.1451101544444444,1.958630833333333,-0.3274735177777778
507,1778428940410,0.7699432944444444,0.0694654377777777,-0.2350408222222222,0.1343863933333333,2.0590133333333336,-0.3128810466666667
508,1778428940420,0.7636116125,0.0657660362499999,-0.22608026875,0.1307213075,2.1611775,-0.304430995
509,1778428940430,0.7587333,0.06637583,-0.22379355,0.12705623,2.284416,-0.29251948
510,1778428940440,0.752147525,0.06707708475,-0.18964902375,0.1157555575,2.48927885,-0.276713805
511,1778428940450,0.7421198666666666,0.065210448,-0.1215822933333333,0.1100882533333333,2.772075722222222,-0.2566152488888888
512,1778428940460,0.71961518,0.0701971886666666,-0.0170030266666666,0.13682979,2.9229551333333337,-0.24385532
513,1778428940470,0.6961788600000001,0.0801164606666666,0.05589757,0.1535262788888888,2.972230022222222,-0.2344889866666667
514,1778428940480,0.6760151,0.08174257,0.10177423,0.1692047,2.9551263,-0.2302130599999999
515,1778428940490,0.64956367,0.0758885755555555,0.1244855761111111,0.1861048022222222,2.847820911111111,-0.2131772144444444
516,1778428940500,0.6253108975,0.063265886,0.08475341625,0.1402658024999999,2.8869405125,-0.17760384
517,1778428940510,0.6079318,0.053204324,0.0556434899999999,0.0614919563333333,3.0528619333333333,-0.15080292
518,1778428940520,0.582696591111111,0.0370177422222222,0.0969602622222222,-0.0237551707777777,3.2515908,-0.1324774977777778
519,1778428940530,0.57131386,0.02561125,0.14766106,-0.11545013,3.4511342,-0.11964971
520,1778428940540,0.5519631166666668,0.018998398,0.2727056111111111,-0.1949960166666666,3.5970588666666665,-0.1188352468888888
521,1778428940550,0.5547816666666666,0.0178601199999999,0.3949586866666666,-0.2901524444444444,3.6926904222222223,-0.1163918557777777
522,1778428940560,0.5686307,0.023172084,0.47466183,-0.3286358,3.616674,-0.11781716
523,1778428940570,0.551697575,0.0336223897499999,0.53296174125,-0.3852919075,3.45311965,-0.1075854735
524,1778428940580,0.5238821499999999,0.0420925671111111,0.5749454755555555,-0.4736780944444445,3.3018161111111106,-0.069831718
525,1778428940590,0.48196791875,0.04789913725,0.603918625,-0.52222666875,3.3001786749999997,-0.02634278675
526,1778428940600,0.4576961022222222,0.0587873068888888,0.6342545111111111,-0.5528252666666665,3.3316797777777776,0.0164334884444444
527,1778428940610,0.4412452449999999,0.073083535,0.7212768,-0.56022327,3.4871743,0.087427515
528,1778428940620,0.43978173,0.07808383,0.7699534,-0.55839074,3.576969,0.11552649
529,1778428940630,0.4553314375,0.0968272985,0.86941047,-0.52488958625,3.6321742125,0.15469707375
530,1778428940640,0.4770209775,0.12448897,1.012277075,-0.47172679375,3.59972285,0.1823379075
531,1778428940650,0.487071095,0.13369682375,1.095586075,-0.4255314699999999,3.4969477625,0.1863847675
532,1778428940660,0.4813581125,0.1141225125,1.1448229,-0.31573167125,3.2535251625,0.19203510875
533,1778428940670,0.466399155,0.091983265,1.164461925,-0.230442125,3.10379115,0.194402145
534,1778428940680,0.467832165,0.08088886375,1.21199905,-0.18378867375,3.0071245625,0.19600561375
535,1778428940690,0.4799467133333333,0.0753228266666666,1.277144311111111,-0.0837539466666666,2.6838422555555557,0.20389573
536,1778428940700,0.4656369,0.08640748,1.2932156,-0.04031592,2.4878283,0.20715357
537,1778428940710,0.4656369,0.08640748,1.2932156,-0.04031592,2.4878283,0.20715357
538,1778428940720,0.4656369,0.08640748,1.2932156,-0.04031592,2.4878283,0.20715357
539,1778428940730,0.4656369,0.08640748,1.2932156,-0.04031592,2.4878283,0.20715357
540,1778428940740,0.4656369,0.08640748,1.2932156,-0.04031592,2.4878283,0.20715357
541,1778428940750,0.4656369,0.08640748,1.2932156,-0.04031592,2.4878283,0.20715357
542,1778428940760,0.4656369,0.08640748,1.2932156,-0.04031592,2.4878283,0.20715357
543,1778428940770,0.4656369,0.08640748,1.2932156,-0.04031592,2.4878283,0.20715357
544,1778428940780,0.4603520333333333,0.07154381,1.3076474333333332,0.2121676133333333,1.82607705,0.05596888
545,1778428940790,0.4592950599999999,0.068571076,1.3105338,0.26266432,1.6937268,0.025731942
546,1778428940800,0.45658152125,0.0741582915,1.30346025,0.07498150075,1.4616811375,0.0275644834
547,1778428940810,0.45609367875,0.10915271375,1.3028504375,-0.10445488,1.2294828,0.0031305922
548,1778428940820,0.45929506,0.13080032,1.2998015,-0.10445488,1.2294828,0.0031305922
549,1778428940830,0.4631164366666667,0.1338899266666666,1.2638339333333333,-0.2035478822222222,0.951428528888889,-0.0346061946
550,1778428940840,0.4469353562499999,0.13165402375,1.2050703125,-0.2698417924999999,0.713851375,-0.06681142175
551,1778428940850,0.4275554,0.12372673,1.177782,-0.27854636,0.65521,-0.071392775
552,1778428940860,0.4129813875,0.11759832375,1.166824875,-0.29022881375,0.6593332375,-0.071392775
553,1778428940870,0.38682133,0.10323773,1.1511648,-0.3567348,0.7010236,-0.05428905
554,1778428940880,0.38682133,0.10323773,1.1511648,-0.3567348,0.7010236,-0.05428905
555,1778428940890,0.42318018,0.10165227,1.1545796,-0.44714018,0.64726902,-0.0255792289
556,1778428940900,0.4548436225,0.0833928239999999,1.183632425,-0.69689083,0.5416688175,0.065131594025
557,1778428940910,0.4541728500000001,0.081010826,1.187295,-0.71965444,0.5342623,0.07398888
558,1778428940920,0.40548861,0.045520949,1.223539425,-0.91756891,0.2213557795,0.123467505
559,1778428940930,0.38926053,0.03369099,1.2356209,-0.9835404,0.117053606,0.13996038
560,1778428940940,0.38926053,0.03369099,1.2356209,-0.9835404,0.117053606,0.13996038
561,1778428940950,0.38926053,0.03369099,1.2356209,-0.9835404,0.117053606,0.13996038
562,1778428940960,0.381264635,0.031857803875,1.2178645375,-0.981249725,0.08758022575,0.14263283625
563,1778428940970,0.35264254,0.020001167,1.1457986,-0.965215,-0.118733436,0.16134003
564,1778428940980,0.35264254,0.020001167,1.1457986,-0.965215,-0.118733436,0.16134003
565,1778428940990,0.35264254,0.020001167,1.1457986,-0.965215,-0.118733436,0.16134003
566,1778428941000,0.3272027875,0.00198182225,1.157975375,-0.74421238,-0.02535016125,0.16508147125
567,1778428941010,0.2848032,-0.028050419,1.17827,-0.32924667,0.16103461,0.17172444
568,1778428941020,0.2848032,-0.028050419,1.17827,-0.32924667,0.16103461,0.17172444
569,1778428941030,0.2848032,-0.028050419,1.17827,-0.32924667,0.16103461,0.17172444
570,1778428941040,0.2848032,-0.028050419,1.17827,-0.32924667,0.16103461,0.17172444
571,1778428941050,0.2848032,-0.028050419,1.17827,-0.32924667,0.16103461,0.17172444
572,1778428941060,0.30246429375,-0.039495445125,1.2286921375,-0.2672456725,0.12873606125,0.14561071925
573,1778428941070,0.4275325575,0.0242277857125,1.5102786625,0.2219666225,-1.25857443,-0.12789614875
574,1778428941080,0.42048183,0.03442274,1.5028316,0.22295925,-1.400291,-0.13553174
575,1778428941090,0.42048183,0.03442274,1.5028316,0.22295925,-1.400291,-0.13553174
576,1778428941100,0.42048183,0.03442274,1.5028316,0.22295925,-1.400291,-0.13553174
577,1778428941110,0.4536240177777778,0.0395178875555555,1.4250729666666666,0.2951071033333333,-1.932194711111111,-0.1553503377777777
578,1778428941120,0.46734434,0.04539899,1.3634942,0.31580803,-2.2121832,-0.15813309
579,1778428941130,0.46734434,0.04539899,1.3634942,0.31580803,-2.2121832,-0.15813309
580,1778428941140,0.4706372,0.0459478025,1.300883825,0.2681619325,-2.4018513,-0.14301462
581,1778428941150,0.4920104,0.04759424,1.2490363,0.19913621,-2.617175,-0.1300341
582,1778428941160,0.5032305833333334,0.0489764346666666,1.2158433000000002,0.1918739077777777,-2.7400911444444445,-0.1200569355555555
583,1778428941170,0.508901665,0.047868646625,1.1734182875,0.20524468375,-2.9694811375,-0.09735378
584,1778428941180,0.499598545,0.039937544,1.137471025,0.20539739,-3.0695073500000003,-0.0848314174999999
585,1778428941190,0.4792962700000001,0.018781584,1.0877159,0.18019994,-3.1675484,-0.066506
586,1778428941200,0.47929627,0.018781584,1.0877159,0.18019994,-3.1675484,-0.066506
587,1778428941210,0.4795672733333334,0.0101902966666666,1.0497835444444443,0.1585487966666666,-3.3425221888888887,-0.0606011397777777
588,1778428941220,0.477771775,0.01012254175,0.98615135,0.1508792787499999,-3.5388672625,-0.055739812875
589,1778428941230,0.457343775,0.0234846005,0.8832147,0.1721062175,-3.675315275,-0.0420721035
590,1778428941240,0.4434405,0.040520657,0.8363598,0.18447587,-3.701429,-0.021914145
591,1778428941250,0.433561875,0.05021634425,0.7770423,0.1931804449999999,-3.70097075,0.00832279425
592,1778428941260,0.4314411688888888,0.0639637586666666,0.7152382222222222,0.1824397077777778,-3.655343811111111,0.0692378386666666
593,1778428941270,0.457743915,0.0577777585,0.6588456325,0.15408622125,-3.6561498875,0.1414111375
594,1778428941280,0.49298608,0.03003224,0.60866356,0.1551552,-3.6684432,0.16011834
595,1778428941290,0.5351633744444444,-0.0064502407666666,0.5290755822222223,0.1957426111111111,-3.657515800000001,0.1491230966666666
596,1778428941300,0.56424027,-0.0214036875,0.465758915,0.24082654,-3.564599125,0.1196497125
597,1778428941310,0.582534,-0.02414775,0.43246427,0.28343314,-3.4839673,0.09536853
598,1778428941320,0.5779605612500001,-0.0084456150625,0.3782423487499999,0.34925192625,-3.395165425,0.06337540625
599,1778428941330,0.5720455812499999,-0.0018598646875,0.3110928475,0.39643986375,-3.3776798625,0.0496313412499999
600,1778428941340,0.5711396042857142,0.0020558691428571,0.23751821,0.4263714,-3.3391964,0.04161397
601,1778428941350,0.579119145,0.0168302504999999,0.16802809,0.44790375,-3.10676915,0.01534753725
602,1778428941360,0.58521706,0.023659917,0.15375897,0.4729993911111111,-2.9519194222222223,0.0004835874444444
603,1778428941370,0.6037852499999999,0.0364350509999999,0.12781234375,0.51356985,-2.74835445,-0.021303298
604,1778428941380,0.6108046300000001,0.0420112602222222,0.1225613588888889,0.5301475177777778,-2.6115417,-0.038610636
605,1778428941390,0.61427367,0.044179406,0.12299499,0.54915166,-2.5322673,-0.04512634
606,1778428941400,0.6141381444444445,0.0327085497777777,0.0956424308888889,0.5401247355555556,-2.5224937333333335,-0.0495380137777777
607,1778428941410,0.616225,0.022440333,0.055399574,0.5192202,-2.509666,-0.050013117
608,1778428941420,0.6378421125,0.012256813125,-0.0017188498749999,0.47615545,-2.4464432,-0.0448209177499999
609,1778428941430,0.64857443,0.0102140105,-0.0383292176249999,0.4550812,-2.4107087,-0.04756973
610,1778428941440,0.64897078,0.01768395875,-0.10427437625,0.3799469875,-2.24425285,-0.03871244675
611,1778428941450,0.6554481133333332,0.0291683678888888,-0.1280698016666666,0.3428210544444445,-2.132976977777778,-0.0254434852222222
612,1778428941460,0.6706184125,0.04613073975,-0.15290526125,0.271979745,-1.9812831,-0.0012216946874999
613,1778428941470,0.673514915,0.05195425125,-0.166564605,0.22051587,-1.9052326,0.017332791875
614,1778428941480,0.66894144,0.05149691,-0.17205273,0.18753012,-1.8511726,0.03978143
615,1778428941490,0.6769907422222222,0.0502502226666666,-0.2024711666666666,0.1344542711111111,-1.7921240111111112,0.0715454849999999
616,1778428941500,0.691137925,0.046161231,-0.2332186325,0.047493373875,-1.707699825,0.1216349625
617,1778428941510,0.7101138375,0.03514305825,-0.28135788125,-0.0200052475,-1.67097265,0.1708081675
618,1778428941520,0.7268411887499999,0.0236904075,-0.3156701075,-0.07284353475,-1.587878275,0.1975327375
619,1778428941530,0.7413338688888889,0.0158816852222222,-0.3392813233333334,-0.13377555,-1.4815336,0.21998137
620,1778428941540,0.755196495,0.0026221045,-0.3668582999999999,-0.1942494275,-1.4063995,0.23861221
621,1778428941550,0.7663633,-0.01762297925,-0.4040251025,-0.24494975,-1.297210475,0.2456369474999999
622,1778428941560,0.7746184,-0.027318668,-0.42929336,-0.27075804375,-1.1945881,0.23845949875
623,1778428941570,0.7964624666666666,-0.0324646311111111,-0.4564222755555555,-0.2619177377777777,-1.0319501,0.2012487222222222
624,1778428941580,0.8097424,-0.02561125,-0.4788084,-0.22723518,-0.8780166,0.1570641
625,1778428941590,0.8204475888888889,-0.0151770372222222,-0.4862783722222222,-0.2014438577777778,-0.7779054888888889,0.1336482888888889
626,1778428941600,0.8330837977777779,0.0043972745555555,-0.4932842188888889,-0.155698188,-0.6258723777777777,0.1007982813333333
627,1778428941610,0.8482506925,0.04698444575,-0.4964619,-0.051616593575,-0.3432198125,0.0458899005
628,1778428941620,0.85099477,0.056863073,-0.49518132,-0.0030542363,-0.25067645,0.029397024
629,1778428941630,0.85099477,0.056863073,-0.49518132,-0.0030542363,-0.25067645,0.029397024
630,1778428941640,0.85709269,0.0551556576666666,-0.5145320400000001,0.0838896879,-0.0444136879999999,0.001501666
631,1778428941650,0.8602636,0.05149691,-0.5303053,0.14110571,0.10300412,-0.020081604
632,1778428941660,0.8602636,0.05149691,-0.5303053,0.14110571,0.10300412,-0.020081604
633,1778428941670,0.8685838911111111,0.0484615,-0.5660797555555556,0.15155799,0.4119570733333333,-0.0559179773333333
634,1778428941680,0.8714838,0.04759424,-0.5803387,0.14171657,0.6087856,-0.07261447
635,1778428941690,0.8714838,0.04759424,-0.5803387,0.14171657,0.6087856,-0.07261447
636,1778428941700,0.8714838,0.04759424,-0.5803387,0.14171657,0.6087856,-0.07261447
637,1778428941710,0.8714838,0.04759424,-0.5803387,0.14171657,0.6087856,-0.07261447
638,1778428941720,0.8640137999999999,0.0330926325,-0.48545895,-0.01061347,1.2074636625,-0.09437590125
639,1778428941730,0.8595318,0.024391668,-0.4285311,-0.102011494,1.5666705,-0.10743276
640,1778428941740,0.84562474375,0.0286983215,-0.412367805,-0.11438114925,1.593547775,-0.106821913125
641,1778428941750,0.77315485,0.052472573,-0.34093451,-0.16187452,1.7261016,-0.10071344
642,1778428941760,0.77315485,0.052472573,-0.34093451,-0.16187452,1.7261016,-0.10071344
643,1778428941770,0.7038977625,0.08010375975,-0.299018965,-0.184323165,2.00709135,-0.0295497355
644,1778428941780,0.6433979777777777,0.1026143944444444,-0.2432425055555555,-0.2245881733333333,2.3361343666666667,0.07032379
645,1778428941790,0.6242742,0.110067405,-0.21232945,-0.24617144,2.4859955,0.13140851
646,1778428941800,0.60866356,0.10884781,-0.15205155,-0.26083177,2.6167169,0.23280916
647,1778428941810,0.607413495,0.0881339525,-0.119218083125,-0.26457322625,2.7316324875,0.3054999775
648,1778428941820,0.6108588,0.07149807,-0.102262065,-0.26510772,2.748049,0.31588438
649,1778428941830,0.622414325,0.039205793,-0.060674268875,-0.3197785537499999,3.3356841875,0.38292488
650,1778428941840,0.6326757688888889,0.0081305562222222,0.0077579051111111,-0.3931820233333333,3.7146298666666673,0.3554537244444444
651,1778428941850,0.64159226,-0.011220166,0.074181154,-0.44164258,3.9356124,0.31649524
652,1778428941860,0.6458202000000001,-0.0375936566666666,0.2152462866666666,-0.5048991944444444,4.1318982,0.2404786866666666
653,1778428941870,0.6523246,-0.049301658,0.29187676,-0.519831,4.1390247,0.21875967
654,1778428941880,0.6523246,-0.049301658,0.29187676,-0.519831,4.1390247,0.21875967
655,1778428941890,0.6523246,-0.049301658,0.29187676,-0.519831,4.1390247,0.21875967
656,1778428941900,0.6523246,-0.049301658,0.29187676,-0.519831,4.1390247,0.21875967
657,1778428941910,0.6523246,-0.049301658,0.29187676,-0.519831,4.1390247,0.21875967
658,1778428941920,0.6523246,-0.049301658,0.29187676,-0.519831,4.1390247,0.21875967
659,1778428941930,0.599257565,-0.036663725,0.480165205,-0.0792574279999999,3.42626145,-0.1126249675
660,1778428941940,0.5774118,-0.0160985,0.502011,-0.04886778,3.7688513,-0.16424155
661,1778428941950,0.5850646374999999,-0.00786631225,0.61039766,-0.02718270325,3.636373625,-0.147443251
662,1778428941960,0.5832962374999999,-0.007500437625,0.7207852,0.058946759375,3.389438675,-0.11606097625
663,1778428941970,0.5861928,-0.005366167,0.7458057,0.11545013,3.2489438,-0.10193513
664,1778428941980,0.57210273375,0.00493931245,0.7559587750000001,0.204328405,3.1001262,-0.0914743737499999
665,1778428941990,0.5237195666666667,0.0352967746666666,0.7703701266666667,0.2649040855555555,3.1087883111111108,-0.0957587955555555
666,1778428942000,0.5015498325000001,0.05680209375,0.80797775,0.25808295375,3.1820560375,-0.09506310875
667,1778428942010,0.4758813974999999,0.07527878,0.90418385,0.2205158549999999,3.205268325,-0.07246175675
668,1778428942020,0.4569168799999999,0.0753397625,0.996872225,0.1795890925,3.22557885,-0.0507766775
669,1778428942030,0.4682386877777777,0.0749671066666666,1.0832237555555555,0.1446350577777778,3.1193762777777776,-0.0140410027777777
670,1778428942040,0.48576387,0.076620318875,1.1464427,0.14415996,2.92886,0.026342789
671,1778428942050,0.4990840199999999,0.0711931775,1.1710668,0.2089097575,2.52295185,0.07261446625
672,1778428942060,0.4993753844444444,0.0572153982222222,1.1530551,0.2735916866666666,2.212471877777778,0.0895315433333333
673,1778428942070,0.4704504725,0.04567339325,1.10499965,0.3113793824999999,2.0362594125,0.08254073625
674,1778428942080,0.4138351275,0.031853992,1.054329875,0.28045526125,2.0806221249999997,0.052914642875
675,1778428942090,0.3881764577777777,0.0254486388888888,1.0502069444444446,0.1802678116666666,2.2623577444444445,0.0245102457777777
676,1778428942100,0.38340652,0.02414775,1.0801545,0.092848785,2.3693237,0.019623468
677,1778428942110,0.4034077,0.010000584,1.1736355,-0.01328592725,2.3177836,0.0514638827499999
678,1778428942120,0.4028114288888889,-0.0008943610444444,1.2100942444444445,-0.0289134366666666,2.188173622222222,0.0515232682222222
679,1778428942130,0.3662027725,0.007866312725,1.2459263,-0.0190889771,2.154458275,0.0376434625
680,1778428942140,0.3445933,0.020489,1.2805016,0.0061084726,2.1402562,0.0458899
681,1778428942150,0.3585575075,0.02741394675,1.302118725,0.0367271925,2.0111383875,0.053296422875
682,1778428942160,0.3538621,0.045155074,1.2995576,0.045813546,1.8171179,0.049554985
683,1778428942170,0.32337251,0.0616601016666666,1.2932157,0.038890609,1.7395402666666666,0.0495549839999999
684,1778428942180,0.314221845,0.066619735625,1.3006246875,0.0303132963124999,1.7581710875,0.042606596
685,1778428942190,0.30138955,0.08198649,1.3354132,-0.0012216945,1.8372759,0.019623468
686,1778428942200,0.299041855,0.0892696925,1.3601974875,0.0057266931875,1.8105513,0.0228304165
687,1778428942210,0.31065837,0.07198591,1.3752022,0.029931515,1.7157172,0.031229567
688,1778428942220,0.31579587,0.0647903675,1.37007995,0.030847786,1.6647115,0.0248156704999999
689,1778428942230,0.32093337,0.057594825,1.3649577,0.031764057,1.6137058,0.018401774
690,1778428942240,0.3447355722222222,0.0733206727777777,1.3339870555555555,-0.0160177734444444,1.706961822222222,0.0258676848888888
691,1778428942250,0.33030892,0.03446847245,1.83200485,-1.340103395,1.690672475,0.29114507325
692,1778428942260,0.3081887124999999,-0.041462025425,1.796251875,-1.952344275,-0.49638018875,0.35161894375
693,1778428942270,0.34399112,-0.0126760455,1.624241075,-1.422281535,-0.888019225,0.244033475
694,1778428942280,0.36662963,0.02636586725,1.575252,-0.797671065,-0.76302459,0.14698513
695,1778428942290,0.3406296525,0.00417326125,1.41976645,-0.28763270475,-0.81357218375,0.068262179875
696,1778428942300,0.32142118,-0.03320316,1.2602564,-0.004886778,-0.97819555,0.023899399
697,1778428942310,0.3064440311111111,-0.0362114638888888,1.1203634477777775,0.111581432,-0.9450740555555556,-0.0103759197777777
698,1778428942320,0.26980233,-0.06961534375,0.8922471825,0.293970245,-0.615657695,-0.062077352
699,1778428942330,0.2955965137499999,-0.1158299274999999,0.92976080625,0.34772478,-0.29710084375,-0.08185353125
700,1778428942340,0.3152148688888888,-0.1269789533333333,0.9994180555555556,0.4062134133333333,-0.0814717566666666,-0.1271156166666666
701,1778428942350,0.32544582,-0.1292148625,1.095650775,0.460273405,-0.0411558325,-0.191118835
702,1778428942360,0.3170307,-0.12811723,1.1253096,0.47585002,-0.06681142,-0.23326729
703,1778428942370,0.3065930966666667,-0.1292555083333333,1.2099893333333334,0.4510088933333334,-0.0564270146666666,-0.2931303366666666
704,1778428942380,0.3000886477777778,-0.1197698607777777,1.3008212,0.3916888288888889,-0.1038016144444444,-0.3381972877777778
705,1778428942390,0.3015521466666666,-0.1013575406666666,1.447940233333333,0.3021657866666667,-0.301784,-0.3888297266666666
706,1778428942400,0.2938010111111111,-0.0768913473333333,1.5510289,0.27813912,-0.4952189577777777,-0.4083768377777778
707,1778428942410,0.28431535,-0.047106408,1.6248509,0.28526568,-0.7075902,-0.418354
708,1778428942420,0.29480377,-0.006341833,1.6797626,0.31825143,-1.0050728,-0.41713232
709,1778428942430,0.32150884,0.043931680375,1.6795491125000002,0.35284064875,-1.3357702875000002,-0.3953708824999999
710,1778428942440,0.3232607222222222,0.0713117444444444,1.6667267222222224,0.3635219866666667,-1.578055988888889,-0.3831963711111111
711,1778428942450,0.3103610925,0.0859120174999999,1.6334718499999998,0.362690575,-1.879424275,-0.35421506
712,1778428942460,0.3246463077777777,0.0812276333333333,1.5785812111111113,0.3750602333333333,-2.0818694,-0.3281522433333333
713,1778428942470,0.33873928,0.08058396875,1.50712295,0.3768927575,-2.1850008125,-0.31367007375
714,1778428942480,0.3470934424999999,0.083762504,1.4554431499999998,0.3581092025,-2.2722755125,-0.29137415125
715,1778428942490,0.35947601625,0.0920480565,1.4228231125,0.30786703625,-2.3798609875,-0.26235889875
716,1778428942500,0.3927295711111111,0.1027228011111111,1.3525382555555554,0.2201086266666666,-2.566067566666667,-0.2249190533333333
717,1778428942510,0.39017520125,0.10403045375,1.3052551875,0.1365243525,-2.671693175,-0.19631104
718,1778428942520,0.40373291,0.1116122033333333,1.2817312,0.0463565188888888,-2.7515616000000005,-0.1647845288888889
719,1778428942530,0.42121361375,0.11997650875,1.2906240375,0.02626643325,-2.835323975,-0.13934953
720,1778428942540,0.41758535375,0.12756842125,1.3066311000000002,0.0772721795,-2.9590967,-0.1248419074999999
721,1778428942550,0.4013750466666667,0.13999801,1.2745866,0.1697476722222222,-3.1326622222222222,-0.1160524944444444
722,1778428942560,0.39188263,0.1421043324999999,1.213531125,0.2467059375,-3.3156789375,-0.11002886125
723,1778428942570,0.3784468766666666,0.1177914333333333,1.1072394666666667,0.2860801333333333,-3.4740581555555554,-0.0966411255555555
724,1778428942580,0.37535727,0.08787098,1.0198766,0.3103104,-3.6702757,-0.07383616
725,1778428942590,0.38099784,0.045456159375,0.9074881075,0.273430495,-3.830546775,-0.045508119375
726,1778428942600,0.3913473633333333,0.0115724906666666,0.8087023355555556,0.20429448,-3.9401345888888897,-0.0258507161111111
727,1778428942610,0.39096794,-0.006829667,0.7289754,0.13255386,-4.0037985,-0.022524992
728,1778428942620,0.391333815,-0.008750510625,0.7110360950000001,0.112854035375,-3.9981481625,-0.021303297625
729,1778428942630,0.397096345,-0.0152447913625,0.558557725,-0.03283304025,-3.96363525,-0.0098499123999999
730,1778428942640,0.40243202,-0.0036587503,0.513719,-0.05619795,-3.9787536,-0.0011453386
731,1778428942650,0.40115823,0.0041770727666666,0.4847843855555556,-0.0634602455555555,-3.9443425333333337,0.0014337943555555
732,1778428942660,0.399992835,0.04033771925,0.3565757025,-0.1191152205,-3.648132475,0.025426518
733,1778428942670,0.41909967,0.040276741,0.3218175566666666,-0.0934596306666666,-3.4778587666666665,0.0542381486666666
734,1778428942680,0.42657977,0.039301075,0.30992663,-0.076355904,-3.4302127,0.06482617
735,1778428942690,0.4662873899999999,0.012358445,0.2450956066666667,0.0509718077777777,-3.1871634444444443,0.0940789622222222
736,1778428942700,0.48368677,0.005366167,0.22672056,0.14110571,-3.0508766,0.10330954
737,1778428942710,0.48368677,0.005366167,0.22672056,0.14110571,-3.0508766,0.10330954
738,1778428942720,0.5150435677777777,-0.0013550925111111,0.1624620511111111,0.2740668088888889,-2.7298425333333336,0.1074497291111111
739,1778428942730,0.53250057,0.00073175,0.1483928,0.32008398,-2.6245053,0.13201937
740,1778428942740,0.53250057,0.00073175,0.1483928,0.32008398,-2.6245053,0.13201937
741,1778428942750,0.57470153,0.0127107683333333,0.0849981853333333,0.3345406744444444,-2.5379686333333336,0.1951402488888888
742,1778428942760,0.602298885,0.018293751,0.0786326375,0.3657447875,-2.379708275,0.2309766225
743,1778428942770,0.63159174,0.027806502,0.07296158,0.38727716,-2.297702,0.24197187
744,1778428942780,0.6788844733333333,0.0454430311111111,0.09807822,0.4235207688888889,-2.2249432444444444,0.2550032744444445
745,1778428942790,0.730195045,0.0559483852499999,0.108169425,0.4831802,-2.2268436,0.26274067
746,1778428942800,0.73897606,0.05174082,0.08418174,0.4831802,-2.2268436,0.26274067
747,1778428942810,0.7495254575,0.0266059726249999,0.0041694495,0.5888567775,-2.354510775,0.2444916225
748,1778428942820,0.7589772,0.006829667,-0.04783816,0.62734014,-2.3465698,0.23036577
749,1778428942830,0.7589772,0.006829667,-0.04783816,0.62734014,-2.3465698,0.23036577
750,1778428942840,0.81121348625,-0.0026525938125,-0.17879472125,0.6376481825,-1.9083631625,0.17035003375
751,1778428942850,0.83318883,0.0026830835,-0.20476803,0.61573404,-1.7106777,0.14606886
752,1778428942860,0.83318883,0.0026830835,-0.20476803,0.61573404,-1.7106777,0.14606886
753,1778428942870,0.8790103214285715,0.032048906,-0.1916008985714285,0.4865834857142857,-1.6167163,0.0979864435714285
754,1778428942880,0.8686177374999999,0.057777760625,-0.2055417175,0.41843037625,-1.6837240875,0.077883025625
755,1778428942890,0.8609953,0.07149807,-0.22354963,0.37567106,-1.785812,0.066658705
756,1778428942900,0.8282766177777777,0.0791136877777777,-0.3192090211111111,0.3120072055555555,-1.9210807222222224,0.0699165577777777
757,1778428942910,0.8069373375,0.0648513419999999,-0.4225094225,0.2015795974999999,-2.024653125,0.10193513875
758,1778428942920,0.79193646,0.047106408,-0.48640034,0.13744064,-2.064969,0.119802415
759,1778428942930,0.7882506066666667,0.0117384901111111,-0.5974705044444444,0.0627136553333333,-1.9839979666666667,0.1403676161111111
760,1778428942940,0.81012998,-0.028681988,-0.7185654228571429,-0.0395305431428571,-1.689025357142857,0.1542716657142857
761,1778428942950,0.83148146,-0.039788906,-0.76605076,-0.09345963,-1.4198381,0.14851224
762,1778428942960,0.8548703288888889,-0.0335724201111111,-0.7607659111111111,-0.1525081988888889,-1.0157287666666666,0.1322229755555555
763,1778428942970,0.870203175,-0.023995302,-0.7358927762499999,-0.19241689,-0.7100336,0.11919157
764,1778428942980,0.8748986,-0.012683666,-0.7040655,-0.21440738,-0.4907394,0.113693945
765,1778428942990,0.87837439,-0.00103664575,-0.638909225,-0.22891501,-0.18943899825,0.11705360375
766,1778428943000,0.8685567666666666,0.001951333,-0.5661001000000001,-0.2142037755555555,0.1173250921111111,0.1180377455555555
767,1778428943010,0.8563609,-0.005366167,-0.5381107,-0.18142164,0.33634776,0.1246892
768,1778428943020,0.8550600466666667,-0.0168573527777777,-0.5090574555555556,-0.1580736933333333,0.4791502844444444,0.1257751555555555
769,1778428943030,0.84861658,-0.038413065625,-0.45892921375,-0.11468657125,0.64780350625,0.106669206125
770,1778428943040,0.8427016,-0.053204324,-0.41316435,-0.05131117,0.84518355,0.063604474
771,1778428943050,0.8360040922222223,-0.0544239093333333,-0.3867637588888888,0.0003393597222222,0.9941709055555557,0.0194198521111111
772,1778428943060,0.823950475,-0.04027673975,-0.34084306125,0.0612374395,1.160457075,-0.03474193625
773,1778428943070,0.81632805,-0.031739656,-0.31751853,0.10750912,1.2136008,-0.07322531
774,1778428943080,0.8119647022222222,-0.0247236643333333,-0.3114341511111111,0.1550194644444444,1.230433033333333,-0.1042427833333333
775,1778428943090,0.81565737,-0.0167082915,-0.3219699875,0.20096875,1.32660755,-0.129117845
776,1778428943100,0.8216943,-0.008293167,-0.32654345,0.21562909,1.4292299,-0.13919681
777,1778428943110,0.8216943,-0.008293167,-0.32654345,0.21562909,1.4292299,-0.13919681
778,1778428943120,0.8216943,-0.008293167,-0.32654345,0.21562909,1.4292299,-0.13919681
779,1778428943130,0.8216943,-0.008293167,-0.32654345,0.21562909,1.4292299,-0.13919681
780,1778428943140,0.7942265555555555,-0.0266004683333333,-0.3076128,0.20293704,1.474704088888889,-0.1903043655555555
781,1778428943150,0.7464765,-0.03825680725,-0.306580405,0.1714953699999999,1.580109175,-0.29106871375
782,1778428943160,0.7439627555555555,-0.0221422121777777,-0.3273836044444444,0.1512865066666666,1.739133066666667,-0.3104376666666666
783,1778428943170,0.752635385,-0.001280562475,-0.324157625,0.1196497075,1.950129875,-0.323061845
784,1778428943180,0.7566599724999999,0.015523009375,-0.302696765,0.10628742,2.036412,-0.32917032
785,1778428943190,0.7526354000000001,0.0583265744444444,-0.2221369388888888,0.0028506205555555,2.510361688888889,-0.36385287
786,1778428943200,0.7382443125,0.0591193,-0.15393427875,-0.0696365877499999,2.6544366750000004,-0.3752892775
787,1778428943210,0.72732225,0.0402970666666666,-0.0870240438888889,-0.1407663555555555,2.733592422222222,-0.3836035744444444
788,1778428943220,0.709568855,0.0208548755,-0.042090872,-0.208298915,2.8928199,-0.381092335
789,1778428943230,0.69647359,0.013049541,-0.0071650526249999,-0.245255175,2.980629075,-0.3789543675
790,1778428943240,0.6856192725,0.011006739,0.022840508875,-0.27732465,3.0498075,-0.38170317
791,1778428943250,0.6683113422222222,0.0109220464444444,0.0617481822222222,-0.3196767255555555,3.2614323,-0.3997571188888889
792,1778428943260,0.6515929225,0.0208015195,0.1366619375,-0.3837647899999999,3.5253523,-0.425226045
793,1778428943270,0.6435131737500001,0.03728876325,0.207428265,-0.42820394,3.6453838,-0.4440096
794,1778428943280,0.6132065,0.0484886026666666,0.3110852166666666,-0.5579919888888889,3.8141896777777777,-0.4713619877777778
795,1778428943290,0.5939981,0.04783816,0.37828425,-0.6231406,3.8617,-0.48371467
796,1778428943300,0.596079,0.0281952425,0.4813771875,-0.656584445,3.693545325,-0.485394495
797,1778428943310,0.60006170375,0.0100615625,0.53171165125,-0.6170225687500001,3.5196256375,-0.48829602
798,1778428943320,0.5799321866666667,-0.0013008889,0.5843328733333333,-0.4723206611111111,3.3675839888888888,-0.5075377133333334
799,1778428943330,0.5610693,-0.0009756667,0.6152493,-0.3402419,3.3124719,-0.5374692
800,1778428943340,0.5142373075,0.07101404875,0.7120956199999999,-0.13621894,3.4621296,-0.5997757
801,1778428943350,0.4954523422222222,0.1545821888888889,0.890373788888889,0.0863330786666666,3.575747133333333,-0.6295035866666666
802,1778428943360,0.49588258375,0.1894355925,0.97323135,0.2279987387499999,3.4870216625,-0.6232933025
803,1778428943370,0.5046940900000001,0.21001226,1.040975375,0.38605548,3.1432673,-0.5832828
804,1778428943380,0.5190241775000001,0.2035408325,1.037865475,0.5241069675000001,2.624657875,-0.5163949675
805,1778428943390,0.5330799,0.17033514,0.9740812333333336,0.5608935122222223,2.2664977777777775,-0.4427200433333333
806,1778428943400,0.5380734333333332,0.1169783688888888,0.9068279933333332,0.5127044611111111,1.9891052333333337,-0.3464776644444444
807,1778428943410,0.5267550055555554,0.0899815372222222,0.891705158888889,0.4460542444444445,1.9989466888888887,-0.3134919133333333
808,1778428943420,0.5103651375,0.063509807,0.9123093475,0.3142809225,2.0550429,-0.27816457
809,1778428943430,0.5145320222222222,0.0636385394444444,0.9576574911111112,0.0881656253333333,2.0474072333333333,-0.2251226633333333
810,1778428943440,0.5198168875,0.0826039075,0.9866200725,-0.087045733,2.0248059,-0.18333053
811,1778428943450,0.5279881224999999,0.1196411275,1.0075588,-0.2812951575,1.9536422,-0.141792915
812,1778428943460,0.54152554,0.14177656,1.0049977,-0.37200597,1.8556013,-0.11476293
813,1778428943470,0.55563838,0.16848163,0.98341481,-0.4915793175,1.62103595,-0.0602448119999999
814,1778428943480,0.54139976625,0.1826021175,0.9548689675,-0.5921305,1.3441693375,0.0196998247499999
815,1778428943490,0.4884804077777778,0.1791805155555555,0.9402242555555556,-0.5940913666666666,1.2573781333333334,0.0815226555555555
816,1778428943500,0.44142819,0.16857691,0.955269175,-0.57097991375,1.367228875,0.1082726762499999
817,1778428943510,0.42953727,0.16180822,0.9730141,-0.52227443,1.5275763,0.1259109
818,1778428943520,0.4397817633333333,0.16497914,0.9927002733333332,-0.5135868166666666,1.701735633333333,0.1066352711111111
819,1778428943530,0.44514793,0.17229664,1.0228037,-0.53449136,1.9008039,0.08131904
820,1778428943540,0.4560327175,0.17156489125,1.043460325,-0.5733946925,1.8532341875,0.0706292135
821,1778428943550,0.4701900533333333,0.15904383,1.0444511333333333,-0.6981390444444444,1.5835027555555554,0.0539666586666666
822,1778428943560,0.4504454875,0.1419213975,1.007856025,-0.7789066,1.3944116,0.058717694
823,1778428943570,0.4037227266666667,0.0990809856666666,1.0066847333333333,-0.8777281322222222,1.2837803444444444,0.0951649093333333
824,1778428943580,0.36922884,0.044911157,1.0471952,-0.8983272575,1.2962178375,0.11491563625
825,1778428943590,0.3456502533333333,0.0331218513333333,1.1868070666666666,-0.8687011666666667,1.3526703333333332,0.0884455933333333
826,1778428943600,0.3362429425,0.027863668875,1.335115925,-0.8028060375,1.39296085,0.0469588828749999
827,1778428943610,0.38194302,0.009268833,1.4440172,-0.6665107,1.4383926,0.007406523
828,1778428943620,0.4188557333333333,0.0292801646666666,1.4999046,-0.4991979688888889,1.400452177777778,-0.0542211776666666
829,1778428943630,0.422921,0.06393666,1.5062464,-0.43125817,1.256971,-0.06894939
830,1778428943640,0.4441379625,0.11225883875,1.4792554875,-0.40957309625,0.9493425325,-0.0219905015
831,1778428943650,0.4619782,0.1364104,1.4342605,-0.43614495,0.71079713,0.031840414
832,1778428943660,0.4619782,0.1364104,1.4342605,-0.43614495,0.71079713,0.031840414
833,1778428943670,0.4619782,0.1364104,1.4342605,-0.43614495,0.71079713,0.031840414
834,1778428943680,0.49596264,0.13684106375,1.4326445625,-0.4937363912499999,0.6455891925,0.091321665
835,1778428943690,0.6311611125,0.0708311165,1.642127025,-0.86198183,0.1424037685,0.40606071875
836,1778428943700,0.6362262,0.060521826,1.6682985,-0.8900808,0.088343784,0.4258369
837,1778428943710,0.6362262,0.060521826,1.6682985,-0.8900808,0.088343784,0.4258369
838,1778428943720,0.5991270900000001,-0.0229349431111111,1.2518548222222223,-0.2404108111111111,-0.7853714055555555,0.1360916777777777
839,1778428943730,0.5798509,-0.03295924,1.1343344,-0.02015796,-0.7448519,0.04344651
840,1778428943740,0.5798509,-0.03295924,1.1343344,-0.02015796,-0.7448519,0.04344651
841,1778428943750,0.5376058844444445,-0.0337993977777777,1.0968627555555557,0.0787992966666666,-0.60327105,-0.0267330517777777
842,1778428943760,0.49737656,-0.03320316,1.1338466,0.14660335,-0.420492,-0.078112096
843,1778428943770,0.4975159457142857,-0.030306649,1.1561954714285714,0.15358446,-0.4214519,-0.0770649285714285
844,1778428943780,0.5015502688888889,-0.0146621016666666,1.3021593222222223,0.2033442622222222,-0.4550387888888889,-0.0709176686666666
845,1778428943790,0.5127433,-0.020732917,1.3437065,0.23090026,-0.552435,-0.071392775
846,1778428943800,0.5127433,-0.020732917,1.3437065,0.23090026,-0.552435,-0.071392775
847,1778428943810,0.5353780375,-0.0165863335825,1.3995100375,0.2905342275,-0.75111305625,-0.109647084375
848,1778428943820,0.5381107,0.00024391667,1.4559691,0.36223242,-0.9678111,-0.15202461
849,1778428943830,0.5381107,0.00024391667,1.4559691,0.36223242,-0.9678111,-0.15202461
850,1778428943840,0.52542697375,0.03996803458375,1.4749298375,0.55167144,-1.30125735,-0.20012883
851,1778428943850,0.51469463,0.05052124,1.466488,0.6328378,-1.4357201,-0.20394664
852,1778428943860,0.51469463,0.05052124,1.466488,0.6328378,-1.4357201,-0.20394664
853,1778428943870,0.51469463,0.05052124,1.466488,0.6328378,-1.4357201,-0.20394664
854,1778428943880,0.5174996775,0.05039928175,1.4153874625,0.6336013512500001,-1.5011762125,-0.1853921525
855,1778428943890,0.53518367,0.0573509069999999,1.2053448,0.57053137,-1.7424418,-0.10132429
856,1778428943900,0.53570199125,0.059851053625,1.2017775,0.55335128875,-1.755040525,-0.09704835875
857,1778428943910,0.5435492625,0.0809803375,1.188209525,0.352764305,-1.9716622,-0.043446511
858,1778428943920,0.5476539,0.07857166,1.2114426,0.3048128,-2.133384,-0.022524992
859,1778428943930,0.5476539,0.07857166,1.2114426,0.3048128,-2.133384,-0.022524992
860,1778428943940,0.510365165,0.06777834125,1.1788798,0.4382065524999999,-2.4707243625,-0.0315349905
861,1778428943950,0.46905177,0.0752787825,1.069780325,0.5662554,-2.5286021,-0.031076854
862,1778428943960,0.45807552,0.08369391,1.001339,0.5662554,-2.5286021,-0.031076854
863,1778428943970,0.4565815275,0.098447053125,0.9086582125,0.63543386375,-2.7378175375,0.017103724375
864,1778428943980,0.4704610688888889,0.0879658361111111,0.7717658866666667,0.4930216211111111,-2.8137322,0.0615683146666666
865,1778428943990,0.4922314774999999,0.069912615,0.70793002,0.3889569775,-2.8287573625,0.083533365625
866,1778428944000,0.5121199755555556,0.0627441751111111,0.6690735777777779,0.263886,-2.813257,0.107585475
867,1778428944010,0.5246953,0.066863656,0.6525686,0.15332267,-2.7790496,0.1350736
868,1778428944020,0.5270802555555556,0.0675683035555555,0.6460641555555555,0.1326896051111111,-2.780339188888889,0.1410463288888889
869,1778428944030,0.5358544525,0.0757056355,0.57526986,0.052838287,-2.771719475,0.17187715
870,1778428944040,0.5385985,0.07515682,0.52274394,0.0555871,-2.733236,0.1778329
871,1778428944050,0.5398828674999999,0.07857165875,0.49770814875,0.0482569345,-2.6452740500000003,0.1874537499999999
872,1778428944060,0.55984974,0.08540133,0.47246656,0.0659715,-2.581135,0.21326205
873,1778428944070,0.5498999677777778,0.0705495066666666,0.4352523622222222,0.07140126,-2.5518143777777778,0.2235785833333333
874,1778428944080,0.5419599875,0.0452770315,0.417006025,0.0742942985,-2.46560855,0.258770175
875,1778428944090,0.5637524349999999,0.03378245825,0.3927058425,0.06612421325,-2.365200625,0.2957264375
876,1778428944100,0.5739969,0.032715324,0.37755254,0.046424393,-2.298313,0.3030566
877,1778428944110,0.5928597999999999,0.036455378,0.3583339266666667,0.0283025916666666,-2.2738789,0.3118120666666667
878,1778428944120,0.5959494,0.04247199,0.33947104,0.016492875,-2.2592187,0.30733252
879,1778428944130,0.58979053,0.0538446062499999,0.30881374,-0.00167983013,-2.1882076,0.29488651
880,1778428944140,0.59327397,0.0622292425,0.2918767725,-0.00610847275,-2.141630425,0.2888544025
881,1778428944150,0.6030535111111112,0.0680290366666666,0.2795149488888889,0.0198864718888888,-2.094968566666666,0.2817448244444445
882,1778428944160,0.6186641333333333,0.0645057986666666,0.2455834366666666,0.0415376143333333,-2.090421,0.2737359233333333
883,1778428944170,0.6238947933333333,0.0569443815555555,0.23135496,0.0597951586666666,-2.0986336555555556,0.2678310766666666
884,1778428944180,0.6349252599999999,0.0444233256666666,0.1845127933333333,0.1301104659999999,-2.1382709,0.2399357166666666
885,1778428944190,0.6357383,0.041496325,0.14936846,0.15454435,-2.1382709,0.21998137
886,1778428944200,0.6448547,0.0475129323333333,0.1006257906666666,0.16370706,-2.1003983,0.20165595
887,1778428944210,0.658697,0.055155657,0.065156244,0.16370706,-2.1003983,0.20165595
888,1778428944220,0.68418627,0.068327156125,0.01112869915,0.13102673125,-2.0243478,0.1511083437499999
889,1778428944230,0.718681385,0.07823627,-0.04286835375,0.079715565,-1.89683345,0.11170869375
890,1778428944240,0.7391657422222222,0.0732325888888889,-0.0661894951111111,0.0659715,-1.8633896000000003,0.107585475
891,1778428944250,0.7604711875,0.0594851773749999,-0.14026352,0.0536018474999999,-1.83971925,0.0888019175
892,1778428944260,0.7597902533333333,0.0488951293333333,-0.1893809666666666,0.036039989,-1.7389804,0.07032379
893,1778428944270,0.762033835,0.034720015,-0.2186103025,0.026877279875,-1.6900617,0.06467345125
894,1778428944280,0.77559406,0.013659334,-0.24037987,0.02260135,-1.6355436,0.05932854
895,1778428944290,0.7809602,0.0073175007,-0.25013652,0.0378725295555555,-1.5691563666666668,0.0571566396666666
896,1778428944300,0.8467872175,-0.0253063545,-0.3181283374999999,0.10804360625,-1.3053806875,0.03825430925
897,1778428944310,0.87267281875,-0.017348573625,-0.342641945,0.1435491,-1.228643,0.027564483
898,1778428944320,0.89076332,-0.0026830831333333,-0.3778574066666667,0.1708336133333333,-1.1131928333333334,0.015754769
899,1778428944330,0.91191294375,0.0046344165,-0.400206275,0.2344126375,-0.824567425,-0.01214058975
900,1778428944340,0.9333471225,0.0025611247499999,-0.4093226675,0.2695363525,-0.6110762949999999,-0.0295497365
901,1778428944350,0.94322574,-0.01097625,-0.40877387,0.29381752,-0.49012858,-0.0432938
902,1778428944360,0.9424093333333334,-0.0216814821111111,-0.4223586566666666,0.3368483288888889,-0.3176660466666667,-0.0588364668888889
903,1778428944370,0.9319446875,-0.029128986625,-0.436732815,0.34955734,-0.2011978175,-0.0636044662499999
904,1778428944380,0.9212123375,-0.032044552,-0.4569169,0.3463504,-0.12972869,-0.062230065
905,1778428944390,0.9128445888888888,-0.03295924,-0.4844489888888889,0.3035232122222222,-0.0196404367777777,-0.0498095042222222
906,1778428944400,0.90462595,-0.032501896,-0.5056697625,0.183254175,0.173862405,-0.0147366893749999
907,1778428944410,0.9056355111111112,-0.0339620084444444,-0.5155348333333334,0.0940026032222222,0.3073664766666666,0.0140579711111111
908,1778428944420,0.91508389375,-0.037624147875,-0.49987671875,-0.04734066325,0.484936375,0.0529146455
909,1778428944430,0.912675225,-0.02520726425,-0.478282485,-0.2137965399999999,0.7364527125,0.0941468375
910,1778428944440,0.9146265075,-0.003536792,-0.428607335,-0.36788276,1.00860425,0.14041851
911,1778428944450,0.9181023033333332,0.013415417,-0.3399486933333333,-0.4947863,1.2478082,0.1802763
912,1778428944460,0.91377282,0.017562,-0.275953605,-0.5822806125000001,1.3815838125,0.2067717975
913,1778428944470,0.8967054144444444,0.0188357874444444,-0.1860271177777777,-0.6787276555555555,1.509115166666667,0.2374923222222222
914,1778428944480,0.883923515,0.02115977075,-0.146921685,-0.72263233125,1.5661360000000002,0.24724043125
915,1778428944490,0.8675811111111111,0.0305878278888888,-0.1212604644444444,-0.7330251777777778,1.5784802444444443,0.2408859166666667
916,1778428944500,0.8502630250000001,0.036191136375,-0.104152415,-0.7271373,1.581789,0.23319094375
917,1778428944510,0.8344084,0.039544992,-0.08738314,-0.7141568,1.588661,0.2267007
918,1778428944520,0.817059845,0.0291632865,-0.0447891985,-0.65215581875,1.600496175,0.20883340875
919,1778428944530,0.8136449875,0.018659625,-0.016784516,-0.5878450375000001,1.65585415,0.184552235
920,1778428944540,0.8067340333333334,0.0077240276666666,0.0519949046666666,-0.4892207688888889,1.7789738555555554,0.1477656566666666
921,1778428944550,0.80937647375,0.006707708375,0.1082380275,-0.3870480874999999,1.8108567125,0.11132691125
922,1778428944560,0.81085353,0.0086183894444444,0.1297162488888888,-0.3285679555555555,1.7807385666666664,0.0916355688888889
923,1778428944570,0.79251578375,0.009268833,0.120738755,-0.26747474625,1.7206803750000002,0.0710873462499999
924,1778428944580,0.7819358725,0.0082626767875,0.09777628325,-0.24800399,1.7065545,0.07032379
925,1778428944590,0.7696485666666667,-0.0017074167999999,0.0534482406666666,-0.2254026422222222,1.7569834111111111,0.094621934
926,1778428944600,0.7587333,-0.007561417,0.05149691,-0.2211267,1.828724,0.106974624
927,1778428944610,0.7513887000000001,-0.0095940556666666,0.0659489733333333,-0.2357191644444444,1.9000574,0.1118614037777778
928,1778428944620,0.7287315625,-0.018476687,0.1215391075,-0.2791572,2.15461105,0.12362021625
929,1778428944630,0.7162918,-0.0248795,0.16180822,-0.28831992,2.3516092,0.12407835
930,1778428944640,0.6967513555555556,-0.0270476493333333,0.2691857488888889,-0.28831992,2.3516092,0.12407835
931,1778428944650,0.7006506275,-0.0302609125,0.4309855099999999,-0.27175068,2.7385045999999997,0.15034477875
932,1778428944660,0.70382154,-0.03295924,0.51908517,-0.23945212,2.7511034,0.16561596
933,1778428944670,0.70382154,-0.03295924,0.51908517,-0.23945212,2.7511034,0.16561596
934,1778428944680,0.6820519837500001,-0.081807366875,0.58469493625,0.01114796275,2.2389843125,0.17768018875
935,1778428944690,0.66455096,-0.094212815,0.540062,0.1447708,2.1176548,0.1466797
936,1778428944700,0.66455096,-0.094212815,0.540062,0.1447708,2.1176548,0.1466797
937,1778428944710,0.6264738257142858,-0.0622335952857142,0.56189691,0.2402375028571428,2.367665842857143,0.0698002085
938,1778428944720,0.5812330822222223,-0.0066128513333333,0.6463419355555555,0.3869378088888889,2.771261311111111,-0.0603975233333333
939,1778428944730,0.57497257,0.00951275,0.7133343,0.41781953,2.7669854,-0.08177718
940,1778428944740,0.586680595,0.00512225015,0.73448644125,0.4771480812499999,2.5443315875,-0.09666657975
941,1778428944750,0.59147761,-0.0078866387333333,0.71587511,0.5328624433333333,2.291135433333334,-0.1041749086666666
942,1778428944760,0.58448535,-0.017318083,0.68674743,0.55403847,2.1775177,-0.106211066
943,1778428944770,0.57719833375,-0.016311927875,0.6409177162499999,0.56533915125,2.0958933625,-0.11766445325
944,1778428944780,0.57180166,-0.002927,0.5827779,0.5308263,2.1182656,-0.16118732
945,1778428944790,0.5505809,0.03295924,0.59204674,0.43919918,2.2935789,-0.1880646
946,1778428944800,0.541018625,0.055521533,0.641801915,0.35207709,2.4443816875,-0.203259425
947,1778428944810,0.525427,0.074912906,0.7391284666666667,0.1993398199999999,2.6340242666666667,-0.2261407433333333
948,1778428944820,0.5185973,0.074912906,0.7970587,0.13255386,2.656422,-0.22654797
949,1778428944830,0.517255775,0.05393607275,0.88053152,0.10239327375,2.5101241125,-0.19058434375
950,1778428944840,0.5154569,0.026910868625,0.91346787375,0.117969874375,2.28495045,-0.15866757125
951,1778428944850,0.5110359,0.021708583,0.90493083,0.13438639,2.1677442,-0.14530529
952,1778428944860,0.5110359,0.021708583,0.90493083,0.13438639,2.1677442,-0.14530529
953,1778428944870,0.4559954366666667,0.0583468997777777,0.9381916144444444,0.0256555822222222,2.3197773,-0.1820239988888888
954,1778428944880,0.43417168,0.08271824,0.99082005,-0.06291727,2.4133048,-0.20333578
955,1778428944890,0.43417168,0.08271824,0.99082005,-0.06291727,2.4133048,-0.20333578
956,1778428944900,0.4360849025,0.083701530375,1.0537886125,-0.14729054625,2.284339675,-0.184552225
957,1778428944910,0.4522215,0.0585704929999999,1.1426277,-0.30053684,1.7798562,-0.12697987
958,1778428944920,0.4080687775,0.03617589225,1.09647785,-0.295268295,1.6550906375,-0.077806668
959,1778428944930,0.347764195,0.029529162,1.08222775,-0.2895416075,1.6633370625,-0.0221432136249999
960,1778428944940,0.32483602,0.03808149,1.1011313,-0.28648737,1.7786345,0.011071607
961,1778428944950,0.32483602,0.03808149,1.1011313,-0.28648737,1.7786345,0.011071607
962,1778428944960,0.3255643666666666,0.0741540544444444,1.2424200444444444,-0.1937743222222222,2.042181133333333,0.1246213188888888
963,1778428944970,0.32703125,0.07540074,1.2507437,-0.18630841,2.0516832,0.13140851
964,1778428944980,0.32703125,0.07540074,1.2507437,-0.18630841,2.0516832,0.13140851
965,1778428944990,0.32703125,0.07540074,1.2507437,-0.18630841,2.0516832,0.13140851
966,1778428945000,0.32703125,0.07540074,1.2507437,-0.091474375,2.0283183,0.1753895225
967,1778428945010,0.3259162128571428,0.057420597,1.3207826428571428,0.1303722614285714,1.9234925142857144,0.2109931971428571
968,1778428945020,0.333799965,0.047411303,1.39143025,0.2719797425,1.82108835,0.22868595
969,1778428945030,0.4413875555555556,0.118411375,1.4035947666666666,0.21970139,1.808362466666667,0.2550032733333333
970,1778428945040,0.545679705,0.1921148575,1.4523256249999998,-0.0588131425,2.1155168,0.358490975
971,1778428945050,0.4822977811111111,0.133297074,1.9379788666666669,-0.7607848333333334,2.1341476666666668,0.56409198
972,1778428945060,0.3740592728571428,0.0565407528571428,2.1776314142857145,-1.0900024142857143,0.6733282,0.5662444999999999
973,1778428945070,0.33361703,0.01243975,2.0324357,-1.0714346222222222,-0.8920660666666667,0.4750440555555555
974,1778428945080,0.3627727075,-0.0053737899,1.589856475,-0.80860905,-1.3050752,0.4016320875
975,1778428945090,0.4086925466666666,-0.0430411309999999,1.1268543666666666,-0.5462247333333333,-1.0773564288888888,0.32036394
976,1778428945100,0.44257155,-0.0397736615,1.06208945,-0.335355145,-0.65078139,0.216621705
977,1778428945110,0.4516650875,-0.019147458,1.10784665,-0.2250972225,-0.4985277025,0.1509556325
978,1778428945120,0.4198043055555556,-0.0162949891111111,1.1667008222222224,-0.0616277022222222,-0.4532062422222222,0.0722920751011111
979,1778428945130,0.3956328375,-0.046466126375,1.213557825,0.18111621,-0.3749838625,-0.0295497365675
980,1778428945140,0.3980686155555555,-0.0640450671111111,1.2748779,0.3817116577777777,-0.2384594988888888,-0.1417759531111111
981,1778428945150,0.4068834825,-0.0773520775,1.369050925,0.514027965,-0.22395188,-0.245026105
982,1778428945160,0.3952500155555555,-0.0720672104444444,1.4440239999999998,0.5972050088888889,-0.33836698,-0.3236048155555555
983,1778428945170,0.37950385,-0.061253577,1.4969776,0.6413896,-0.48707435,-0.37254047
984,1778428945180,0.3835589625,-0.046885359625,1.5236445625,0.6458946050000001,-0.58954396125,-0.39025504375
985,1778428945190,0.39514500375,-0.006097917,1.5905806375,0.6416950425,-1.0879189125,-0.47180314125
986,1778428945200,0.38682133,0.019513333,1.5999714,0.60534966,-1.2830083,-0.50814855
987,1778428945210,0.3549190733333333,0.0872815133333333,1.5814235,0.5263467044444444,-1.5951682111111112,-0.5389624222222222
988,1778428945220,0.34386152,0.1188484,1.5614021,0.47646087,-1.7106777,-0.53563666
989,1778428945230,0.35756278375,0.1460641625,1.5439925125,0.4023956374999999,-1.7837503125,-0.5049416075
990,1778428945240,0.37980874875,0.1676317325,1.5242619,0.32497075,-1.877439,-0.4696652
991,1778428945250,0.4028588675,0.1617472525,1.480749525,0.24533151875,-2.0972677125,-0.4201865575
992,1778428945260,0.40779817125,0.14183373,1.4104444125,0.09483404125,-2.438807725,-0.347343015
993,1778428945270,0.3979873111111111,0.1168699688888888,1.3412367777777778,-0.005497625,-2.5799134,-0.3084015
994,1778428945280,0.4015173325,0.1008595412499999,1.2749142999999998,-0.1798945125,-2.7654583,-0.243499
995,1778428945290,0.40837748875,0.10192667875,1.231013175,-0.258388375,-2.876785225,-0.21013146125
996,1778428945300,0.4112130133333334,0.099172458,1.1755767333333331,-0.3193373666666667,-2.995289488888889,-0.1673636622222222
997,1778428945310,0.4029198375,0.088473152,1.115667225,-0.3385620825,-3.04828055,-0.13690614
998,1778428945320,0.3992339944444444,0.0755633504444444,1.0739413666666668,-0.3177084511111111,-3.0509444444444447,-0.1045142677777777
999,1778428945330,0.41596938125,0.05945468725,1.01962125,-0.27579755,-3.057443225,-0.0755159925
1000,1778428945340,0.4226771,0.054423906,0.9952105,-0.2583884,-3.0826406,-0.0640626
