id,timestamp,acc_x,acc_y,acc_z,gyro_x,gyro_y,gyro_z
0,2.38e-07,-0.23925178,0.55536777,0.9588669,0.00030542363,-0.5825956,0.62092626
1,0.010000238,-0.3258552542857143,0.5970034857142856,1.4372310428571429,0.36035626,-0.6408878342857143,0.6813128714285714
2,0.020000238,-0.3573335685714285,0.5972125857142857,1.5457914,0.9054720142857144,-1.0729095285714283,0.7588686357142856
3,0.030000238,-0.32804614,0.5845289000000001,1.3868274571428572,1.585345,-1.5916934,0.8783328842857143
4,0.040000238,-0.2771960499999999,0.58149735,1.1960912,1.9075233,-1.70548555,0.960099165
5,0.050000238,-0.1879552171428571,0.5957142142857142,0.9731317285714286,1.9345751,-1.4906418428571429,1.0081815857142855
6,0.060000238,-0.0453380095,0.64224785,0.7436257,1.7261016500000002,-1.03775315,1.0260707
7,0.070000238,0.0605958662857142,0.6892475357142857,0.7107165599999999,1.4422322285714286,-0.6319869428571429,0.9799080971428572
8,0.080000238,0.1431790766666666,0.7296258999999999,0.7382544466666666,1.1594389900000002,-0.2140510533333333,0.8792128166666666
9,0.090000238,0.1693130071428571,0.7687512685714285,0.8313377171428572,0.9222702642857142,0.2071426714285714,0.7225014071428573
10,0.100000238,0.1440153728571428,0.822678702857143,0.9584139342857142,0.8088926714285715,0.4954625857142857,0.4804313542857143
11,0.110000238,0.12634884,0.8391954,0.97984374,0.8102889000000001,0.5401417,0.34848836
12,0.120000238,0.13976425,0.83236565,1.0109736,1.0352334333333333,0.3365259433333333,0.0573178333333333
13,0.130000238,0.0898048858571428,0.8287417714285714,0.9055275428571428,1.2643884285714286,0.1697937228571428,-0.1703827542857142
14,0.140000238,0.0079781072333333,0.8266742466666667,0.8287983133333334,1.3866742,0.065716982,-0.2729469233333333
15,0.150000238,0.0659228347285714,0.7286835742857143,0.7909389742857142,1.4401379,0.1837559491428571,-0.20040154
16,0.160000238,0.1358964299999999,0.6322493971428571,0.7894754714285714,1.4539255857142857,0.5827264642857143,-0.1332083385714285
17,0.170000238,0.2069531366666666,0.60224042,0.7928409333333333,1.4176238,1.069542633333333,-0.1980163266666666
18,0.180000238,0.2694625957142857,0.6583790142857142,0.7752325142857143,1.3809729999999998,1.4651389714285714,-0.3803396857142857
19,0.190000238,0.1664528026666666,0.7699432783333333,0.8598266166666667,1.3797512166666666,1.4012327000000002,-0.6046369666666668
20,0.200000238,0.1328692568571428,0.7248463128571428,0.9193698571428572,1.5637035142857143,0.4010430478285714,-0.8369043714285714
21,0.210000238,0.1921555266666667,0.6014985133333334,0.8268470200000001,1.7185678666666666,-0.4340069775333333,-0.9640188
22,0.220000238,0.21345758,0.5819852,0.7175113600000002,1.880646,-1.2925528,-1.1187668
23,0.230000238,0.17696154,0.7209088,0.4764258799999999,1.9748909857142856,-2.4051675285714285,-1.4795157428571428
24,0.240000238,0.0887551754999999,0.81541345,0.37828427,1.89897145,-2.8819774499999995,-1.7393876
25,0.250000238,-0.089330121,0.8272215999999999,0.3471151857142857,1.766679428571429,-2.936081042857143,-1.8591135857142855
26,0.260000238,-0.2145958533333333,0.7887756666666667,0.2695990466666667,1.6741796666666666,-2.7516633,-1.82287
27,0.270000238,-0.34005034,0.7430616,0.1620521399999999,1.588661,-2.4812615,-1.7210622
28,0.280000238,-0.4280635933333332,0.6952133333333332,0.0469437973333333,1.3027844999999998,-1.751044533333333,-1.4347784666666668
29,0.290000238,-0.4812693685714285,0.6683316714285715,0.0339044162857142,0.9474240857142856,-1.018740492857143,-1.0711206957142856
30,0.300000238,-0.4832904142857143,0.7092661228571429,0.1230820888571428,0.6191809714285714,-0.9726651928571428,-0.6260748071428571
31,0.310000238,-0.4258175349999999,0.7299816199999999,0.045292275,0.37658734,-0.583817275,-0.2556395825
32,0.320000238,-0.32807227,0.7245631785714286,0.0634009128571428,0.0952485414285714,0.0087045728571428,0.1079890685714285
33,0.330000238,-0.170421527,0.671548325,0.233931325,-0.118809785,0.270147195,0.3503209
34,0.340000238,-0.0396582361428571,0.6149661742857143,0.3552646271428571,-0.1887081642857143,0.17991633,0.4017193342857142
35,0.350000238,-0.0383152426666666,0.6104522733333334,0.4867154133333333,-0.122474875,-0.3083251449999999,0.35887277
36,0.360000238,-0.1105203814285714,0.6386043114285714,0.5072508857142857,0.0310223114285714,-0.7162838428571429,0.3669883142857142
37,0.370000238,-0.1122365121428571,0.6355945814285714,0.4396423771428571,0.3381912228571428,-1.0739567571428572,0.4254551142857142
38,0.380000238,-0.0871951325,0.6008023516666667,0.41042536,0.5360184833333334,-1.17017975,0.4496853866666666
39,0.390000238,-0.0558482071428571,0.5271387628571428,0.3626343942857142,0.7436192857142857,-1.2929017571428572,0.4512852371428571
40,0.400000238,-0.1110329066666666,0.46394984,0.3054751533333333,0.9186633333333332,-1.2510151333333337,0.5142315933333333
41,0.410000238,-0.2421700542857142,0.4117400571428571,0.2527978542857143,1.0477993285714289,-1.0425635357142855,0.8098307571428572
42,0.420000238,-0.1805593129999999,0.4378609149999999,0.207816995,1.16717635,-0.825712775,1.26491195
43,0.430000238,-0.0087025977142857,0.4462106985714285,0.1669130457142857,1.2912655999999998,-0.7054631285714285,1.4518311999999998
44,0.440000238,0.1322986571428571,0.3565538985714286,0.0709666845714285,1.3352466285714286,-0.7536328085714287,1.3003410857142856
45,0.450000238,0.152813787,0.3430688,-0.012195834,1.27407465,-0.8971819,1.0883771
46,0.460000238,0.091359854,0.3524770085714285,-0.0516362902857142,1.176251842857143,-1.0130465628571428,0.9858420357142856
47,0.470000238,0.0163525793333333,0.3376111466666667,-0.0545763573333333,1.1036483,-1.0836431,0.98025715
48,0.480000238,-0.0353635614285714,0.2889149371428571,-0.0297926809428571,0.9413374714285716,-1.5224059142857145,1.0930020571428571
49,0.490000238,-0.1290115866666666,0.23552187,0.0658981555666666,0.8829288166666668,-1.9225399666666665,1.2665408666666669
50,0.500000238,-0.0680658151428571,0.23334985,0.0997183642857142,0.9064318614285716,-2.2690357857142858,1.5493922285714283
51,0.510000238,0.0912654873333333,0.2372292933333333,0.0418215466666666,0.8926769,-2.3081881333333336,1.6713289333333332
52,0.520000238,0.3433562714285714,0.22107562,-0.1750058571428571,0.5519877614285714,-1.7797906857142856,1.7228729
53,0.530000238,0.42090436,0.20235936,-0.3575513571428571,-0.0848641371428571,-0.8372316285714285,1.6537598285714288
54,0.540000238,0.29131274,0.271921355,-0.246111925,-0.5867188,-0.4286620699999999,1.6815098
55,0.550000238,0.21443325,0.32401282,-0.18132155,-0.83166856,-0.30282754,1.7560331999999998
56,0.560000238,0.2022323324999999,0.3245413,-0.0442048166666666,-0.95567053,-0.5090902966666667,1.9665719
57,0.570000238,0.3111941142857142,0.3343008657142857,0.3525205571428572,-1.0562858228571428,-1.0800434142857145,2.507898914285714
58,0.580000238,0.58075686,0.3890079028571429,0.3514447371428572,-0.9259135471428572,-1.4396797428571428,2.777369842857143
59,0.590000238,0.7482499333333333,0.4411233,0.205626836,-0.93917768,-1.5682485666666668,2.853929299999999
60,0.600000238,0.9141953285714284,0.5781478,-0.0802050285714285,-1.2041108857142857,-1.6012924714285717,2.8778977142857145
61,0.610000238,1.12704745,0.7001018,-0.163988225,-2.4377896,-1.5120505666666666,2.8970958
62,0.620000238,1.3506929428571428,0.6680964714285714,0.0191910128571428,-3.0054121714285715,-1.4255430142857144,2.794299028571429
63,0.630000238,1.47860765,0.647019465,0.30971319,-3.3923403000000003,-1.35058335,2.6081652
64,0.640000238,1.464275342857143,0.6462354314285715,0.6690460114285715,-3.502292785714286,-1.4039015428571429,2.3911398571428575
65,0.650000238,1.2821392285714286,0.6537619857142857,1.092154297142857,-3.2586519857142853,-1.7899569714285717,2.207536542857143
66,0.660000238,1.1204617,0.6638497,1.31713475,-2.77599535,-2.2509721500000004,2.1885131
67,0.670000238,0.9631746714285716,0.6575253142857144,1.3981957142857142,-2.114273171428571,-2.6968034285714286,2.2768241714285713
68,0.680000238,0.8142141733333333,0.6583666766666667,1.3628539666666668,-1.5508393,-3.025933766666667,2.4271506666666665
69,0.690000238,0.6236601085714286,0.7396293914285714,1.0747839557142858,-0.7740743714285714,-3.5354094857142857,2.9599258571428573
70,0.700000238,0.7081409000000001,0.7525642333333332,0.8190315199999999,-0.4264732,-3.8129087,3.4578536
71,0.710000238,1.0408141714285717,0.7049452871428572,0.5644928785714286,-0.3021512428571428,-3.7727673,3.934489028571429
72,0.720000238,1.3150854857142855,0.7115092800000001,0.4427784557142857,-0.4278112428571428,-3.330164814285714,4.054040571428572
73,0.730000238,1.523503533333333,0.7670467866666666,0.4589902033333333,-0.6502469,-2.6580001166666665,3.885650333333334
74,0.740000238,1.6148110714285713,0.7798930571428572,0.3677174485714286,-0.7543527171428571,-2.278809314285714,3.6775841714285713
75,0.750000238,1.5871962000000002,0.7691607,0.211841625,-0.9660549,-1.8453695,3.3747784999999997
76,0.760000238,1.4567705142857144,0.7470209114285715,0.1138132628571428,-1.2735729,-1.5014625428571429,3.0740670857142858
77,0.770000238,1.3609636,0.73278666,0.08396832,-1.4816101,-1.315765,2.8995392
78,0.780000238,1.159100742857143,0.6597641171428572,0.1657239628571428,-1.727694242857143,-1.209303,2.744209485714286
79,0.790000238,0.5736615,0.4999682,0.6943088,-1.6292605285714286,-1.5300851428571427,2.833916857142857
80,0.800000238,0.5003747000000001,0.5055071466666666,1.0127115333333334,-0.5128062800000001,-2.9418404,3.5189384500000003
81,0.810000238,0.6428336714285715,0.5127346314285715,0.8493178271428572,0.1313757828571428,-3.6074894,3.8924278142857145
82,0.820000238,0.89410705,0.50559354,0.553263965,0.6013791199999999,-3.8941512,4.15483025
83,0.830000238,1.1757088142857144,0.5451319971428571,0.3319531571428571,0.7675295714285715,-3.712380557142857,4.161026142857143
84,0.840000238,1.4039233666666666,0.63653614,0.1736076805499999,0.7500186000000001,-3.264775,3.9453099
85,0.850000238,1.6979780428571427,0.7185784999999999,-0.0492624547857142,0.5411670285714286,-2.628912057142857,3.4793205571428567
86,0.860000238,1.7591924571428572,0.7658940028571429,-0.1916444642857142,0.13207392,-1.915267857142857,2.7325162142857145
87,0.870000238,1.6694775833333333,0.8273704666666667,-0.2453395516666666,-0.322221925,-1.2884549583333331,1.998132283333333
88,0.880000238,1.3597439857142857,0.8687745714285714,-0.1491463431428571,-0.9410974714285716,-0.4190630214285714,1.110934757142857
89,0.890000238,0.90290325,0.84652803,0.139977682,-1.4199145,0.46622915,0.375365655
90,0.900000238,0.6505170571428571,0.87967676,0.3084195799999999,-1.4601431714285713,0.7302024142857143,0.2006633257142857
91,0.910000238,0.5082614,0.92682236,0.3841383,-1.4315206,0.8174663,0.16645588
92,0.920000238,0.6433999142857143,1.0008728514285714,0.1593734198571428,-1.4590958857142855,1.0572675285714286,0.2565122314285714
93,0.930000238,0.8775816857142856,0.9851359,0.044331856,-1.7161753285714287,1.5869593714285717,0.1175881014285714
94,0.940000238,1.03199615,0.966718,0.2449228249999999,-1.8230736,1.8693453,-0.1963873975
95,0.950000238,1.0610375,0.9770300028571428,0.5173995257142857,-1.7781327,1.9265904428571428,-0.5040798828571429
96,0.960000238,1.01024186,0.9971872,0.7552625666666667,-1.5545044599999998,1.7262034666666668,-0.7068520833333333
97,0.970000238,0.7973026285714286,1.0950639,1.34206,-0.5351458485714286,0.7452118428571428,-1.041451
98,0.980000238,0.777057525,1.1530602166666668,1.4671791,0.24670594,0.1337246483333333,-0.9809189416666668
99,0.990000238,0.8945949000000001,1.2006493,1.4486821000000003,0.98392224,-0.21853061,-0.83533365
100,1.000000238,0.8945949,1.2006493,1.4486821,0.98392224,-0.21853061,-0.83533365
101,1.010000238,1.6736603714285714,1.3789392857142857,0.9262735714285716,1.765457657142857,0.6143160068571429,-0.9353380714285714
102,1.020000238,2.0927875714285715,1.4998435714285716,0.868752782857143,1.6705145714285714,1.356059157142857,-1.206903242857143
103,1.030000238,2.3842549500000003,1.5110637999999998,1.1973107,1.76580675,1.47718145,-1.32767645
104,1.040000238,3.0702356714285712,1.4347178571428572,1.9105208428571427,2.4508283285714287,1.1473239,-1.6090153
105,1.050000238,3.59998135,1.25824415,2.26354665,3.4444151,0.603058975,-2.10223085
106,1.060000238,3.761147285714286,1.0391983,2.0873342714285714,4.581114557142857,0.1064401351428571,-3.001048871428572
107,1.070000238,3.665427433333333,0.885707175,1.7072743833333333,5.078024166666666,-0.0794610483333333,-3.556861666666667
108,1.080000238,3.1099070571428578,0.7304345999999999,0.8945165142857144,5.3844658857142855,-0.1230639057142857,-4.4149639714285716
109,1.090000238,2.846477,0.682052,0.5874428,5.3111644,-0.0413849,-4.6251826
110,1.100000238,2.5002460571428573,0.502394307142857,0.1892880514285714,4.670298057142857,0.48115128,-4.5581204571428575
111,1.110000238,2.456505133333333,0.4392939199999999,0.1610764633333333,4.2425885,0.7576033066666666,-4.513448733333333
112,1.120000238,2.3446619714285717,0.3445889057142857,0.126392385,3.7505367142857144,0.9090934342857144,-4.555458885714286
113,1.130000238,2.0895731,0.222863605,0.0351544875,3.1414348000000003,0.87977275,-4.6942083000000006
114,1.140000238,1.8375157428571427,0.113443025,-0.0414092078571428,2.555021342857143,0.8385841871428571,-4.821002857142857
115,1.150000238,1.6549005714285714,0.024761899,-0.0549378704285714,2.103343342857143,0.8637162214285715,-4.896748114285715
116,1.160000238,1.5117955,-0.0571679659999999,-0.031221334,1.7315992,0.93352735,-4.9464884
117,1.170000238,1.361830371428571,-0.1851370928571428,0.0776918142857142,1.3574116714285716,1.0731495285714288,-4.991516857142857
118,1.180000238,1.1950088,-0.3353854,0.21086596,1.0621107,1.2365075,-5.02712
119,1.190000238,0.9650476057142856,-0.5207185,0.2961496857142857,0.9647241428571428,1.3783986285714285,-5.0145542857142855
120,1.200000238,0.8216231399999999,-0.59448588,0.30019028,0.9810715666666666,1.4258702,-4.96685
121,1.210000238,0.6388743857142857,-0.6537402457142857,0.2718756342857142,1.0497191857142858,1.4120825714285714,-4.857653714285715
122,1.220000238,0.5033568971428571,-0.6887422771428572,0.2357236885714285,1.0874171857142858,1.2927055428571428,-4.716635257142857
123,1.230000238,0.41601513,-0.73368609,0.22781817,1.1152544,1.162595,-4.57807135
124,1.240000238,0.39603358,-0.8060313371428572,0.2391733628571428,1.159846271428571,1.0565693571428572,-4.443172114285714
125,1.250000238,0.3916488933333333,-0.8858494666666666,0.24532935,1.2068815166666669,1.0031639,-4.336099099999999
126,1.260000238,0.3070823594285713,-0.973536742857143,0.2928001857142857,1.296152485714286,1.0312629285714288,-4.1880125999999995
127,1.270000238,-0.0242392159999999,-1.0292266666666667,0.5110460766666667,1.7364860333333334,1.0903115,-3.707130233333333
128,1.280000238,-0.1526003599999999,-1.0033512,0.57058203,2.0970603999999997,0.97000368,-3.3789016571428574
129,1.290000238,-0.2156310442857142,-1.0618956142857143,0.4109603971428571,2.6003985714285713,0.6408442285714286,-2.798771228571429
130,1.300000238,-0.2246066066666666,-1.0726642333333334,0.0661522346666666,2.75965525,0.493717285,-2.21279415
131,1.310000238,-0.2325266257142857,-1.0277559714285716,-0.0904582448571428,2.715063457142857,0.44327876,-1.6650387285714283
132,1.320000238,-0.21862554,-0.97760275,-0.1849803049999999,2.4951584,0.39048411,-1.17924062
133,1.330000238,-0.1641123542857143,-0.9255635571428572,-0.2659040071428571,2.2208006428571427,0.2825386685714285,-0.7892582728571428
134,1.340000238,-0.127553176,-0.90771555,-0.2968364166666666,1.9376583333333333,0.1500139033333333,-0.4582372399999999
135,1.350000238,-0.0926360637142857,-0.9048175714285714,-0.3382296642857142,1.7511464,0.06368083,-0.26113722
136,1.360000238,-0.047607308,-0.8836665,-0.4403480057142857,1.1383575714285714,0.0132422958371428,0.2132293342857142
137,1.370000238,0.049454104,-0.8684043,-0.49954134,0.7235486,0.0917798,0.45721918
138,1.380000238,0.1241797185714285,-0.9021084314285714,-0.6755490214285714,0.0551071485714285,0.3535714857142857,0.6066149542857142
139,1.390000238,0.0058641599999999,-0.9201349733333334,-0.7477570666666667,-0.7876875333333334,0.6745281,0.8441399666666666
140,1.400000238,-0.3032798914285714,-0.812739,-0.7515203428571429,-1.5496758285714287,0.8504521,1.3202372285714286
141,1.410000238,-0.817014135,-0.42848534,-0.7490986,-2.21218335,0.7411104000000001,2.2856378
142,1.420000238,-0.9207593214285714,-0.154547344,-0.6487443285714286,-2.6872480285714286,0.368755372,3.2930994714285715
143,1.430000238,-0.5095158128571429,0.1497387017142857,-0.3784672142857143,-3.0862185714285713,-0.4503035468571428,4.486695042857143
144,1.440000238,-0.0047258849999999,0.286800275,-0.1772816874999999,-3.2884963,-1.48733675,5.48220155
145,1.450000238,0.5304708485714286,0.3520458085714286,-0.0327196785714285,-3.2895434,-2.068503314285714,5.8460918714285715
146,1.460000238,2.378401,0.51731676,0.3272752,-3.1125722,-3.0151419999999995,6.0649495
147,1.470000238,2.6358987142857147,0.6511747714285715,0.4040566857142857,-3.058119542857143,-2.954406314285715,5.826195357142857
148,1.480000238,2.5553320000000004,1.3578078,0.690177475,-2.9822580999999997,-2.3411739333333332,5.088408666666667
149,1.490000238,2.2733904857142857,1.7808138285714286,0.8313028857142858,-2.987610242857143,-1.7335845428571428,5.1162168857142865
150,1.500000238,2.410611,1.9238884,1.0485803142857144,-2.965619814285714,-1.3393263,5.385862114285715
151,1.510000238,2.56838155,1.81623405,1.19974985,-2.7882123,-0.91863798,5.47853635
152,1.520000238,2.337148628571428,1.7075909571428571,1.2581831714285714,-2.499630542857143,-0.6250058414285714,5.294758714285714
153,1.530000238,1.98487195,1.6195457,1.2638085,-2.155985366666666,-0.3195240216666666,5.145828333333333
154,1.540000238,1.8032193142857145,1.5471808285714286,1.2440447142857145,-1.8151326571428572,-0.0323094585714285,5.087419957142857
155,1.550000238,1.7814760000000005,1.4066064,1.1526282,-1.4559544000000002,0.3373403799999999,5.0497217
156,1.560000238,1.9862090857142856,1.293333285714286,1.2283731,-1.0768801428571428,0.64101874,4.867514642857143
157,1.570000238,2.2644308,1.2872702,1.2478167,-0.3991887,0.79303247,4.3105965
158,1.580000238,2.4444325714285715,1.2386349714285714,1.0798452428571428,0.1914133457142857,0.6631837528571428,3.5210325857142855
159,1.590000238,1.883920914285714,1.1896949142857145,0.5330711857142857,1.273987442857143,-0.2309220765714285,1.3324542600000002
160,1.600000238,1.3365566,1.1230381,0.16107646665,1.4567179499999998,-0.569156925,0.60206634
161,1.610000238,0.8829782714285714,1.1050079,-0.1330696209714285,1.361949357142857,-0.6569443857142857,0.3052054685714286
162,1.620000238,0.5411378714285714,1.1609213571428572,-0.4801630385714285,0.9548633,-0.4335488142857143,0.3156771371428571
163,1.630000238,0.565856225,1.15023475,-0.62938124,0.33260632,0.0636808266666666,0.4393009866666666
164,1.640000238,0.6683578285714286,1.1156357,-0.7254386857142857,-0.1693355757142856,0.5068068828571428,0.45163428
165,1.650000238,0.7382798666666667,1.0954197166666668,-0.7387270666666668,-0.6626674583333333,0.9681420166666668,0.3867681166666666
166,1.660000238,0.7437062571428571,1.0649968285714286,-0.6697255,-1.2720022285714283,1.5442000714285715,0.1619181528571428
167,1.670000238,0.6389905333333333,1.007284353333333,-0.5490970933333333,-1.922234566666667,2.0595225,-0.2310020733333333
168,1.680000238,0.5301224114285714,0.9292310142857144,-0.4055376142857143,-2.3394140857142856,2.3325421714285715,-0.58017402
169,1.690000238,0.4174786166666666,0.8219076583333332,-0.2302522523333333,-2.445527,2.3364399,-0.8084564
170,1.700000238,0.2505198571428571,0.6998492357142857,0.14602769,-2.3732725428571433,2.0974531857142855,-1.0733895714285715
171,1.710000238,0.1673834642857143,0.6466797428571428,0.3821477285714286,-2.0275330000000005,1.6340819,-1.2016674285714284
172,1.720000238,0.172586285,0.5943029999999999,0.5593619,-1.3679925,0.984838515,-1.3307307
173,1.730000238,0.2414557228571428,0.5324700942857142,0.6236122000000001,-0.78314987,0.5523586228571429,-1.4627610142857144
174,1.740000238,0.23993778,0.472268385,0.63990015,-0.111479625,0.140647579,-1.6306568
175,1.750000238,0.2137014914285714,0.4430702785714285,0.6496023428571428,0.2765829257142857,-0.0787338474285714,-1.7069254428571428
176,1.760000238,0.2787924014285714,0.4362406342857143,0.6375371857142857,0.9530962571428572,-0.3775254285714285,-1.7386894142857143
177,1.770000238,0.5419523700000001,0.403453425,0.521417625,1.6973918,-0.5117373,-1.8346797
178,1.780000238,0.7002368771428572,0.41905756,0.3420582942857142,2.084319914285714,-0.54158154,-1.9537076285714288
179,1.790000238,0.8393681333333333,0.4894899666666667,0.0769760433333333,2.1359801,-0.39262207,-2.0558065
180,1.800000238,1.2343446571428571,0.5449839,-0.2664876642857143,1.887278,0.0575723485714285,-2.2418531142857145
181,1.810000238,1.46944545,0.5205944,-0.35874044,1.3705885000000002,0.75699244,-2.68253575
182,1.820000238,1.4911758285714287,0.4848105142857143,-0.2945163185714285,0.8758240571428572,1.343144,-3.1329919857142863
183,1.830000238,1.2457738857142855,0.5792933714285714,-0.00047477,0.4282475714285714,1.8618406285714288,-3.4813495285714287
184,1.840000238,0.9155005666666666,0.8887408999999998,0.4664601466666666,0.3387148166666667,1.9194348,-3.420439333333333
185,1.850000238,0.7845667,1.2773394142857142,0.8930747628571428,0.4521578785714286,1.7157608285714283,-3.0427611142857143
186,1.860000238,1.1625679,1.6057645,1.1060401,0.78096825,1.3733373999999998,-2.3306878
187,1.870000238,3.0738292,1.709028257142857,1.4664226857142857,1.5561988571428569,1.1017721428571428,-1.8987313714285712
188,1.880000238,3.5366393499999997,1.5780494,1.5266439499999995,2.20134085,0.91703445,-2.52554795
189,1.890000238,3.4543914714285715,1.5053143142857144,1.1724072357142856,2.664275742857143,0.7008817714285714,-3.2579539
190,1.900000238,2.9583520428571433,1.4385159714285716,0.5031695957142858,2.6237852857142863,0.3287885428571428,-4.027970585714286
191,1.910000238,2.47735485,1.330352,0.082260895,2.07611715,0.0374144,-4.38618865
192,1.920000238,2.055250442857143,1.194054842857143,-0.1470338371428571,1.2650210285714285,-0.1508138242857142,-4.491516142857143
193,1.930000238,1.8069804166666668,1.0723491833333334,-0.2017241633333333,0.5207472599999999,-0.2309511699999999,-4.443201333333334
194,1.940000238,1.6291848285714283,0.8048248171428571,-0.0425286114285714,-0.5822683428571429,-0.2878181299999999,-4.299012228571429
195,1.950000238,1.5339919,0.60784036,0.16229606,-0.9575031,-0.33581328,-4.2719603
196,1.960000238,1.3661598571428573,0.3221703697142857,0.4946150971428572,-1.238492842857143,-0.3979451628571429,-4.242290642857143
197,1.970000238,0.9743556142857144,-0.1240185654285714,0.8260673557142857,-0.9398757714285716,-0.3178369228571429,-4.135653928571428
198,1.980000238,0.7043551,-0.25656985,0.828173325,-0.66470364,-0.2596609933333333,-4.034136966666667
199,1.990000238,0.4256781742857143,-0.3415312542857142,0.7574832314285713,-0.0988263657142857,-0.1633798271428571,-3.7338912
200,2.000000238,0.1343980971499999,-0.3998251699999999,0.6304940849999999,0.46943611,-0.076203195,-3.29765895
201,2.010000238,-0.1048014118285714,-0.41816901,0.5659824771428571,0.9478821942857144,-0.0832715685714285,-2.8417050857142856
202,2.020000238,-0.3269398,-0.4026759466666667,0.56017496,1.430247933333333,-0.2673983733333333,-2.349827633333333
203,2.030000238,-0.4936481142857142,-0.3688281485714285,0.54506664,1.9644194,-0.6904973714285715,-1.7971563
204,2.040000238,-0.6055536,-0.348313,0.45051408,2.3509983999999995,-1.1068553,-1.3704358000000003
205,2.050000238,-0.5621618416666666,-0.41828152,0.1708077333333333,2.7052897999999996,-1.8070898,-0.71072079
206,2.060000238,-0.3033931199999999,-0.6185900885714286,-0.2830130457142857,2.711921771428571,-2.3081299857142854,-0.06863305
207,2.070000238,-0.2413606116666666,-0.6690075166666666,-0.39375775,2.4662449,-2.3061520333333334,0.1135157833333333
208,2.080000238,-0.2151911214285714,-0.7166315428571428,-0.5993729571428572,1.9094431142857144,-2.128889942857143,0.2699508514285714
209,2.090000238,-0.2444603966666666,-0.7303780066666666,-0.6918747283333334,1.5471234,-2.0011356,0.34604496
210,2.100000238,-0.3985598528571428,-0.7209175028571428,-0.7243933157142858,0.4254551285714286,-1.5445709142857142,0.6628783428571429
211,2.110000238,-0.45252642,-0.6831670457142857,-0.7101634028571429,-0.38295761,-1.2340204857142858,1.0067853714285715
212,2.120000238,-0.4214117799999999,-0.65290397,-0.6969918900000001,-1.229330075,-0.91123135,1.432895
213,2.130000238,-0.2270384951428571,-0.6679222642857143,-0.5025902928571429,-2.000306542857143,-0.7309441742857142,1.7654577428571427
214,2.140000238,0.0241085471428571,-0.6873659071428572,-0.2008740899999999,-2.519526742857143,-0.69219902,1.9427779714285711
215,2.150000238,0.2268729849999999,-0.66093798,0.15119784,-2.5619952,-1.0216420666666666,1.8574338333333331
216,2.160000238,0.3122873771428571,-0.6045605714285714,0.3837288314285714,-2.3467442857142857,-1.7056601428571427,1.6532363
217,2.170000238,0.2042192266666666,-0.4881128633333333,0.4075746083333333,-2.0415533666666668,-2.286808583333334,1.532259466666667
218,2.180000238,0.0710407298571428,-0.2903043928571428,0.2225129785714285,-1.7222838571428571,-2.8390435571428574,1.6473023714285715
219,2.190000238,0.0692592674285714,-0.1707242371428571,0.0215909828571428,-1.676906657142857,-2.9835524714285713,1.9509807142857143
220,2.200000238,0.23408377,-0.0153210125,-0.1806965099999999,-1.82918215,-2.8740363,2.2654798
221,2.210000238,0.5066323428571429,0.103268225,-0.2776381371428572,-2.0807639714285715,-2.6584072857142855,2.452224571428572
222,2.220000238,0.8662091166666667,0.214646675,-0.3048805916666666,-2.4349391,-2.380064583333333,2.4312231166666667
223,2.230000238,0.9926799285714286,0.3865251642857142,-0.23562352,-2.7514741857142857,-2.3400685857142856,2.132140471428571
224,2.240000238,0.8346116666666666,0.59519225,-0.1297738366666666,-3.0362163166666662,-2.497958,1.9172967833333336
225,2.250000238,0.6538360571428571,0.8829216714285714,-0.0461394542857142,-3.2775009,-2.807454,1.9600562
226,2.260000238,0.9798045142857142,1.2338741857142856,-0.0704875628571428,-3.993413914285714,-3.3818250428571432,2.7166341428571426
227,2.270000238,1.3870930499999998,1.27909895,0.04539899,-4.277712333333333,-3.418301366666667,2.8812138333333337
228,2.280000238,1.8324326428571427,1.3786518285714284,0.5068283514285714,-4.474499714285714,-3.4163816,2.8621904285714286
229,2.290000238,2.0345292666666666,1.4933391666666669,0.9748231666666666,-4.291914733333333,-3.5514661333333333,2.6596800000000003
230,2.300000238,2.0912195714285713,1.6492687857142858,1.5211558714285716,-3.693749742857143,-3.811163371428571,2.390092657142857
231,2.310000238,2.0059859,1.80342845,1.78533275,-2.48523205,-3.96073365,2.23005065
232,2.320000238,1.9509326285714284,1.8829931142857144,1.583006114285714,-1.358393357142857,-3.6778240714285713,2.296894857142857
233,2.330000238,1.9362497142857145,1.9117534857142855,1.3479271285714287,-0.7709328428571428,-3.328593857142857,2.3895691428571433
234,2.340000238,1.936424,1.9195937,1.0972592,-0.5366293116666667,-3.0072009166666667,2.4346845333333333
235,2.350000238,1.8454126,1.8041602,0.7265363,-0.35642937,-2.4299505,2.4438472
236,2.360000238,1.7625520166666666,1.6860841333333336,0.7003406666666666,-0.3552076783333333,-2.1762452333333333,2.4002734166666664
237,2.370000238,1.620782642857143,1.3030071714285714,0.7090309457142857,-0.2161090342857143,-1.5272926714285713,2.2386025
238,2.380000238,1.5701220500000002,1.10472905,0.7214140649999999,0.0143549149999999,-1.33836635,2.0657327999999997
239,2.390000238,1.4891287285714283,0.9855932,0.6774480857142857,0.2154981885714285,-1.2751000285714285,1.9038582571428573
240,2.400000238,1.323356885714286,0.8697894285714286,0.4612899642857143,0.5799122,-1.3049442857142857,1.5389205571428572
241,2.410000238,1.1436134666666666,0.77380532,0.2049306499,0.6901556000000001,-1.3239096666666663,1.3019700333333333
242,2.420000238,0.8798161142857143,0.72243762,-0.0895217701714285,0.5860207057142858,-1.2696896714285717,1.1289547714285717
243,2.430000238,0.7239954916666665,0.7221762666666667,-0.23410918,0.3818813413333333,-1.160584361666667,1.1046663333333335
244,2.440000238,0.6155411571428572,0.6859459,-0.4061952971428572,0.017409148,-0.92222667,1.164733
245,2.450000238,0.5972778571428572,0.575913417142857,-0.39193052,-0.8444090428571428,-0.3312755514285714,1.2703223
246,2.460000238,0.5450317966666666,0.48528748,-0.179126315,-1.2154843,-0.1002298516666666,1.24577205
247,2.470000238,0.3187250428571428,0.4244977485714286,0.2649719042857142,-1.2397144999999998,-0.31609165,1.2319262
248,2.480000238,0.22738116,0.3917098333333333,0.4470992466666666,-0.9448788833333333,-0.6856760533333333,1.2763144666666666
249,2.490000238,0.20596586,0.3092776285714285,0.5123426071428572,-0.42222635,-1.1403645714285715,1.3486852857142857
250,2.500000238,0.242255005,0.254588025,0.321177295,-0.0455081249999999,-1.18565455,1.3650909
251,2.510000238,0.2195685728571428,0.2867850214285714,-0.0741463142857142,0.17221529,-0.8765658142857143,1.2991193857142858
252,2.520000238,0.1738603199999999,0.3374064428571429,-0.3166953114285714,0.11776262,-0.5618267585714286,1.2252941428571429
253,2.530000238,0.15488708,0.3591673,-0.3934070999999999,0.02351762,-0.42499697,1.1952754
254,2.540000238,0.18321191,0.42212826,-0.570826,-0.7461499,0.31901497,1.0071344
255,2.550000238,0.0933895899999999,0.4296897,-0.48661375,-1.1767972333333334,0.6346193783333334,0.8910734833333332
256,2.560000238,0.0735931457142857,0.5601894714285715,-0.2527194571428571,-1.6601519714285715,0.7467825785714286,0.8830451571428571
257,2.570000238,0.24251415,0.6085721000000001,-0.11872644,-1.75404795,0.646429095,0.9063446
258,2.580000238,0.4687729942857143,0.6197704714285714,-0.0060325785714285,-1.6947084857142856,0.5343822628571429,0.801998797142857
259,2.590000238,0.66872805,0.637872565,0.09188036,-1.49321615,0.42102648,0.4773771149999999
260,2.600000238,0.7206256828571428,0.6748913028571428,0.0835371011428571,-1.2809030714285714,0.3984251314285714,0.0805881957142857
261,2.610000238,0.71937126,0.7096146,0.0361301559999999,-1.1547194857142855,0.4361231271428571,-0.24577876
262,2.620000238,0.4985047,0.81895024,-0.18961473,-1.1432006,0.54502845,-0.6374191
263,2.630000238,0.40481022,0.9160901,-0.21351856,-1.277587,0.6244386000000001,-0.6765133
264,2.640000238,0.57294501,0.9950276,0.0684643549999999,-1.29835585,0.59633962,-0.59710317
265,2.650000238,0.7410798,1.0739651,0.35044727,-1.3191247,0.56824064,-0.51769304
266,2.660000238,1.370271585714286,1.3641170714285715,0.9948837885714286,0.3607053022857143,-0.2787426957142856,-1.2325588714285711
267,2.670000238,1.3381421,1.58989465,0.7863263699999999,1.01988585,-0.263733305,-1.77542755
268,2.680000238,1.2011067,1.7343695,0.6386653000000001,1.230355457142857,-0.0925215357142857,-1.9093776285714288
269,2.690000238,1.2011067,1.7343695,0.6386653,1.2062706,0.42163733,-1.4999354
270,2.700000238,1.2011067,1.7343695,0.6386653000000001,1.2062706,0.42163733,-1.4999354
271,2.710000238,2.333002,2.4133115,2.0722246,1.8281131,0.41186377,-0.0265718549999999
272,2.720000238,2.946056,2.3537652,2.4045916,2.3400033,0.23716144,0.12491827
273,2.730000238,4.259799914285714,1.9667741428571428,2.482845257142857,4.055436757142857,-0.2084079942857143,-0.6459709900000001
274,2.740000238,4.62331335,1.6488259333333335,1.92164665,5.749956166666667,-0.4730502966666667,-2.3872929333333333
275,2.750000238,4.1885066,1.4383461,1.1785139,6.160242000000001,-0.40178478,-3.4827456
276,2.760000238,3.8524503,1.2988715,0.812806585,6.0203578,-0.2533489,-3.8712443
277,2.770000238,2.522028657142857,0.7866399771428572,-0.1004414077142857,4.464529857142857,0.7679004714285715,-4.666894842857142
278,2.780000238,2.1109158333333333,0.64276107,-0.1515434,3.6952696,1.1163743000000002,-4.7151808
279,2.790000238,1.9150943571428571,0.5562258385714286,-0.1277339342857142,3.2852455857142857,1.1455786142857145,-4.729375757142857
280,2.800000238,1.5409589,0.34855694,-0.0500334064999999,2.46950265,1.1082297,-4.78033775
281,2.810000238,1.3339847,0.2130612199999999,0.0127577131428571,1.9886786142857145,1.0734986857142856,-4.816988471428571
282,2.820000238,1.2467495,0.13732508,0.05710699,1.6986135,1.0850174,-4.8316493
283,2.830000238,1.0972286333333334,0.0188832133333333,0.1355261966666666,1.5243184333333335,1.0923476,-4.826762433333333
284,2.840000238,0.6990869457142858,-0.2991028228571428,0.4160303857142857,1.2256431428571428,1.0429562,-4.5910844
285,2.850000238,0.54609895,-0.48524174,0.52544224,1.3376027,0.96651305,-4.38863235
286,2.860000238,0.4977032828571429,-0.6169567285714285,0.5332497228571429,1.5272271714285712,0.8630181142857143,-4.2187294
287,2.870000238,0.43896289,-0.7592385714285715,0.4725885285714286,1.7062927142857145,0.7942541714285714,-4.083295685714286
288,2.880000238,0.260320065,-0.87387725,0.34509635,1.8338143666666664,0.8773293999999999,-3.9021940666666666
289,2.890000238,0.0881671705714285,-0.9112639657142856,0.2565001571428572,1.9192166142857143,1.0134610571428573,-3.619226342857143
290,2.900000238,-0.0242443025,-0.918778175,0.1921199533333333,1.9229980833333336,1.0257652666666668,-3.3679063333333334
291,2.910000238,-0.0883588171428571,-0.9267309,0.1288707585714285,1.8631932142857144,0.95935744,-3.071034557142857
292,2.920000238,-0.13577011,-0.9267309,0.07396773,1.764585,0.84678704,-2.7106347
293,2.930000238,-0.1119098448571428,-0.9118607571428572,0.0590975237142857,1.6399721142857142,0.7001836914285714,-2.3797299857142855
294,2.940000238,0.078586903,-0.9978579833333332,0.095229136,1.4445010333333332,0.3817286333333333,-2.0081603666666665
295,2.950000238,0.1808293685714285,-1.0847234714285714,0.1292279257142857,1.3481616714285714,0.0416903262857142,-1.9200238571428572
296,2.960000238,0.0992131058571428,-1.101070257142857,0.1147889271428571,1.3424022714285715,-0.1536062665714286,-1.9409672
297,2.970000238,-0.032776302,-1.0914355666666669,0.065745703,1.3223316333333337,-0.3724641033333333,-1.8961717333333337
298,2.980000238,-0.22746536,-1.0588205285714285,-0.0377765938571428,1.2326243,-0.6307652157142858,-1.660675542857143
299,2.990000238,-0.379824,-0.99688745,-0.121409528,1.1060917,-0.756687,-1.3612731
300,3.000000238,-0.4988139671428571,-0.9271316142857142,-0.1986483557142857,0.9210486228571428,-0.8045948828571429,-0.9897907142857144
301,3.010000238,-0.6073118766666666,-0.8422646433333334,-0.2876692133333333,0.5309280733333334,-0.75444726,-0.32995935
302,3.020000238,-0.7079550857142857,-0.7314320571428572,-0.3517713828571428,0.26052636,-0.6803311,0.08215895
303,3.030000238,-0.7182953857142856,-0.6206372771428572,-0.3478905,-0.08154811,-0.4885251,0.6038225
304,3.040000238,-0.5478063733333334,-0.5291568666666667,-0.1180251876666666,-0.7876875333333334,0.176483956,1.8460313333333336
305,3.050000238,-0.3933112685714285,-0.4131251714285714,0.1021880178571428,-0.9007815714285714,0.3731186,2.3600738571428574
306,3.060000238,-0.0686473,-0.261920775,0.22062263,-0.7516475499999999,0.48760885,2.8824355500000003
307,3.070000238,0.1570910442857142,-0.1946063085714285,0.2303792914285714,-0.5075704257142857,0.6162358428571428,3.1560950857142855
308,3.080000238,0.2930252233333333,-0.1011847673333333,0.21395557,-0.159125704,0.678193185,3.4560210999999996
309,3.090000238,0.3347233557142857,0.0685144528571428,0.15034849,0.0657533445714285,0.6474762828571429,3.6463436714285713
310,3.100000238,0.2038736866666667,0.3097386099999999,0.0165964966666666,0.3816777333333332,0.3574983533333333,3.96831825
311,3.110000238,0.0387261262857142,0.5632515228571429,-0.2544834857142857,0.4460493957142857,-0.20997874,4.5355627571428565
312,3.120000238,0.108812972,0.6336214471428571,-0.5026251328571428,0.1385314214285714,-0.8522846142857142,5.109759271428572
313,3.130000238,0.6250771466666666,0.7319837533333334,-0.8324367666666667,-0.5877368666666667,-1.4289753333333337,5.814146
314,3.140000238,1.5633839142857142,0.9509047485714284,-1.0982391714285715,-1.9289247571428572,-1.4833117142857142,6.504214571428571
315,3.150000238,2.3116592,0.98405126,-1.0346183,-2.85907065,-1.12999107,6.434665150000001
316,3.160000238,2.846773257142857,0.9368620914285714,-0.8652726285714286,-3.729004357142857,-0.7017980371428572,5.946183428571429
317,3.170000238,2.91664885,0.8266335499999999,-0.528963815,-4.6406067,-0.1472650921266666,4.967460866666666
318,3.180000238,2.5287014285714284,0.7443378571428572,0.0171264242857142,-4.892035742857142,0.0718836324628571,4.489138442857143
319,3.190000238,2.015595183333333,0.72946331,0.5922601583333332,-4.7407854333333335,0.01399858,4.2788324
320,3.200000238,1.107338142857143,0.8349485228571429,1.3225554,-4.1387955142857145,-0.4126273399999999,4.5514449428571435
321,3.210000238,0.7172268066666666,0.8253378166666666,1.6406089499999998,-3.0539308,-1.1300675,5.468763
322,3.220000238,0.84065884,0.5900343999999998,1.5960687,-1.5732371,-1.8068862,6.578214
323,3.230000238,1.3353479828571426,0.3849963285714285,1.041811632857143,-0.1140102857142857,-1.6501602428571427,7.358876928571428
324,3.240000238,2.0971852666666666,0.2369040566666666,0.2031419253333333,0.749204155,-0.6718555949999999,7.8414462
325,3.250000238,3.4303437999999997,0.33255425,0.018102104,0.7013835342857143,0.1649069485714285,7.493612242857142
326,3.260000238,4.26817575,0.40016055,0.0684643625,0.6826218000000001,0.63787725,5.925752849999999
327,3.270000238,4.139065485714286,0.5382631085714286,-0.0661885257142857,0.6249403742857143,0.2853311157142856,3.785442342857143
328,3.280000238,3.2000344,0.7864991266666667,-0.4082758466666666,0.3545968271999999,-0.35454592,1.8680218766666667
329,3.290000238,1.9177121428571429,1.0003501571428572,-0.6963995199999999,-0.1283215557714285,-0.7574724,0.7959339971428571
330,3.300000238,0.8000771557142857,1.0555667857142856,-0.61630774,-1.0805451857142858,-0.9424719,0.6841489314285714
331,3.310000238,0.4461185,1.0357870583333333,-0.4232868999999999,-1.5319031833333334,-0.914082015,1.0313647
332,3.320000238,0.7108646714285715,0.9424025285714286,-0.0600601257142857,-1.9743020571428571,-0.4754355,1.6588211857142858
333,3.330000238,1.0735586333333331,0.9216086333333332,0.08127507,-2.0818694,0.06408806,1.7548115
334,3.340000238,1.1294735857142857,1.0042920285714283,0.2134880728571428,-2.083207342857143,0.4631749371428571,1.3881285857142858
335,3.350000238,0.992939,1.06091555,0.388056175,-2.0081603,0.5702768166666666,1.0054545666666663
336,3.360000238,0.8284542128571429,1.0696094428571428,0.5333629828571429,-1.7643450857142855,0.4828965828571428,0.5933508371428572
337,3.370000238,0.6165951828571429,1.0597482142857142,0.6613059928571429,-1.4200017428571428,0.3081942657142856,0.3107903642857142
338,3.380000238,0.42139652,1.0482319,0.74704054,-1.0475012333333331,0.1312812566666666,0.1481304633333333
339,3.390000238,0.2737441885714285,0.9980895685714286,0.77531527,-0.4728394145714286,-0.0536018485714285,0.0537109265714285
340,3.400000238,0.1915762166666666,0.9511530466666668,0.7865702866666666,-0.0277935526666666,-0.1163155033333333,0.0406213426666666
341,3.410000238,0.16488767,0.9246272,0.79193646,0.11392301,-0.08536591,0.057725064
342,3.420000238,0.1611628566666666,0.8623115416666667,0.8726779000000001,0.5329642,0.12110047,0.1188097899999999
343,3.430000238,0.4994934371428571,0.7650185285714286,1.0697314,1.563529042857143,0.4347269171428571,0.1538898771428571
344,3.440000238,0.9937775,0.6774306285714287,1.1819548999999998,2.1879894571428573,0.5209436428571428,-0.1124395242857142
345,3.450000238,1.1109337,0.6389702,1.18302635,2.92519485,0.4326325649999999,-0.64536015
346,3.460000238,1.0381572714285716,0.6226800857142857,1.0911394285714286,3.5152733285714284,0.2647368357142857,-1.0864791714285713
347,3.470000238,0.89935125,0.624945,1.0474544499999998,3.7913762,0.06306998,-1.1175450999999998
348,3.480000238,0.9353855428571428,0.6258509428571429,1.1445920857142855,4.188950442857143,-0.32813406,-0.9946775142857142
349,3.490000238,1.64357155,0.66740172,1.34215145,4.7821705,-0.8189934500000001,-1.04729765
350,3.500000238,2.2369598,0.7232869657142856,1.2478602714285714,5.126513942857143,-0.9728396928571428,-1.3953933142857142
351,3.510000238,2.537932533333333,0.8418987000000001,0.9512140666666667,5.1065305,-0.7717546076666667,-1.82572065
352,3.520000238,2.844848,1.1184319428571428,0.5545533,4.405364714285715,0.5670189594285714,-3.010124357142857
353,3.530000238,2.9908234428571427,1.2345188571428571,0.6536487857142858,3.647914314285714,1.7133174714285713,-3.2942555571428573
354,3.540000238,3.0616115,1.2527408,1.10201555,3.27521025,2.2358536499999997,-3.2530670500000003
355,3.550000238,3.2110453285714287,1.2429296571428572,1.6357182571428572,3.386646271428571,2.2683158285714287,-2.960034942857143
356,3.560000238,3.5363953,1.1244863,1.8789206,3.5494807,2.1882076,-2.8108137
357,3.570000238,3.7557983,1.0180777,1.9340763,3.5494807,2.1882076,-2.8108137
358,3.580000238,4.029010400000001,0.6712536233333334,1.5224160333333332,4.744094283333333,1.44745345,-3.3615943666666666
359,3.590000238,4.081370657142857,0.3795909728571428,0.9676827857142856,5.332456428571429,1.1625077714285712,-4.156793828571429
360,3.600000238,3.9654448,0.25983223,0.6718684999999999,5.2036552,1.4661862000000003,-5.071101
361,3.610000238,3.2904866,0.0894970956666666,-0.0287008666666666,4.763234383333334,1.6600283500000002,-5.5005269666666665
362,3.620000238,2.732263,0.040673107,-0.37947336,3.8011498,1.9939581,-6.0655603
363,3.630000238,2.2220503666666667,-0.0576659649999999,-0.3778472433333333,3.2106640666666664,2.191058166666666,-6.151079166666666
364,3.640000238,1.6215449285714283,-0.2296126999999999,-0.2092413088571428,1.9499335857142857,2.6594325142857147,-6.0215798
365,3.650000238,1.33340095,-0.37139362,0.068708283,1.5972129,2.76851245,-5.766245350000001
366,3.660000238,1.1881224,-0.4663773742857143,0.2463209999999999,1.5680667285714287,2.6660646999999997,-5.5374393571428575
367,3.670000238,1.077567142857143,-0.5895465714285714,0.3336518785714286,1.7319483285714286,2.371112657142857,-5.252261099999999
368,3.680000238,1.0146171166666669,-0.7174758,0.2734712466666666,1.901822,2.079884,-5.081282066666667
369,3.690000238,0.9449071057142856,-0.8634693971428572,0.0848307328571428,2.0213154285714285,1.8066898285714288,-4.964465
370,3.700000238,0.9023748083333332,-0.9066687333333332,0.0138778416666666,2.024806,1.7508409,-4.951375
371,3.710000238,0.765502,-0.9857892,-0.11079915,1.9087449,1.6579921,-4.9464884
372,3.720000238,0.2516435965714286,-1.054220942857143,-0.0238036517142857,1.842948,1.4468135285714283,-4.611329571428572
373,3.730000238,-0.1229136826666666,-0.9983814399999998,0.051984742,1.9547621333333336,0.8761076799999999,-4.056127666666666
374,3.740000238,-0.2461816228571428,-1.00404382,0.0156280914285714,2.0269003142857143,0.3825430996428571,-3.662858371428572
375,3.750000238,-0.365905495,-1.0758403,-0.09491407,2.0229734,-0.2399102537499999,-3.09424675
376,3.760000238,-0.4559238071428571,-1.1259977857142858,-0.0834456314285714,1.8850091714285715,-0.5370438314285714,-2.293862271428572
377,3.770000238,-0.43912623,-1.14561565,0.0560246099999999,1.8260769666666663,-0.57485819,-1.7544550666666667
378,3.780000238,-0.2824859885714285,-1.1701598142857144,0.2556290328571428,1.9736693142857145,-0.4845109514285714,-1.2987048714285714
379,3.790000238,-0.1107425157142857,-1.2006362857142856,0.40299391,2.175947042857143,-0.3871244571428571,-1.032724542857143
380,3.800000238,0.0031709156666666,-1.2673197833333332,0.36682526,2.5114475833333336,-0.2433717366666666,-0.8302432166666667
381,3.810000238,0.114610344,-1.3267237,0.13253821,2.916643,-0.03771982,-0.6765133
382,3.820000238,0.1146103439999999,-1.3267237,0.13253821,2.916643,-0.03771982,-0.6765133
383,3.830000238,0.114610344,-1.3267237,0.13253821,2.916643,-0.03771982,-0.6765133
384,3.840000238,0.114610344,-1.3267237,0.13253821,2.916643,-0.03771982,-0.6765133
385,3.850000238,0.1146103439999999,-1.3267237,0.13253821,2.916643,-0.03771982,-0.6765133
386,3.860000238,-0.7559021342857142,-1.078974157142857,-0.9691418657142856,0.0933287328571428,0.3916185428571428,1.2567091714285714
387,3.870000238,-0.5759264714285715,-0.9518586642857144,-0.7549613028571428,-1.0871772485714286,0.4525287428571429,2.2398242
388,3.880000238,-0.4413875366666667,-0.8265014666666667,-0.6340207333333333,-1.5031933000000002,0.4289675,2.701624766666667
389,3.890000238,-0.1002018314285714,-0.6018905114285714,-0.5536690285714286,-1.737642242857143,0.4525287385714285,3.0295625428571427
390,3.900000238,0.2413657166666666,-0.3820852933333333,-0.46946334,-2.3266154,0.59186008,3.868343
391,3.910000238,0.5797768857142858,0.0186160714285714,-0.1930861745714285,-2.4992816,0.5584671,4.132229
392,3.920000238,1.2282119,0.451779415,0.1773121694999999,-2.39116165,0.044133715,4.5622657
393,3.930000238,1.574229442857143,0.6936467357142858,0.4136652357142857,-2.051443285714286,-0.36844997,4.555284585714285
394,3.940000238,1.7049644571428573,1.101418757142857,0.5071419485714286,-1.569921057142857,-0.8281561857142857,4.527359971428572
395,3.950000238,1.7836507333333331,1.3940955333333331,0.1940255566666666,-1.3240114,-0.8941277099999999,4.701945866666667
396,3.960000238,2.0728865142857145,1.610986871428571,-0.3343923657142857,-1.5543881000000002,-0.42813848,5.0015519
397,3.970000238,2.39731965,1.68945835,-0.5229726250000001,-2.2634945500000003,0.1430909749999999,4.9782524
398,3.980000238,2.4431129714285715,1.676308585714286,-0.4380874128571429,-2.838563657142857,0.5087266828571428,4.863849428571429
399,3.990000238,2.315928,1.6389371,-0.29529163,-3.4668636,0.7747069999999999,4.635567
400,4.000000238,1.949473542857143,1.5979111714285714,0.0983506859999999,-3.733193,0.8651124,4.605025
401,4.010000238,1.4654207999999995,1.4659086,0.99011874,-3.7845042,0.5804576,5.143792
402,4.020000238,1.4654208,1.4659086,0.99011874,-3.7845042,0.5804576,5.143792
403,4.030000238,1.8397197142857145,1.3249248,1.2432955571428572,-2.81831836,0.0666041714285714,5.291093428571429
404,4.040000238,2.983477,0.97092048,1.7778883333333333,0.1042003933333333,-1.2856298333333334,5.294467566666667
405,4.050000238,3.2401671999999997,1.0124501714285714,1.2601606285714286,1.6356091142857143,-1.4585287428571427,3.5536692714285714
406,4.060000238,2.279716366666667,1.1820913666666666,-0.0309774133333333,2.26364735,-1.3414206,1.60637555
407,4.070000238,1.688025357142857,1.1872905428571427,-0.4438630257142857,1.8403301,-0.8535281485714286,0.6342557828571429
408,4.080000238,1.221301,1.14573245,-0.6845318333333333,1.4642517833333333,-0.5410579783333334,0.3212038399999999
409,4.090000238,0.9585315,1.0969237,-0.7638555,0.6243513314285715,-0.0043850042857142,0.1699464371428571
410,4.100000238,0.1028979874285714,0.9591021142857142,-0.7264056171428572,-0.3862736285714286,0.5186747685714286,0.2835640142857142
411,4.110000238,-0.060928352,0.8647456,-0.4606772933333333,-1.1077715333333331,0.7470152766666667,0.54436671
412,4.120000238,0.0019077782857142,0.780886157142857,-0.1174153957142857,-1.4966195,0.7736598585714286,0.7060958071428571
413,4.130000238,0.0584891846666666,0.74493165,0.1139802266666666,-1.6188471,0.7062921333333333,0.7121460666666666
414,4.140000238,0.02719235,0.74553565,0.3281855285714285,-1.4901619285714285,0.6340376428571428,0.6324450571428571
415,4.150000238,-0.0840394566666666,0.7705429333333332,0.5583862533333334,-1.03385895,0.5279247499999999,0.538461875
416,4.160000238,-0.1640775128571428,0.7822277171428571,0.6835546842857143,-0.6220606585714287,0.4589862642857142,0.5277283971428571
417,4.170000238,-0.20926307,0.7876722714285714,0.73291295,-0.2255335465714285,0.4066279242857143,0.5340114142857143
418,4.180000238,-0.2343734199999999,0.7943146,0.7384882,0.058946762,0.3874298599999999,0.5427378
419,4.190000238,-0.2849251657142856,0.8162671371428571,0.5919596057142857,0.7516693714285714,0.5434576942857142,0.6601949657142857
420,4.200000238,-0.162250325,0.84262545,0.41354547,1.1323581333333337,0.7865167783333332,0.7487969333333333
421,4.210000238,0.0279197357142857,0.8707956342857143,0.3536748228571428,1.398425657142857,0.9675602357142856,0.6905628457142857
422,4.220000238,0.3023042,0.88996047,0.3336170299999999,1.5554716333333332,0.9968517666666666,0.4698433533333333
423,4.230000238,0.4441330314285714,0.8778343114285715,0.3606003028571428,1.7254908,0.9164236,0.06872032
424,4.240000238,0.7759599085714285,0.8683912457142856,0.6357513771428572,2.3094607999999996,0.5089011857142858,-0.9852529942857144
425,4.250000238,0.77452685,0.9269443,0.62000568,2.9074802,0.1204896223,-1.55918765
426,4.260000238,0.9087812428571428,1.0428177714285716,0.4013561657142857,3.158538371428571,-0.0260264567142857,-1.7694063
427,4.270000238,0.9933899,1.1462559285714284,0.1817135631428571,3.248769285714286,-0.0255028742857142,-1.954929342857143
428,4.280000238,1.0906378833333334,1.2607596333333333,0.0026830833333333,3.2061846,0.03802524,-1.9800614
429,4.290000238,1.5166129,1.5797437571428572,-0.2221166042857143,2.6857426,0.6061132,-1.9922783
430,4.300000238,2.4248976499999997,2.00207815,0.2762813583333333,1.5756296499999998,1.582654383333333,-2.2549425833333334
431,4.310000238,3.0221884,2.0972564,0.9828012,1.4432794,1.6213413,-2.633668
432,4.320000238,3.3288070666666667,2.0458205333333335,1.59180015,2.4959727666666667,0.7260428683333333,-3.5990101666666665
433,4.330000238,3.4405536857142858,1.9151814285714284,1.33222054,3.330099214285714,0.4808022314285714,-4.171781185714286
434,4.340000238,3.4701589285714287,1.7376536857142857,0.8064712742857143,3.5821173571428573,0.9412065571428572,-4.405474
435,4.350000238,3.46672655,1.5431541,0.6023217500000001,3.616673950000001,1.51688645,-4.6354908
436,4.360000238,3.4559769142857144,1.2403772142857143,0.4809601171428572,3.608471142857143,1.7518881,-4.795870857142857
437,4.370000238,3.3616749,0.97856315,0.4009837499999999,3.617081066666666,1.7850484333333334,-5.122005166666667
438,4.380000238,3.235363014285714,0.8236369142857143,0.3288562842857143,3.6447728000000006,1.6335583,-5.2946715
439,4.390000238,2.9943821,0.6774176,0.16253997,3.625923842857143,0.9478386142857144,-5.456458571428571
440,4.400000238,2.6744241999999994,0.55341643,-0.15958248,3.4761791,0.3153499,-5.532902
441,4.410000238,2.114574514285714,0.4191708142857143,-0.6348933085714286,2.7298982142857144,-0.3244689771428571,-5.548260285714286
442,4.420000238,1.740696,0.3032799,-0.779588195,1.6240901333333333,-0.6273910333333333,-5.465301333333333
443,4.430000238,1.4191202285714286,0.0928364297142857,-0.58234671,0.3757801371428571,-0.3197567314285714,-5.243534685714286
444,4.440000238,1.1729342500000002,-0.1119729915,-0.262942167,-0.425455115,0.0435228649999999,-5.0619386
445,4.450000238,0.9013591857142856,-0.3007405414285714,0.118269094,-0.7323622442857143,0.3434488657142857,-4.890116171428572
446,4.460000238,0.70602695,-0.4156848166666667,0.3842195666666666,-0.7327113000000001,0.4454603566666666,-4.7797273166666665
447,4.470000238,0.54609895,-0.50646245,0.59671164,-0.5066978,0.46073154,-4.5995274
448,4.480000238,0.42319539,-0.6007667628571428,0.6913338614285715,0.028055342,0.3474630128571428,-4.390639057142857
449,4.490000238,0.21061188,-0.7744354233333333,0.49892138,0.90888982,0.2526362466666667,-4.072009733333333
450,4.500000238,0.0484915057142857,-0.8094897457142858,0.2277397671428571,1.2233743999999998,0.2933594,-3.9164472
451,4.510000238,-0.1706654533333333,-0.80720665,-0.0847051383333333,1.2862916,0.374602085,-3.626091166666667
452,4.520000238,-0.32197002,-0.8125169,-0.28626668,1.2013838,0.4912739,-3.1345627
453,4.530000238,-0.463248575,-0.81873679,-0.4345070833333333,0.67468077,0.7124006,-2.3086972
454,4.540000238,-0.46537992,-0.8240855542857143,-0.3541321714285714,0.390375015,0.7380561928571429,-1.8160052714285717
455,4.550000238,-0.4134184299999999,-0.8390225266666667,-0.2068616653333333,-0.0387888,0.7347983533333333,-0.9961900833333334
456,4.560000238,-0.2500102457142857,-0.8627420142857144,-0.0966737591428571,-0.1562459971428571,0.6069858342857143,-0.5243250914285714
457,4.570000238,-0.1443072,-0.8757219,-0.06320491,-0.1824251628571428,0.5022691571428571,-0.2744013028571428
458,4.580000238,-0.010335969,-0.89133245,-0.0453685,-0.189057225,0.3994432083333333,-0.1177917111666666
459,4.590000238,0.0450636054285714,-0.8784048857142857,-0.0433953892857142,-0.1787600871428571,0.2214539457142857,0.0380034284285714
460,4.600000238,0.025626494,-0.8716107833333333,-0.0589820991666666,-0.17561859,0.15286453,0.08460235
461,4.610000238,-0.032532386,-0.8571537000000001,-0.10616472,-0.18661384,-0.065818794,0.2470877199999999
462,4.620000238,-0.032532386,-0.8571537000000001,-0.10616472,-0.18661384,-0.065818794,0.2470877199999999
463,4.630000238,-0.1296213843333333,-0.8163687633333333,-0.2075883366666666,-0.3924693633333334,-0.3317409739999999,0.7932360533333332
464,4.640000238,-0.1527049042857142,-0.7189879428571428,-0.4131948428571428,-1.0145737114285711,-0.3080633714285714,1.692505057142857
465,4.650000238,-0.1664426333333333,-0.6436147733333333,-0.54243002,-1.4579906333333332,-0.0568597019999999,2.0940353333333332
466,4.660000238,-0.1735031457142857,-0.6132544171428572,-0.5558599328571429,-1.8640004285714284,0.2284350554285714,2.4864319142857143
467,4.670000238,-0.14956665,-0.55283713,-0.4225551199999999,-2.4064327999999997,0.65375927,3.09501025
468,4.680000238,-0.0345621242857142,-0.4499870514285714,-0.2070808931428571,-2.656705657142857,0.8410275828571429,3.453141314285714
469,4.690000238,0.19101724,-0.32953143,0.0305200739999999,-2.809592,0.85778224,3.8939986
470,4.700000238,1.0690519428571428,-0.08131136,0.3698473628571428,-2.4046875142857145,0.1689210828571428,4.017564342857143
471,4.710000238,1.6150333,0.2049204899999999,0.49640092,-1.8383448,-0.6277982599999999,3.7095227
472,4.720000238,1.6150332999999997,0.20492049,0.4964009199999999,-1.8383448,-0.62779826,3.709522699999999
473,4.730000238,1.6150333,0.2049204899999999,0.49640092,-1.8383448,-0.6277982599999999,3.7095227
474,4.740000238,1.66909125,1.5353487,-0.663804,-2.277544,-1.16419855,3.2593282
475,4.750000238,1.916845285714286,1.5812464428571429,-0.5332759114285714,-2.8881294428571427,-0.8293778885714287,3.282976685714286
476,4.760000238,2.102135,1.6133258,-0.28260794,-3.2078642999999993,-0.68277454,3.215958
477,4.770000238,2.0016282142857142,1.7035488857142858,-0.1058119171428571,-3.389024214285714,-0.8268035885714287,3.0005907142857144
478,4.780000238,1.7016019142857144,1.8531830714285713,0.1676273714285714,-3.7192308857142855,-1.1517088714285717,2.633384257142857
479,4.790000238,1.38904445,1.7912325000000002,0.25490816,-3.970201700000001,-1.23207895,2.7987494
480,4.800000238,1.4101649714285711,1.675894842857143,0.6070171328571429,-4.013833642857143,-1.1202284685714283,3.237948542857143
481,4.810000238,1.9983874857142856,1.5869175285714283,1.2422458071428573,-3.5412125,-1.0231037257142857,3.6742680857142855
482,4.820000238,2.6446665,1.5915969333333333,1.5242454,-2.875563533333333,-1.0696954,3.5189383
483,4.830000238,3.5494796571428573,1.5127886142857143,1.5698869428571427,-1.4175582857142857,-1.1258788,2.366356842857143
484,4.840000238,3.3473904,1.50693245,1.28919105,-0.4425588405,-1.16916165,1.1047936500000002
485,4.850000238,2.710624171428571,1.557333957142857,0.7598744071428571,0.234521701,-1.0989142142857142,-0.1227366428571428
486,4.860000238,2.0149447666666664,1.5480680333333332,0.1708433,0.3666101416666666,-0.9735378216666666,-0.5952706166666667
487,4.870000238,1.4847817714285714,1.4422705142857144,-0.3004095142857143,0.1058947357142857,-0.6780622871428571,-0.9911869285714284
488,4.880000238,0.9601430714285714,1.2135027714285715,-0.6226147057142857,-0.5381127857142858,-0.3415727057142857,-1.1082951
489,4.890000238,0.6494789666666666,0.9409695333333332,-0.5746371733333333,-1.2103938,-0.16355436,-1.0821159
490,4.900000238,0.4570084,0.7281522,-0.39779758,-1.2103938,-0.16355436,-1.0821159
491,4.910000238,0.4570084,0.7281521999999999,-0.39779758,-1.2103938,-0.16355436,-1.0821159
492,4.920000238,0.4570084,0.7281522,-0.39779758,-1.2103938,-0.16355436,-1.0821159
493,4.930000238,0.4570084,0.7281521999999999,-0.39779758,-1.2103938,-0.16355436,-1.0821159
494,4.940000238,0.3415748,0.5614657,-0.08686482,-2.5479749000000003,-0.4024829028571428,-1.0046255142857143
495,4.950000238,0.3415748,0.5614657,-0.08686482,-2.601904,-0.43599224,-1.001484
496,4.960000238,0.3415748,0.5614657,-0.08686482,-2.601904,-0.43599224,-1.001484
497,4.970000238,0.3415748,0.5614657,-0.08686482,-2.601904,-0.43599224,-1.001484
498,4.980000238,0.1770878522857142,0.4085909232857143,0.0304155414285714,-2.509055142857143,-0.6775823328571429,-0.9063663871428572
499,4.990000238,-0.48402217,-0.12845263,0.32581168,-1.7546587333333334,-1.3886594499999998,-0.1794872789999999
500,5.000000238,-0.3774218542857143,-0.17649113,-0.0758842231428571,-1.2714785285714283,-1.8812350428571427,0.5057379114285714
501,5.010000238,-0.2378695766666666,-0.1371421433333333,-0.4061619333333333,-1.4170637833333333,-1.9215218666666667,0.6907664666666666
502,5.020000238,-0.14089237,-0.12183637,-0.5732652,-1.7968072,-1.7067072,0.7895201
503,5.030000238,0.0227626471428571,-0.1349904485714285,-0.5472445242857144,-2.3875838000000003,-1.1847818714285714,0.7995336128571429
504,5.040000238,0.18979765,-0.15235645,-0.4409708699999999,-3.036827,-0.5679352,0.77119464
505,5.050000238,0.1482055057142857,-0.1138306848571428,-0.22872416,-3.104020257142857,-0.4593789285714286,0.7291334542857143
506,5.060000238,-0.0167489443333333,0.1235844433333333,0.5518004900000001,-3.12580725,-0.36248695,0.6895702183333334
507,5.070000238,0.178812706,0.2846725428571429,0.6581394571428572,-2.811337257142857,-0.7126405714285714,0.8244038371428571
508,5.080000238,1.0954603,0.6429949,0.6577213,-2.0668018,-1.4269392000000003,0.9668185
509,5.090000238,1.0954603,0.6429949,0.6577212999999998,-2.0668018,-1.4269392,0.9668185
510,5.100000238,1.0954603,0.6429949,0.6577212999999998,-2.0668018,-1.4269392,0.9668185
511,5.110000238,1.0954603,0.6429949,0.6577213,-2.0668018,-1.4269392000000003,0.9668185
512,5.120000238,1.3730766714285714,0.7296288571428572,0.5411378442857143,-1.9921038857142856,-1.4710947285714286,0.6334267857142858
513,5.130000238,2.0144519333333335,1.8368246,0.7417861876666666,-2.616360616666667,-0.7048159266666666,-0.8049949
514,5.140000238,2.9204709571428573,2.2772277142857145,1.6284268999999998,-2.4093996714285715,-0.3637377285714285,-1.0405783
515,5.150000238,3.7333581,2.1328988,1.7298265,-2.0338159,-0.36513394,-1.4803883000000002
516,5.160000238,3.667958,1.9925859,1.271507,-1.2140589,-0.23563433,-3.3190386
517,5.170000238,3.667958,1.9925859,1.271507,-1.2140589,-0.23563433,-3.3190386000000003
518,5.180000238,1.8798482857142855,1.956599357142857,0.4966883599999999,-1.4119734428571429,0.0847986871428571,-4.616609228571428
519,5.190000238,0.9875445714285714,1.8537493428571428,0.6683534171428571,-1.4449592,0.13820419,-4.832871
520,5.200000238,0.888497,1.8376073,0.718487,-1.4449592000000002,0.13820419,-4.832871
521,5.210000238,0.9163165571428572,1.7634174142857142,0.9981635857142857,-1.0274669142857142,-0.14263284,-4.365267385714286
522,5.220000238,1.4009862,1.3845015333333333,1.6753111,1.8448096333333333,-1.4631828333333334,-2.5697327333333333
523,5.230000238,1.453225,1.3055944,1.2915083,2.4768329,-1.4819155,-2.5689182
524,5.240000238,1.34445845,1.21032465,0.8381891600000001,2.6136626666666665,-1.4069849,-2.6218582666666665
525,5.250000238,1.1241072857142858,1.0484148257142858,0.1623265428571428,2.829379,-1.2302464142857144,-2.721804485714286
526,5.260000238,0.9824505933333332,0.954237545,-0.03066744,2.5334380666666667,-1.1104694000000002,-2.6625814333333335
527,5.270000238,0.83114606,0.81797457,-0.16936964,2.2312722,-1.0053018,-2.5738049
528,5.280000238,0.72696318,0.6584138285714286,-0.1991971728571428,1.8092641571428572,-0.9433445028571428,-2.403291257142857
529,5.290000238,0.6562883066666667,0.5039267466666667,-0.1956313383333333,1.5654487666666668,-0.91286035,-2.294240483333333
530,5.300000238,0.5905614657142857,0.2706865342857142,-0.1454483885714285,1.2860297857142855,-0.8079109571428571,-2.2069474857142857
531,5.310000238,0.4704542799999999,0.08363292,-0.05149691,1.1659547,-0.7548544999999999,-2.1950796
532,5.320000238,0.47045428,0.08363292,-0.05149691,1.1659547,-0.7548545,-2.1950796
533,5.330000238,0.4704542799999999,0.08363292,-0.05149691,1.1659547,-0.7548544999999999,-2.1950796
534,5.340000238,0.4704542799999999,0.08363292,-0.05149691,1.1659547,-0.7548544999999999,-2.1950796
535,5.350000238,0.47045428,0.08363292,-0.05149691,1.1659547,-0.7548545,-2.1950796
536,5.360000238,0.4704542799999999,0.08363292,-0.05149691,1.1804404999999998,-0.8362062714285715,-2.179546628571429
537,5.370000238,-0.0074089686,-0.71610886,-0.2215983,0.9570449599999998,-1.8887396999999997,-1.8053591
538,5.380000238,-0.0159808989428571,-0.7648486085714286,-0.2592311742857142,0.5788868514285715,-1.7892588428571428,-1.687029242857143
539,5.390000238,-0.017409554,-0.7729719,-0.26550332,0.5158605,-1.7726787,-1.6673076
540,5.400000238,-0.017409554,-0.7729719,-0.26550332,0.5158605,-1.7726787,-1.6673075999999998
541,5.410000238,-0.017409554,-0.7729719,-0.26550332,0.5158605,-1.7726787,-1.6673075999999998
542,5.420000238,-0.017409554,-0.7729719,-0.26550332,0.5158605,-1.7726787,-1.6673076
543,5.430000238,-0.017409554,-0.7729719,-0.26550332,0.5158605,-1.7726787,-1.6673075999999998
544,5.440000238,-0.017409554,-0.7729719,-0.26550332,0.5158605,-1.7726787,-1.6673076
545,5.450000238,-0.0817295071428571,-0.9235512542857144,0.1440023014285714,-0.6438766442857142,-1.6199669714285714,-0.5780796714285714
546,5.460000238,-0.08280971,-0.94063413,0.20428021,-0.74126315,-1.6175236,-0.4407263
547,5.470000238,-0.0389555246,-0.86404432,0.1872314516666666,-0.76895487,-1.9148025333333336,0.51392614
548,5.480000238,0.0035977708,-0.81568784,0.1659548,-0.78280073,-2.063442,0.99125236
549,5.490000238,0.098267935,-0.7451349500000001,0.025641741,-0.8414421,-2.0805457,1.3113364
550,5.500000238,0.3910550192857142,-0.5628682214285714,-0.2559861969999999,-1.6435718571428573,-1.623981057142857,2.037546485714286
551,5.510000238,0.6539275285714286,-0.4700317785714286,-0.2928001857142857,-2.203282485714286,-1.3080858285714283,2.4030077142857142
552,5.520000238,0.7542665999999999,-0.316481875,-0.178623222,-2.40521115,-1.3414206,2.5000451499999996
553,5.530000238,0.7696834157142857,-0.0901359265714285,0.0101269034285714,-2.408178142857143,-1.6548724428571429,2.5510073
554,5.540000238,0.7016466299999999,0.1295908919999999,0.1510860566666666,-2.232545,-2.2434383,2.6116266666666665
555,5.550000238,0.6105321642857142,0.4081205028571428,0.1494773622857142,-1.9821558,-3.0034486714285715,2.8152423714285715
556,5.560000238,0.7762292666666667,0.71918324,-0.0024391641666666,-1.8224628,-3.5209236,3.1328827999999995
557,5.570000238,1.2936121,0.89386314,-0.2965112,-1.8994296,-3.7640407,3.5311552999999996
558,5.580000238,2.025257642857143,1.1179702485714285,-0.7225552742857142,-2.998431042857143,-3.2242264,3.4128254
559,5.590000238,2.3284896500000003,1.2387003,-0.7157887500000001,-4.630018433333333,-2.4947002333333335,3.1141502333333335
560,5.600000238,2.2955913285714287,1.2760021857142856,-0.2755474331428571,-5.431326428571429,-2.280380114285714,2.971444657142857
561,5.610000238,2.233667,1.3021492,-0.045124583,-5.767467,-2.2149322,2.9154211999999995
562,5.620000238,2.233667,1.3021492,-0.045124583,-5.767467000000001,-2.2149322,2.9154212
563,5.630000238,2.233667,1.3021492,-0.045124583,-5.767467000000001,-2.2149322,2.9154212
564,5.640000238,2.233667,1.3021492,-0.045124583,-5.767467,-2.2149322,2.9154211999999995
565,5.650000238,1.9655850714285716,1.2563102285714287,1.1966726214285717,-5.392057899999999,-3.742748371428571,4.077427385714286
566,5.660000238,1.9125202,1.0883867,1.1096989,-4.6337347,-4.0926766,4.700317
567,5.670000238,1.8628047,0.9009889714285714,1.0802285571428574,-4.157644642857143,-3.678522128571429,4.975547285714286
568,5.680000238,2.1261911,0.73243607,1.1253096,-3.30621075,-2.4159009,4.8017175
569,5.690000238,2.426382785714286,0.69539774,1.1329581,-2.792662742857143,-1.607357271428571,4.314785
570,5.700000238,2.533235742857143,0.6982550371428572,1.2600299428571429,-2.041495142857143,-0.9178634571428572,3.1896044000000003
571,5.710000238,2.266229766666666,0.7055493199999999,1.2253661666666666,-1.3060932766666669,-0.8795182333333335,2.1388308
572,5.720000238,1.442131242857143,0.7166533314285715,0.8468133628571428,-0.49448084,-1.3059914142857143,1.1208611285714285
573,5.730000238,0.796982515,0.71522465,0.4666278299999999,-0.072996245,-1.843537,0.6685723500000001
574,5.740000238,0.3440357657142857,0.7034469600000001,0.1949024731428571,-0.0176709397142857,-2.1405832428571427,0.670186742857143
575,5.750000238,0.0137863741666666,0.6865594,-0.0041669108333333,-0.114533864,-2.3090026,0.8605310999999999
576,5.760000238,-0.12430603,0.6700696,-0.073937245,-0.4920374642857142,-2.3133658285714285,1.384288971428571
577,5.770000238,-0.0001785808571428,0.660417457142857,-0.0057059074285714,-0.8578477214285715,-2.044243942857143,1.7986179142857142
578,5.780000238,0.2280315933333333,0.66039425,0.0792525933333333,-1.1289475333333334,-1.5307323333333336,1.9242197333333333
579,5.790000238,0.28417163,0.6961120571428571,0.1025059814285714,-1.3856197428571428,-0.7796374628571429,1.8525469714285712
580,5.800000238,0.169415375,0.76794115,0.156929885,-1.5732371,-0.24540789,1.8110094
581,5.810000238,0.0830318491428571,0.8429760142857142,0.2496399885714285,-1.6823169714285715,-0.0047340657142857,1.8668583142857145
582,5.820000238,0.1176854325714285,0.9573947428571428,0.4334355485714286,-1.7228074714285715,0.0580959364285714,2.0740227714285715
583,5.830000238,0.3780708400000001,1.01138525,0.58218335,-1.6310640333333335,-0.0157293166666666,2.1860696333333336
584,5.840000238,0.5978092714285715,1.037412442857143,0.6747344857142857,-1.4189546142857143,-0.1064837685714285,2.1029944428571428
585,5.850000238,0.81057426,1.0926595857142858,0.7588116928571429,-1.1515780071428572,-0.1544789114285714,1.8406791571428571
586,5.860000238,0.94363738,1.153299,0.784497,-0.65370839,-0.03324027,1.1422844
587,5.870000238,0.9922094857142856,1.166191757142857,0.776987842857143,-0.1323356957142857,0.34065644,0.2947338207142857
588,5.880000238,1.06054965,1.1430392,0.74033285,0.275186685,0.6965186000000001,-0.3607053174999999
589,5.890000238,0.9994964714285716,1.0965622,0.6567151885714286,0.4718795,0.8492304,-0.67895675
590,5.900000238,0.8904483,1.0661598,0.58573544,0.4718795,0.8492304,-0.67895675
591,5.910000238,0.8904483,1.0661598,0.58573544,0.4718795,0.8492304,-0.6789567499999999
592,5.920000238,0.8904483,1.0661598,0.58573544,0.4718795,0.8492304,-0.67895675
593,5.930000238,0.8904483,1.0661598,0.58573544,0.4718795,0.8492304,-0.6789567499999999
594,5.940000238,0.8904483,1.0661598,0.58573544,0.4718795,0.8492304,-0.67895675
595,5.950000238,0.6958231333333335,1.0474594666666668,0.4653269566666666,0.9443953333333334,1.0569184,-1.4537147083333333
596,5.960000238,0.6568981,1.0437194,0.44124526,1.0388985,1.098456,-1.6086663
597,5.970000238,0.6568981,1.0437194,0.44124526,1.0388985,1.098456,-1.6086663
598,5.980000238,0.6568981,1.0437194,0.4412452599999999,1.0388985,1.098456,-1.6086663
599,5.990000238,0.6568981,1.0437194,0.44124526,1.0388985,1.098456,-1.6086663
600,6.000000238,0.6568981,1.0437194,0.4412452599999999,1.0388985,1.098456,-1.6086663
601,6.010000238,1.8024179285714288,1.3883127000000002,0.9806278057142858,1.0465558928571428,1.1333615885714283,-1.9603397714285715
602,6.020000238,4.094527533333333,1.6278795333333334,2.4378048666666667,2.1331295666666663,1.6742814,-3.7775813333333335
603,6.030000238,4.0055298142857145,1.369165242857143,2.297019728571428,3.084713285714286,1.5689830285714286,-4.175446428571429
604,6.040000238,3.744617557142857,1.0678149857142858,1.7228052714285715,4.014946414285714,1.5899263285714285,-4.493806714285715
605,6.050000238,3.6147537,0.8687397,1.3520302,4.5133977,1.7532843,-4.600749
606,6.060000238,3.489593914285714,0.5854697,0.9992003428571428,4.754246128571429,1.9583545142857144,-4.622565000000001
607,6.070000238,3.174448416666667,0.1104790079999999,0.4068275933333333,4.804160866666667,1.9569000999999997,-4.707850766666667
608,6.080000238,2.8161095428571428,-0.0822478254285714,0.0386695042857142,4.547779614285714,1.6525818,-4.885403642857143
609,6.090000238,2.4389228285714286,-0.1496385171428571,-0.2493046285714286,4.098894199999999,1.2876441571428572,-5.082794728571429
610,6.100000238,2.0615532,-0.1868401733333333,-0.4634416933333333,3.5116082,1.03533518,-5.216890133333334
611,6.110000238,1.687306657142857,-0.2388902485714285,-0.5684478114285714,2.631115428571429,0.9422537085714284,-5.251039285714286
612,6.120000238,1.4101940666666666,-0.3166953066666667,-0.5369622266666667,2.04822175,0.9858565666666668,-5.205080383333333
613,6.130000238,1.3255956,-0.35688058,-0.500517,1.5666705,1.1131164,-5.1114173
614,6.140000238,1.0892759333333333,-0.54784698,-0.1507252583333333,0.8359445,1.4344221,-4.81088
615,6.150000238,0.9271316071428573,-0.6697124099999999,0.2478236685714285,0.8118596428571428,1.4260447285714284,-4.676842828571429
616,6.160000238,0.7486615799999999,-0.9058048666666666,0.8816672899999999,1.4546818333333331,1.0017386666666666,-4.441572399999999
617,6.170000238,0.68014422,-1.079374842857143,0.8495399828571429,2.431804742857143,0.6048914971428572,-4.375629771428571
618,6.180000238,0.5911523666666667,-1.1506667666666666,0.6622642733333334,3.15853845,0.34528142,-4.350148699999999
619,6.190000238,0.5081176114285715,-1.1717801142857145,0.4635941128571428,3.3869953,0.2506001,-4.3342667
620,6.200000238,0.4399341899999999,-1.1954181428571429,0.170214635,3.5594288142857144,0.0523365192714285,-4.246653771428571
621,6.210000238,0.4031739266666667,-1.2240551,-0.0238225299999999,3.451745133333333,0.0156275092,-4.188478
622,6.220000238,0.3217609285714286,-1.2417797571428573,-0.2009699171428571,3.1690100571428568,0.0741524935714285,-4.111220371428571
623,6.230000238,0.2055861816666666,-1.2516177833333335,-0.3165174533333333,2.7869396666666666,0.1715971749999999,-3.9879163166666665
624,6.240000238,0.0367486557142857,-1.252860557142857,-0.3568195785714286,2.2939277857142857,0.2956282657142856,-3.762339171428571
625,6.250000238,-0.1648114466666666,-1.2067675166666667,-0.3212280916666667,1.8708725,0.3678827599999999,-3.4900758
626,6.260000238,-0.3590976157142857,-1.1094724571428571,-0.29246918,1.082835897142857,0.3399583228571429,-2.638729142857143
627,6.270000238,-0.4228731185714285,-1.0058296285714283,-0.2895291014285713,0.6479780285714286,0.3500809342857143,-2.1069430571428573
628,6.280000238,-0.372735175,-0.934886865,-0.2492828499999999,0.2039211766666666,0.3870226466666666,-1.5638708
629,6.290000238,-0.3175011085714286,-0.9092777785714284,-0.175228,-0.1504865842857143,0.4371702971428571,-1.1007904285714285
630,6.300000238,-0.2627439866666666,-0.8710416666666667,-0.0198893725,-0.3704788583333334,0.4548266866666666,-0.7066484833333333
631,6.310000238,-0.2016493928571428,-0.8036923571428571,0.1589247828571428,-0.4096603571428571,0.4211137457142856,-0.2389721714285714
632,6.320000238,-0.1674487966666666,-0.771422025,0.25933933,-0.2405720233333333,0.4108456783333333,0.1287869583333333
633,6.330000238,-0.2538214442857143,-0.7140834428571428,0.3760541828571428,0.2530216657142857,0.4050571842857143,0.6092546571428572
634,6.340000238,-0.3205195771428571,-0.6843996857142857,0.2820373614285714,0.5488680714285714,0.3656138914285714,0.9333091714285714
635,6.350000238,-0.5488633066666667,-0.55030648,-0.2507869966666666,1.00306211,0.42123008,1.9567983333333336
636,6.360000238,-0.727329,-0.40468824,-0.45417285,0.98758733,0.5157078,2.5293658
637,6.370000238,-0.6698968000000001,-0.1169275539999999,-0.6389956216666667,0.7685730966666666,0.4882196666666667,3.4171304666666664
638,6.380000238,-0.5188151285714286,0.0739938654285714,-0.7573438285714287,0.1353899285714285,-0.0249792928571428,4.716198928571429
639,6.390000238,-0.2597494814285714,0.2836925,-0.7984394357142858,-0.4426461142857142,-0.7098699785714286,5.5000032857142855
640,6.400000238,-0.13381879,0.35160586,-0.78434455,-0.8842013999999999,-1.2265813,6.100379
641,6.410000238,0.7128943685714286,0.2768541428571429,-0.5873992685714287,-1.503600557142857,-1.5669105142857145,7.019922285714285
642,6.420000238,1.2799527428571429,0.2434201314285714,-0.5131135571428571,-1.937302114285714,-1.323553317142857,7.465338828571428
643,6.430000238,1.5035023999999997,0.26836932,-0.4700274199999999,-2.1327732,-0.96742934,7.5274706
644,6.440000238,1.7277837,0.4667955,-0.23476979,-2.445527,-0.35291702,7.407745
645,6.450000238,2.04454,0.6161335,-0.07564466,-2.6886442,-0.0035123718,6.982595
646,6.460000238,1.7966945571428572,0.7421033971428572,0.36680276,-2.455475085714286,0.2045247583142857,6.656577171428572
647,6.470000238,1.5301808,0.8399270200000001,0.71433028,-1.7300213,0.2860292333333333,6.6006116666666665
648,6.480000238,1.195997557142857,0.9566237228571428,0.8593358342857143,-0.9199796214285716,0.1345391085714285,6.837387757142857
649,6.490000238,1.1093634666666663,1.0169495766666663,0.553264,0.2255044333333333,-0.15011571,7.7990942
650,6.500000238,1.5925013714285714,0.8757000628571429,0.1936001501428571,0.8323229714285715,-0.1176535388571428,8.547585714285715
651,6.510000238,1.9801589714285712,0.7518252628571428,-0.0197703168571428,1.1010303142857143,0.0680440192857142,8.96156557142857
652,6.520000238,2.4659365666666666,0.5173015366666667,-0.21939288,1.1122001566666666,0.3086305749999999,8.926514166666665
653,6.530000238,2.6534474,0.33306822,-0.39755368,0.94116294,0.5865661,8.616
654,6.540000238,2.728274066666667,0.24845962,-0.49354503,0.5307499233333334,0.8736642666666666,8.173135833333333
655,6.550000238,3.000331857142857,0.3611229942857142,-0.0511658671428571,-0.29691539,0.9698291142857144,6.479191257142857
656,6.560000238,3.003488133333333,0.5221951033333333,0.3619317033333333,-0.421790035,0.3239017675,4.6410648
657,6.570000238,2.7373634285714283,0.6746168671428572,0.5250916328571428,-0.3127974371428571,-0.3183605035714286,3.324514371428571
658,6.580000238,2.1134464,0.7747533714285714,0.4242582085714286,-0.2534579857142857,-0.8524155485714286,1.8769808285714285
659,6.590000238,1.065062175,0.95488805,0.33556837,-0.46027342,-0.674833525,1.00346935
660,6.600000238,0.5552327614285715,1.0567210857142857,0.3463703814285714,-0.6307870628571429,-0.2892143685714286,0.9964882285714286
661,6.610000238,0.3755097083333333,1.0868368333333334,0.3869788583333333,-0.8842013999999999,0.5401417,1.5776658
662,6.620000238,0.9599951,1.044939,0.6172006,-1.0808942,1.9536422,2.4133048
663,6.630000238,1.1182359333333334,1.0624196666666668,0.7337471,-0.9689055333333334,2.0829383666666668,2.345093466666667
664,6.640000238,1.2407257,1.2024569142857142,1.619580542857143,0.318535014,0.7459100028571427,1.6942503428571432
665,6.650000238,1.291660757142857,1.2414312714285711,1.8269533,1.5741751571428573,-0.6353466,1.1105857828571428
666,6.660000238,1.2373994,1.1654846666666667,1.4341182666666663,2.7162850166666668,-1.7576111833333332,0.501200155
667,6.670000238,1.0279824857142856,1.1099906857142856,0.8223345542857142,3.7398905857142855,-2.2418095428571427,-0.39011325
668,6.680000238,0.9351867,1.0965528,0.5734277716666666,3.931871166666667,-2.1338932833333337,-0.7115352833333333
669,6.690000238,0.7956910714285714,1.0172893457142858,0.2362376485714285,3.903772157142857,-1.5608020428571427,-1.2039363857142855
670,6.700000238,0.7081002750000001,0.9176653416666666,0.1300025083333333,3.7089118833333337,-0.9905652566666666,-1.4734654
671,6.710000238,0.6017076285714286,0.7788695014285715,0.2827299114285714,3.4585518285714287,-0.3513462585714286,-1.6069209142857144
672,6.720000238,0.60466945,0.74452513,0.39096794,3.404099,-0.11468657,-1.62577
673,6.730000238,0.7015652999999998,0.64201915,0.71141344,3.528711885714286,-0.1104979057142857,-1.6948829714285714
674,6.740000238,0.8575151714285715,0.4505445628571428,0.8807831057142856,3.9913851,-0.4033555421428571,-1.8952408571428572
675,6.750000238,1.1579740833333334,0.2694059533333333,0.9003320499999999,4.4315443,-0.6485671,-2.1547637
676,6.760000238,1.0818576142857144,0.1921061485714285,0.8064887542857143,4.608689714285715,-0.75153845,-2.623545371428571
677,6.770000238,0.9063029,0.22104947,0.76656914,4.5341665,-0.71861087,-2.6701152666666665
678,6.780000238,0.8679949142857143,0.3254850071428571,1.0023015285714287,4.300473885714285,-0.4216809428571428,-2.2083437142857143
679,6.790000238,1.1823352333333332,0.4132659666666667,1.7174477999999995,4.2993975,-0.3991377733333333,-1.7660612333333334
680,6.800000238,2.060403242857143,0.5103041571428572,2.561173,5.1423958,-0.8302504714285713,-1.0196349571428571
681,6.810000238,2.9584956,0.4909433,2.827543,5.961127342857142,-1.0648376142857143,-1.0077670714285714
682,6.820000238,3.5320048000000006,0.4526483700000001,2.870015,6.4597096,-1.1215155,-1.2140589
683,6.830000238,4.421447028571429,0.4283699357142857,2.318380142857143,7.437065385714285,-0.9948738214285714,-2.148655257142857
684,6.840000238,4.610360466666666,0.4179816966666667,1.7440550666666663,7.943457533333333,-0.4742719916666666,-3.3214818833333335
685,6.850000238,4.346499285714286,0.4550396114285714,1.0014478142857144,7.596060128571429,0.2443170857142857,-3.7794427857142856
686,6.860000238,4.1556690000000005,0.5135360583333334,0.7697298333333333,7.205350666666667,0.63543385,-3.6934878666666666
687,6.870000238,4.110378885714286,0.5233798428571429,0.6581220428571429,6.7897419,0.6314196857142856,-3.569311342857143
688,6.880000238,4.005612742857143,0.5577198400000001,0.5196121942857143,6.304009171428572,0.2195341371428571,-3.7042215
689,6.890000238,3.8308586333333334,0.6578331166666667,0.3900684916666666,5.546544,-0.3918076166666666,-4.091760366666667
690,6.900000238,3.7850988,0.674704,0.3123963,4.927552,-0.6106945,-4.3696957
691,6.910000238,3.781923542857143,0.6348236242857143,0.3126053657142857,4.927552,-0.6106945,-4.3696957
692,6.920000238,3.5700761666666665,0.258058745,0.3516922683333334,3.66309825,-0.4559465583333333,-5.462221783333334
693,6.930000238,3.1487943714285715,0.011398748,0.3944219757142857,2.8494497142857145,-0.245582405,-6.310073914285715
694,6.940000238,2.2372189,-0.45435578,0.429903135,1.7199931,0.2218902625,-7.3972077
695,6.950000238,1.780339,-0.6828403571428572,0.4557495857142857,1.1014884971428571,0.5471227857142856,-7.833352442857143
696,6.960000238,1.5176495,-0.8339815,0.49323,0.83472276,0.7111788999999998,-7.9799557
697,6.970000238,1.2058935,-1.0081249857142858,0.5462949428571429,0.5265067028571428,0.9651168571428572,-8.087988728571428
698,6.980000238,0.8395205233333334,-1.2046841333333334,0.6045983,0.2141019716666666,1.2330461166666666,-8.174409333333333
699,6.990000238,0.6976539614285714,-1.296225457142857,0.5925563857142857,0.0882674288571428,1.3778751000000002,-8.112247714285715
700,7.000000238,0.60352388,-1.3990189,0.5314726428571429,0.0144421742857142,1.4897474142857143,-8.006832914285715
701,7.010000238,0.544589655,-1.4559843833333332,0.51750475,-0.03268033,1.5578132,-7.9090977
702,7.020000238,0.46264893,-1.5238998,0.562045,-0.049784053,1.5089455,-7.708739799999999
703,7.030000238,0.3676738716666666,-1.5993616333333334,0.6706387500000001,0.0516165939999999,1.3733373999999998,-7.392320600000001
704,7.040000238,-0.23606342,-1.4956534571428572,0.9461440542857142,0.6489379714285715,1.434247514285714,-6.397861657142856
705,7.050000238,-0.5455907666666667,-1.35244675,1.0349180833333331,0.9301677,1.5211624,-5.9910374
706,7.060000238,-0.7461193142857143,-1.2379729285714285,0.9658751714285714,1.6357835571428574,1.6295441571428573,-4.883091299999999
707,7.070000238,-0.8063710742857142,-1.1762315571428572,0.7866443228571428,2.0364993142857144,1.6965628714285714,-4.1012723285714285
708,7.080000238,-0.8662903399999999,-1.1018630333333337,0.6359924066666667,2.3615864,1.7219275000000005,-2.9956967999999997
709,7.090000238,-0.8435466,-1.0617822857142856,0.5203439714285715,2.5091205142857143,1.6731760714285715,-1.9688916142857145
710,7.100000238,-0.8144682383333334,-1.0523225833333332,0.4336736566666667,2.5407682,1.63457635,-1.290618533333333
711,7.110000238,-0.7441767071428572,-0.9802749285714284,0.2935972514285714,2.3337201142857142,1.4738653428571429,-0.0892273371428571
712,7.120000238,-0.5257624,-0.9689285,0.18135203,2.144532,1.358677,0.49997848
713,7.130000238,0.05506419,-1.0528969,0.024422156,1.7987925,1.2817103,0.70522314
714,7.140000238,0.6211860557142856,-1.1010007,-0.2337113605714285,0.7902400228571428,1.7298976714285714,0.16732852
715,7.150000238,0.61442608,-1.1271593333333334,-0.3022025766666666,-0.1076109333333333,2.6272032000000003,-0.4529432233333333
716,7.160000238,0.1743133057142857,-1.0946196857142858,-0.2643054871428571,-0.6515558857142858,3.370633342857143,-0.798857297142857
717,7.170000238,-0.5290044766666666,-0.9471386,-0.2327371566666666,-1.2474519666666666,4.2345966666666675,-0.7762850866666667
718,7.180000238,-1.1284151685714283,-0.8034658571428571,-0.2157660728571428,-1.6154728142857144,4.766310285714286,-0.3321700142857143
719,7.190000238,-1.3950509,-0.744891,-0.18619989,-1.8880270666666668,5.110246433333334,0.5452320999999999
720,7.200000238,-1.6278780714285712,-0.5890543714285714,0.0495542837142857,-1.965401,5.1925073,1.2685771
721,7.210000238,-1.4589876,-0.36810076,0.33703187,-1.741831,5.0019226,2.5232573
722,7.220000238,-1.4589875999999995,-0.3681007600000001,0.3370318699999999,-1.741831,5.0019226,2.5232573
723,7.230000238,-0.0345969857142857,0.0075004342857142,0.2285804028571428,-1.315634085714286,4.667876771428571,4.190695728571429
724,7.240000238,1.1525469333333334,0.2936045333333333,0.2687047133333333,-0.9632043333333334,3.852562466666667,4.942619833333333
725,7.250000238,1.4274090857142858,0.4976379142857143,0.1752759094285714,-0.8231166571428571,3.241482714285714,4.676057642857143
726,7.260000238,1.3777175833333333,0.6713450166666667,-0.0516087008333333,-0.8296323499999999,2.8202308166666668,4.456588833333334
727,7.270000238,1.0238707142857144,0.8748419714285713,-0.1954120917142857,-1.1603043857142856,2.631333728571429,4.512175971428571
728,7.280000238,0.76420111,1.1102528333333332,-0.0366891316666666,-1.5312922666666668,2.5176579333333335,5.149085933333333
729,7.290000238,0.9768383285714286,1.337521442857143,0.4111302571428571,-1.6844112857142857,2.2756459999999996,6.020837771428572
730,7.300000238,1.7508468571428573,1.3681286285714285,0.7042571071428572,-1.6151238142857145,1.9459629571428572,6.7178366
731,7.310000238,2.507189,1.2996897166666666,0.74468265,-1.3857070833333331,1.6618609,6.966916666666667
732,7.320000238,3.0046265,1.2067473,0.6120784,-1.217724,1.5712519,6.62586
733,7.330000238,2.969075666666667,1.169651633333333,0.6176885,-1.2352349666666669,1.6457752666666667,6.468261433333333
734,7.340000238,3.063475885714286,1.0599398857142857,1.2288782857142857,-0.8723335228571428,1.8806896285714283,5.675425471428572
735,7.350000238,3.1719075999999995,1.1420788,1.57007635,-0.1259363466666666,1.5867266999999998,5.108770166666667
736,7.360000238,2.8847937142857143,1.355584285714286,1.5169657571428572,0.8572804857142857,0.8319521971428571,4.532246642857143
737,7.370000238,2.556216228571429,1.6290062000000003,0.9724958285714288,1.843297014285714,-0.0804791257142857,4.309549114285715
738,7.380000238,2.61997495,1.6366199833333337,0.6191164216666667,2.1139896666666664,-0.3223746333333333,4.144853133333334
739,7.390000238,2.7554873285714288,1.5922662285714286,0.28761261,2.200381071428571,-0.3754310785714286,3.764498871428571
740,7.400000238,2.7002947,1.56947165,0.195941315,2.12722475,-0.1983726483333333,2.96367805
741,7.410000238,2.5163446428571428,1.511603928571429,0.1642038328571428,1.997928642857143,0.1603692228571428,2.0096219142857144
742,7.420000238,2.1521683,1.3668480999999997,0.06296099,1.8146745,0.6452074,0.9582666
743,7.430000238,1.3190969714285714,1.1795200857142858,0.2173471785714285,1.6282788428571429,1.186069,-0.0696584162571428
744,7.440000238,0.7900330085714286,1.0288710457142858,0.3396626885714285,1.6315948571428571,1.3721156285714289,-0.5475373071428572
745,7.450000238,0.3703874666666666,0.8544096166666666,0.43532013,1.766824816666667,1.3362793000000002,-0.7339329600000001
746,7.460000238,0.1326035585714285,0.72328695,0.5051557928571428,2.100900157142857,1.0792580285714286,-0.7836734200000001
747,7.470000238,0.0549066591666666,0.62062564,0.5640420783333333,2.3381706833333333,0.8919896916666668,-0.7819863100000001
748,7.480000238,0.10046318,0.54048884,0.61183447,2.6344316,0.67819315,-0.80845636
749,7.490000238,0.39087647,0.4987486,0.559118,3.0840151,0.53403324,-1.1224319
750,7.500000238,0.39087647,0.4987486,0.559118,3.0840151,0.53403324,-1.1224319
751,7.510000238,0.472634285,0.507057,0.503108635,3.151411833333333,0.7142331766666666,-1.4182855666666667
752,7.520000238,0.43993422,0.50362694,0.011494573,2.852940385714286,1.679633637142857,-2.1695985285714285
753,7.530000238,0.0951275008571428,0.4846711071428571,0.29482992,2.3965502142857145,2.583513071428572,-2.2875794285714286
754,7.540000238,-0.0742370533333333,0.4677660933333333,0.8063885083333333,2.452602716666666,2.790095916666667,-2.0690415499999997
755,7.550000238,-0.0746472182857142,0.3632485657142857,1.4150651571428572,3.0557416999999996,2.635522257142857,-1.720538642857143
756,7.560000238,0.017257104,0.30523124,1.5658231,3.9196541,2.3433628,-1.3948697
757,7.570000238,0.7797101357142857,0.2449054228571428,1.3688559714285715,5.204527714285715,2.1848916285714286,-1.2723512571428572
758,7.580000238,1.3970835666666668,0.4152884699999999,1.101060183333333,5.850974916666666,2.224044033333333,-1.5384188833333334
759,7.590000238,1.5601215,0.61832875,0.91688275,6.273139285714286,2.3013015,-2.036957357142857
760,7.600000238,1.5601215,1.0700624,0.55594707,6.245912999999999,2.3494713,-2.1510987
761,7.610000238,1.8632184,1.4729823,0.3890166,6.003865,2.3421412,-2.20974
762,7.620000238,2.3693412,1.639895242857143,0.5540000714285714,5.865988000000001,2.278264,-2.4118431714285715
763,7.630000238,2.5943077999999997,1.750966,0.4135911933333333,5.0442240499999995,2.1533893,-4.163916599999999
764,7.640000238,2.562039557142857,1.8083806857142857,0.2157922028571428,4.610958928571428,2.3672730857142854,-4.704418214285714
765,7.650000238,2.3999113333333333,1.8658660166666667,0.06980082,3.9613954166666665,2.6257778,-5.1376835000000005
766,7.660000238,2.048717085714286,1.9237053714285717,0.2600325985714286,2.953468285714286,2.7243569,-5.3479019999999995
767,7.670000238,1.8346541142857145,1.9154122,0.5528806928571429,2.416969942857143,2.6559420714285715,-5.2379495714285715
768,7.680000238,1.7166246333333337,1.8506975,1.0036866,2.1852552,2.465125066666667,-4.8809241000000005
769,7.690000238,1.7794156428571426,1.690917557142857,1.3750323142857144,2.320456,2.2615092,-4.590975300000001
770,7.700000238,1.904227,1.5200886999999998,1.5362786,2.6704714666666667,2.065427316666667,-4.552695416666666
771,7.710000238,1.8744388,1.3063261999999998,1.3239491,3.0950103000000007,1.8730104,-4.568985
772,7.720000238,1.7632787500000002,1.2095116283333331,0.9743606766666668,3.1644433000000003,1.8870598833333336,-4.56470895
773,7.730000238,1.5865603142857143,0.9517846814285714,0.3803183585714285,3.0669115,1.9573073,-4.5653195
774,7.740000238,1.4337900857142856,0.6576821128571428,0.1753063871428571,2.4325028285714287,1.9915148,-4.6766682
775,7.750000238,1.2955633,0.45947802,0.11567748,2.156749,1.9915148,-4.719253
776,7.760000238,1.0707942,0.17687008,0.14936846,1.6684201857142855,1.8616661285714289,-4.705465342857143
777,7.770000238,0.88020384,-0.1384532,0.16278389,1.3699777,1.7349589,-4.608079
778,7.780000238,0.4762778142857143,-0.5602548071428571,0.20410163,0.9477295742857142,1.9206564571428573,-4.120644671428571
779,7.790000238,0.18556977,-0.7576661466666668,0.23502388,0.861192845,2.040789733333334,-3.85862025
780,7.800000238,0.09119435,-0.79492444,0.23894686,0.81639737,2.1527784,-3.557269
781,7.810000238,-0.1756592,-0.94627475,0.2403755242857142,0.8124050471428571,2.307060942857143,-3.049916842857143
782,7.820000238,-0.3221376933333333,-1.0638782,0.237031115,0.92731704,2.520508533333333,-1.9364876333333332
783,7.830000238,-0.3676826,-1.1220602285714285,0.19026808,1.0095778,2.5498292,-1.4852751000000002
784,7.840000238,-0.37249124,-1.1490304,0.13546522,1.1341907,2.4643106,-0.82311666
785,7.850000238,-0.3223925042857143,-1.1505287714285717,0.0663584022857142,1.175553742857143,2.3117733,-0.4230989828571428
786,7.860000238,-0.1428828985714285,-1.1444308857142858,-0.1033291971428571,1.1870725714285717,2.017344857142857,0.3066016928571429
787,7.870000238,-0.0384676916666666,-1.1197503,-0.2241899033333333,1.0690336233333333,1.8726032,0.5952706666666666
788,7.880000238,-0.0178625401428571,-1.072471042857143,-0.3053357528571429,0.8688647928571429,1.767072,0.7897382571428572
789,7.890000238,-0.0424567458333333,-1.014322408333333,-0.3519514133333333,0.6575771,1.694643,0.8971819
790,7.900000238,-0.08354146,-0.95453745,-0.3741071799999999,0.44744563,1.6384449999999997,1.0217948
791,7.910000238,-0.095493376,-0.87718534,-0.3831320999999999,0.0015271180999999,1.5052804,1.3259966
792,7.920000238,-0.1572739794285714,-0.8119811828571428,-0.3621465571428571,-0.3597453917,1.4009127142857145,1.6202505142857144
793,7.930000238,-0.2317426028571428,-0.7110432271428572,-0.2987979257142857,-0.7903054642857142,1.2377291857142858,2.077687842857143
794,7.940000238,-0.2604725,-0.66168493,-0.25306356,-0.9123004,1.186418,2.2300506
795,7.950000238,-0.1739866242857142,-0.5870987114285714,-0.14317909,-1.1372667428571428,0.92619712,2.667242757142857
796,7.960000238,0.03664848,-0.53940645,-0.12750744,-1.3378572999999998,0.6863378099999999,3.0909380333333334
797,7.970000238,0.2309977957142857,-0.4856075714285714,-0.1629798885714286,-1.5470579428571427,0.6303725714285715,3.381410457142857
798,7.980000238,0.42310396,-0.3981025,-0.23794071,-1.7493647833333337,0.7160657333333335,3.5169022
799,7.990000238,0.4016088,-0.23068418,-0.36337486,-2.0069387,0.8932114,3.5555892
800,8.000000238,0.3515536171428571,-0.1361316314285714,-0.4321245228571428,-2.1381836142857145,0.9518527428571428,3.5960796
801,8.010000238,0.8436670999999999,0.3186568,-0.3027717299999999,-3.35813285,1.37455905,4.0125028
802,8.020000238,1.6186571571428572,0.5711396,0.0982505014285714,-3.597235957142857,1.2447104,3.727848
803,8.030000238,2.248449416666667,0.9032641,0.6084145416666666,-3.5499389166666666,0.9622371783333334,3.16627575
804,8.040000238,2.2944502,1.4945994142857142,1.3777545857142857,-2.8572381428571427,0.1436145542857143,1.9717494714285717
805,8.050000238,2.0572238,1.7551025000000002,1.6893059,-2.397881,-0.1537808,1.7120521
806,8.060000238,1.5968266857142857,2.1221273571428574,1.703588157142857,-0.8979890885714286,-0.6736990428571429,1.9356223571428572
807,8.070000238,1.5317154000000002,2.2566355999999996,1.4334576,-0.0098753666666666,-0.4640911866666666,2.4984163333333336
808,8.080000238,1.5562667142857145,2.327152257142857,1.2276587428571428,0.28984702,-0.29794076,2.781035
809,8.090000238,1.653088557142857,2.348643142857143,0.9806888214285714,0.5999828671428572,-0.0857149585714285,3.1293923
810,8.100000238,1.6955563,2.38084,0.69872975,0.74553907,-0.04382829,3.3283541
811,8.110000238,1.9550531285714283,2.499841014285714,0.0909417114285714,0.3565166328571428,0.010100795,3.4133491
812,8.120000238,2.1611931,2.4755406,-0.21839687,-0.23059484,0.1565296,3.2574956
813,8.130000238,2.3270912142857143,2.4098662285714285,-0.1872452471428571,-0.8243383485714286,0.3314064571428571,2.896223257142857
814,8.140000238,2.2566254999999997,2.1945444714285713,0.0145783757142857,-1.469742114285714,0.5584671028571428,1.9926928714285717
815,8.150000238,1.7194702333333334,1.9525427,0.2850572933333333,-1.8236844666666665,0.74212851,1.1667691666666666
816,8.160000238,1.0409449000000002,1.7234643333333333,0.6109503100000001,-1.7347043666666666,0.713825945,0.8515465833333332
817,8.170000238,0.6834327142857143,1.5170876,0.8257276357142856,-1.294341697142857,0.2338454114285714,0.7836298
818,8.180000238,0.4577270314285714,1.3304303999999998,0.9614106328571428,-0.8259091342857143,-0.2131202514285714,0.8270217671428571
819,8.190000238,0.3320315716666667,1.1977427333333337,0.947916075,-0.5128063,-0.4445441,0.8825215700000001
820,8.200000238,0.17318083,1.0039304,0.7894973,0.5745019000000001,-1.0077453,1.1244171
821,8.210000238,0.1687903333333333,0.9837158166666669,0.7289754716666667,0.6543447166666666,-1.0177479333333337,1.14579675
822,8.220000238,0.0652520731428571,0.8099557428571428,0.2259626557571428,1.0898605857142858,-0.9526818,1.3513032
823,8.230000238,-0.0817120814999999,0.66898717,-0.12018994,1.0013822666666667,-0.7108734999999999,1.5483451
824,8.240000238,-0.1041698399999999,0.62653481,-0.1912176014285714,0.7273882171428571,-0.5520532142857143,1.6530617857142855
825,8.250000238,-0.10368201,0.6054360257142858,-0.1809948742857142,0.4088749842857142,-0.2979407442857143,1.7183351571428571
826,8.260000238,-0.0879319579999999,0.5959697133333334,-0.0945177044466666,0.0438791886666666,0.0612374333333333,1.7658067
827,8.270000238,-0.0351588465714285,0.5904874142857144,0.0315175161857142,-0.1368734177142857,0.3286140057142857,1.7562076714285717
828,8.280000238,0.0138422719999999,0.5690576,0.11153089,-0.2362960783333333,0.6433749116666666,1.6898580166666666
829,8.290000238,0.0616630071428571,0.5243555214285714,0.23209978,-0.24647687,0.79303247,1.6460806
830,8.300000238,0.19345641,0.53000045,0.37999168,-0.108425386,1.1644276,1.3785295
831,8.310000238,0.4870798185714285,0.5877651414285714,0.36392367,-0.0134822717142857,1.2286538285714284,1.1558320714285717
832,8.320000238,1.0656719,0.69717485,0.30337137,0.13835691,1.3464601,0.41568157
833,8.330000238,1.3790285999999998,0.893756375,0.533750635,0.25319619,1.4189473,-0.5620812666666666
834,8.340000238,1.3629976571428573,1.0421818357142858,0.7153204571428572,0.4266768171428571,1.3918372571428572,-1.1103893714285713
835,8.350000238,1.2182113666666667,1.1785138666666668,0.9260194666666668,0.9569431333333333,1.1676855,-1.6709726333333332
836,8.360000238,1.1111754571428571,1.1901914142857142,1.0445774714285714,1.4150058428571428,1.013112067142857,-1.869759857142857
837,8.370000238,1.2372266666666667,1.1695601333333334,1.0974014666666667,1.9358258166666669,0.9453370166666666,-2.0040880666666667
838,8.380000238,1.5026138,1.153995857142857,1.1397006857142855,2.5510071714285716,0.9736687071428572,-2.2359192285714284
839,8.390000238,1.6845844,1.1623674714285712,1.0968627857142856,3.0471896571428574,0.9605791528571428,-2.5352343571428575
840,8.400000238,1.879942,1.4455264,0.78864358,3.500613,0.79303247,-2.8389127
841,8.410000238,2.035759,1.5864645,0.62768906,3.764499,0.6073349,-2.8328042000000004
842,8.420000238,2.6647947000000003,1.5586478666666668,0.2101697782333333,3.5181238333333336,1.0548822933333335,-3.350395466666667
843,8.430000238,2.9726951714285716,1.3570042571428569,-0.2009176544571428,3.0620246857142854,1.5846904285714287,-4.192266557142857
844,8.440000238,2.7604151,1.058202,-0.5146946733333334,2.4815162,2.1348601666666664,-5.173112666666667
845,8.450000238,2.0771464714285717,0.7566817885714284,-0.6121001571428571,1.6663258571428572,2.551574457142857,-6.034843642857143
846,8.460000238,1.5277590142857145,0.5244905371428571,-0.5494745571428572,0.9727088142857144,2.786314285714286,-6.369239142857142
847,8.470000238,1.0966798,0.34599578,-0.4326777,0.42056836,2.818194833333333,-6.318451333333333
848,8.480000238,0.5505242357142857,0.1176984888571428,-0.2107048057142857,0.16645588,2.7685125,-6.11565
849,8.490000238,0.17589441,0.014574022,0.04783816,0.0687203183333333,2.528246,-5.655478333333332
850,8.500000238,-0.2664702542857143,0.1162219342857142,0.3131628757142857,0.2435971651428571,1.8269351142857144,-4.7804904285714285
851,8.510000238,-0.2875117006666666,0.1749492383333333,0.2701021316666667,0.5551583716666667,1.01110489,-3.683103633333334
852,8.520000238,0.0481778971428571,0.0270878185714285,0.0901751238,0.7183127357142858,0.4923210628571429,-2.777129857142857
853,8.530000238,0.2278355914285714,-0.1036210314285714,-0.0365700776428571,0.7539164285714286,0.4685853114285714,-2.351630985714286
854,8.540000238,0.1328126225,-0.18725179,-0.229769515,0.7648826,0.5759781,-2.043182216666667
855,8.550000238,-0.0059019171428571,-0.2163976514285714,-0.4676971428571428,0.6870722571428571,0.7638863142857143,-1.6817934
856,8.560000238,-0.1795430066666666,-0.2248708466666666,-0.6943443333333333,0.34543411,0.929862225,-1.2073396
857,8.570000238,-0.49963284,-0.19824328,-0.948348,0.13469182,0.9823951,-0.9746068
858,8.580000238,-0.93730574,-0.0634793166666666,-1.0288048833333334,-0.4747301166666666,0.8620581683333333,-0.2485130233333333
859,8.590000238,-1.2434872,0.04408794,-0.9859417,-1.117545,0.58778775,0.62092626
860,8.600000238,-1.1675028399999998,0.0401155798571428,-0.5155353028571429,-1.6172181,0.009926268,1.5862176
861,8.610000238,-0.8548873100000001,0.0303472989999999,-0.00609791,-1.7135283833333332,-1.1911521166666663,2.838047316666667
862,8.620000238,-0.4676318214285714,0.0633704202857142,0.3368271542857143,-1.3988838571428572,-1.7896079714285715,3.265523942857143
863,8.630000238,-0.0870020183333333,0.09331337,0.559804,-0.953634365,-2.214728566666667,3.5160877
864,8.640000238,0.5020284285714286,0.11777691,0.7320200085714286,0.2205594914285714,-2.550199942857143,3.456282842857143
865,8.650000238,0.64201915,0.14635001,0.66577053,0.6282564,-2.550898,3.2978117
866,8.660000238,0.5561125685714287,0.2970295157142857,0.2813273971428571,1.049697428571429,-2.3229648000000003,2.9477088428571427
867,8.670000238,0.5049277933333333,0.3961714866666666,-0.03676028,1.1447787333333332,-2.0135562,2.6832993
868,8.680000238,0.5124079,0.4194452,-0.21864082,0.9472714,-1.6908252,2.4878283
869,8.690000238,0.5258146428571429,0.39244886,-0.35377936,0.55550014,-1.3075621714285717,2.242791214285714
870,8.700000238,0.49694974,0.3341963233333333,-0.3882746933333333,-0.301453118,-0.7365290566666666,1.7462596
871,8.710000238,0.4008465428571428,0.2756345442857142,-0.26474541,-0.9730360571428572,-0.4925392214285714,1.4101191142857143
872,8.720000238,0.3210858,0.22641563,-0.13519081,-1.50217525,-0.3981197116666666,1.2160442166666667
873,8.730000238,0.1395116192857143,0.103446802,0.3804185414285714,-1.706925357142857,-0.5155769142857143,1.2209309285714287
874,8.740000238,0.0126226881666666,0.0128208699999999,0.9044837083333334,-1.4351856666666667,-0.7849896333333334,1.4107008666666667
875,8.750000238,0.0324931842857142,-0.0967782914285714,1.2276282714285711,-0.8079327999999999,-0.9562595428571428,1.6631844285714286
876,8.760000238,0.0749564614285714,-0.1990447114285714,1.2530565285714286,0.0397487171428571,-0.9257171885714286,1.9687825714285712
877,8.770000238,0.07757566,-0.2132390666666666,1.16590125,0.7319222833333333,-0.7817317999999999,2.2994836666666667
878,8.780000238,0.10460976,-0.1369897,1.0857645,1.2869024,-0.62902,2.652757
879,8.790000238,0.43529976,-0.087444125,0.815611675,1.9743092,-0.66200574,3.0970465
880,8.800000238,0.6943392857142856,-0.073911107,0.5092239857142857,2.3368616571428573,-0.8319957985714286,3.3360331714285714
881,8.810000238,0.94926275,-0.030946927,0.1829222649999999,2.4479195,-0.8908698249999999,3.445229383333333
882,8.820000238,1.2602434428571427,0.0019426229999999,-0.0571984657142857,2.2244657714285716,-0.5852134771428571,3.2543542000000003
883,8.830000238,1.656790957142857,0.0497067335714285,-0.3233464028571428,1.8911176285714288,-0.3380821485714285,2.8407234000000003
884,8.840000238,1.75071185,0.134398085,-0.6296404299999999,1.4045923666666666,0.01562751,2.0687869333333335
885,8.850000238,1.4021113714285711,0.2861273285714286,-0.8727774571428571,0.87010834,0.3394347314285714,1.4373455
886,8.860000238,0.7297072050000001,0.5839721083333332,-1.0533338333333333,-0.10659285,0.7911999166666668,1.1594390833333332
887,8.870000238,0.25178298,0.79285115,-1.0523175,-1.025918,1.154654,1.5605619999999998
888,8.880000238,0.32693982,0.7864787999999999,-0.6362262,-1.9592925,1.3122526,2.4462905
889,8.890000238,1.1260717857142857,0.8654163285714286,0.1334746807142857,-2.3024142857142857,0.84748511,3.0803499857142858
890,8.900000238,2.142551,1.0142534142857142,0.6957896928571429,-2.1332967714285713,0.0380252457142857,3.330797457142858
891,8.910000238,2.624635,1.0927771,0.91444355,-1.4840534,-0.7316423,2.8250158000000005
892,8.920000238,2.5821454285714287,1.3903293285714289,0.88979489,-0.7025180171428571,-1.398840242857143,1.8097877
893,8.930000238,1.9798818,1.7596758666666668,0.7493120000000001,-0.3615197833333333,-1.5183626666666663,1.8002177833333337
894,8.940000238,1.9430968714285717,1.9609506571428572,0.8139151057142858,-0.2009251188571428,-1.3695195000000002,2.3984699857142857
895,8.950000238,2.2719212,1.9200104666666664,0.90705502,0.0487659759999999,-1.134903276666667,2.6450194666666667
896,8.960000238,2.650825457142857,1.8547162714285712,0.9563581014285716,0.35093176,-0.88557583,2.656422
897,8.970000238,2.7644906,1.8329729,0.94032925,0.7200798571428572,-0.6712556942857143,2.298640014285714
898,8.980000238,2.757173,1.7599807,0.73995167,0.9631534,-0.56549186,1.9185185
899,8.990000238,2.064663157142857,1.6278868428571427,0.31102859,1.1781716142857144,-0.4822420957142857,0.7478733999999999
900,9.000000238,1.6245460333333333,1.5139094333333334,0.1073944703333333,1.1044627333333334,-0.4453585399999999,0.4743229
901,9.010000238,1.307706957142857,1.3708029285714285,0.0266522518571428,0.9388504285714286,-0.36356318,0.2547669428571428
902,9.020000238,1.0292151114285717,1.216891542857143,0.0656222937142857,0.7598503314285715,-0.22271926,0.1256163802857142
903,9.030000238,0.8592981066666666,1.0949723666666666,0.1291030633333333,0.6441384066666666,-0.0568596966666666,0.0182236106666666
904,9.040000238,0.6607223457142857,0.9458173714285714,0.1973634357142857,0.6441384142857143,0.1291287485714285,-0.1054584142857143
905,9.050000238,0.5511297166666668,0.8837761883333334,0.2449025,0.7178473333333333,0.2351252866666666,-0.1752113533333333
906,9.060000238,0.4200332,0.8119071185714286,0.3316352114285714,0.8363371628571429,0.2691000285714286,-0.2152363942857142
907,9.070000238,0.3606308,0.78574705,0.37974778,0.91062057,0.26037365,-0.23181653
908,9.080000238,0.3283321666666666,0.7600443333333334,0.4297812,0.9912524083333332,0.2363469906666666,-0.2483094083333333
909,9.090000238,0.2560166942857143,0.5940546542857142,0.5382456714285714,1.9364949142857144,0.0554780205714285,-0.6375936571428572
910,9.100000238,0.2006824466666666,0.55620112,0.50104549,2.200322783333333,0.104811205,-0.84327465
911,9.110000238,0.1247372371428571,0.5195381485714285,0.4228034071428571,2.5180214285714286,0.4534013657142857,-1.2082994857142857
912,9.120000238,0.0887551816666666,0.4724869333333333,0.3416764233333333,2.5906541,0.688577575,-1.3462056
913,9.130000238,0.081925515,0.4370290057142857,0.2694974214285714,2.6166297000000003,0.9612772571428572,-1.5179118714285715
914,9.140000238,0.0897395542857143,0.3972749271428571,0.1851066242857142,2.501441314285714,1.3408752285714287,-1.9242125428571428
915,9.150000238,0.1391951166666666,0.3507013733333333,0.1240722846666666,2.3668804,1.5189226333333332,-2.2244003833333332
916,9.160000238,0.1474302042857143,0.3198313828571429,0.1066177212857143,2.2386024,1.6237848,-2.4687393
917,9.170000238,0.13049541,0.3064508,0.100554645,2.1653008,1.7080816,-2.5799134
918,9.180000238,-0.21483832,0.4526614285714285,0.1857730314285714,1.9764617142857144,2.0686560857142857,-2.5598428285714285
919,9.190000238,-0.33001924,0.5470746,0.25382578,1.928292,2.238297,-2.2341738
920,9.200000238,-0.1807901664285714,0.6755446457142857,0.3973141142857143,2.0094473142857145,2.3433627142857145,-1.6217558285714286
921,9.210000238,0.098267935,0.7274205,0.4500262399999999,2.0993292,2.430103,-1.25804
922,9.220000238,0.7722532192857143,0.9150011228571427,0.6767206914285715,2.275776942857143,2.4880463857142856,-1.0379604
923,9.230000238,2.031507885714286,1.1861668,1.1264594857142858,2.9337467285714287,2.153825628571429,-1.3875395428571429
924,9.240000238,2.6584884333333334,1.305503,1.2090238466666667,4.045081433333333,1.3203972666666666,-2.6870153
925,9.250000238,2.478568014285714,1.4314772857142857,0.8310981571428572,4.592982357142858,0.77156556,-3.5794340714285715
926,9.260000238,2.265772666666667,1.6052308333333334,0.4741434858333333,4.678326566666667,0.6429676583333334,-3.941288266666666
927,9.270000238,1.996702,1.867365,-0.027562585,4.5072894,0.77226365,-4.0227346
928,9.280000238,2.435264142857143,1.9563859714285716,-0.2674328578571429,3.3072361999999997,1.6874873499999998,-4.0454232
929,9.290000238,2.643203,1.9481626,-0.101743735,2.5990024,2.2358537,-4.2072105
930,9.300000238,2.7417758,1.8148925,0.20647547,2.077687842857143,2.6011402714285716,-4.879120742857142
931,9.310000238,2.3858506,1.56817585,0.3847988916666667,1.93623305,2.6872698666666666,-5.152547433333333
932,9.320000238,1.7726077714285713,1.2915953285714286,0.5760614857142857,1.8876271285714288,2.772875757142857,-5.0609785
933,9.330000238,1.56152905,1.1805515166666667,0.6608515566666667,1.985915366666667,2.7165905,-4.866874650000001
934,9.340000238,1.3750541571428572,0.9841776285714284,0.6081016571428571,2.2440129428571427,2.447904857142857,-4.482353657142857
935,9.350000238,1.300406857142857,0.8271170571428572,0.4115397128571428,2.3413994,2.3163108571428572,-4.250493428571429
936,9.360000238,1.2188617666666668,0.7079884333333334,0.1776018333333333,2.2943931666666666,2.2845177999999997,-4.084837666666666
937,9.370000238,1.0736341714285715,0.5762618285714286,-0.0959724985714285,2.072452,2.2957168,-3.937216
938,9.380000238,0.9236514,0.4936263999999999,-0.24574605,1.6705146,2.2773912,-3.849254
939,9.390000238,0.6961948,0.33959735,-0.3119476442857142,1.0653830857142856,2.2417875857142855,-3.717485542857143
940,9.400000238,0.4839612033333333,0.186738544,-0.2882383766666667,0.2780373066666666,2.1882075,-3.5141025
941,9.410000238,0.3022301742857142,0.0544979554285714,-0.0756054585714285,-0.0536236628571428,2.059057,-3.3364914
942,9.420000238,0.1838304107142857,-0.1057422334285714,0.1120230785714285,-0.1143593342857142,1.8019775857142857,-3.097039242857143
943,9.430000238,0.0174857725,-0.342230335,0.348511175,0.033291175,1.4362546500000002,-2.69353085
944,9.440000238,-0.1472777614285714,-0.4562330628571428,0.5294211285714285,0.3132337499999999,1.2021256285714286,-2.3919468571428575
945,9.450000238,-0.26120427,-0.48816872,0.6401593,0.7290716666666667,0.8970800933333334,-2.049494433333334
946,9.460000238,-0.349158,-0.5172732000000001,0.6056712471428571,1.0982379142857144,0.6212971099999999,-1.7280431857142855
947,9.470000238,-0.4200855,-0.6143346,0.33434877,1.7548114,0.13331741,-1.0149227
948,9.480000238,-0.3759409171428571,-0.6557220285714286,0.0909417142857142,1.925499657142857,0.042213908,-0.5374146714285715
949,9.490000238,-0.2072768992857143,-0.6843125428571428,-0.1818355085714285,1.839631957142857,0.0610629107142857,0.2099132942857142
950,9.500000238,-0.0524624066666666,-0.7052952,-0.3208317066666666,1.4941832333333334,0.1589730033333333,0.7105680666666666
951,9.510000238,0.05915415,-0.7239838414285714,-0.3983028428571428,1.2012093285714285,0.2120294499999999,0.9052102
952,9.520000238,0.1164092316666666,-0.7427415133333333,-0.4280839033333333,0.8405258333333334,0.2644459566666666,1.0425635666666666
953,9.530000238,0.2028646171428571,-0.7716478071428572,-0.4318065428571428,0.2427245228571428,0.3322791028571428,1.200336642857143
954,9.540000238,0.21053056,-0.76102,-0.3948706,-0.0202888542857142,0.3232036557142857,1.2268648857142856
955,9.550000238,0.1162923516666666,-0.6882871,-0.2996414833333333,-0.3527642933333333,0.1129558399999999,1.2201165333333333
956,9.560000238,0.040668748,-0.6297710771428572,-0.2390906071428571,-0.5353203628571429,-0.1445308285714286,1.2467611142857142
957,9.570000238,-0.035459384,-0.61116374,-0.22111045,-0.64352757,-0.34436515,1.3052279
958,9.580000238,-0.0752439384285714,-0.5895204714285714,-0.1771401228571428,-0.7293952528571428,-0.6288454414285715,1.514312157142857
959,9.590000238,-0.0639061685,-0.52782043,-0.174964475,-0.7718054866666666,-0.93693788,1.7658067
960,9.600000238,-0.0628433878571428,-0.5044414428571428,-0.2281012871428571,-0.8187535085714286,-1.2086049285714286,2.0928718714285712
961,9.610000238,-0.0899878285714285,-0.5016189785714286,-0.3518018814285714,-0.9150928228571428,-1.3059914714285714,2.5562431714285716
962,9.620000238,-0.1117646533333333,-0.4758001066666666,-0.4670902666666666,-1.03243365,-1.1960135166666666,2.9475925666666662
963,9.630000238,-0.0408429742857142,-0.3722865142857143,-0.5362638714285713,-1.3447802428571427,-0.7955194857142857,3.654720857142857
964,9.640000238,0.16659509,-0.26559475,-0.5273783,-1.7023295,-0.4844527899999999,4.263764666666667
965,9.650000238,0.71034634,-0.20360945,-0.4197501,-1.9043163,-0.33703497,4.52195
966,9.660000238,1.1083878,-0.094517715,-0.25013652,-2.0949006,-0.30282754,4.5708175
967,9.670000238,1.2626346,0.14635001,-0.007073583,-2.1123534,-0.4822420885714286,4.5212515
968,9.680000238,1.3487372,0.4745660185714286,0.1420117624285714,-1.8704579285714285,-1.1867453285714284,4.698397257142857
969,9.690000238,1.7402894666666666,0.6913411833333334,0.0518729416666666,-1.5481923666666664,-1.77838,5.1272991
970,9.700000238,2.3181274142857147,0.8209669142857143,-0.1696440471428571,-1.6130295,-1.813518257142857,5.197895714285714
971,9.710000238,2.8474628,1.0096219,-0.3353041133333334,-1.9454467666666664,-1.6097861,4.9442485000000005
972,9.720000238,2.9969823,1.2438268714285716,-0.35242038,-2.471706157142857,-1.3449111142857144,4.4702893
973,9.730000238,2.9380778666666667,1.4451757666666667,-0.2537139933333334,-2.8580525,-1.2353367833333333,4.245032016666667
974,9.740000238,2.9116333142857145,1.5514103,-0.1122887834285714,-3.3157224999999997,-1.1370485,4.077950971428572
975,9.750000238,2.8790248833333334,1.5859360666666664,0.0515832966666666,-3.515935083333334,-1.1141854166666667,3.9646531666666665
976,9.760000238,2.8111093000000005,1.5735369,0.3668202,-3.657448,-1.09586,3.755947
977,9.770000238,2.6622286,1.4876478,0.63942754,-3.466514528571428,-1.0606489714285714,3.4014811857142857
978,9.780000238,2.2807429833333335,1.3559429666666667,0.94865795,-2.8554055,-1.0759056833333334,2.92662015
979,9.790000238,2.0184322142857143,1.2325370428571427,0.826002,-2.164886357142857,-1.009577857142857,2.4791017857142856
980,9.800000238,1.8225453666666669,1.1444265,0.6178612666666666,-1.8379375833333331,-0.892295125,2.18403355
981,9.810000238,1.5661018142857144,1.0727324428571428,0.3958157714285714,-1.5899918285714283,-0.6187228100000001,1.7104814285714285
982,9.820000238,1.2719441,1.02155855,0.2534141733333333,-1.5565406666666668,-0.37205689,1.3284400333333333
983,9.830000238,0.9566629528571428,0.9732972342857142,0.18775921,-1.6023833142857142,-0.2441861928571428,1.1149925714285716
984,9.840000238,0.71463665,0.8954791028571429,0.1621566814285714,-1.714430142857143,-0.1799599614285714,0.92650256
985,9.850000238,0.5754299199999999,0.8312222383333333,0.1568485866666666,-1.7955855000000005,-0.16599774,0.83487546
986,9.860000238,0.47557652,0.7767221300000001,0.16253997,-1.9271794,-0.1530826857142857,0.7387324942857143
987,9.870000238,0.3580595116666667,0.7166881683333334,0.1542925333333333,-2.0818694,-0.1122431866666666,0.66368555
988,9.880000238,0.1551048701428571,0.7057118985714286,0.2832569285714285,-2.204853257142857,-0.0989790742857142,0.6892102357142856
989,9.890000238,0.0163170085,0.7346617416666668,0.44113345,-2.2624764833333333,-0.13912046,0.86256725
990,9.900000238,0.0464312834285714,0.7571391142857143,0.6194961285714287,-2.1174147714285714,-0.1111960142857142,1.1966716
991,9.910000238,0.3086460514285714,0.7632022214285714,0.7294241428571429,-1.8481183571428572,-0.00508312,1.4506095142857145
992,9.920000238,0.7706242,0.7717219000000001,0.77291095,-1.4421085333333332,0.1357608066666666,1.3911537666666665
993,9.930000238,1.0613554571428572,0.7642824414285715,0.7184216885714285,-1.0318518857142858,0.2795717085714285,0.9283787742857142
994,9.940000238,1.2116256,0.74598867,0.60841966,-0.7534801,0.38865158,0.37414396
995,9.950000238,1.1099863857142858,0.7541772628571428,0.4415980742857143,-0.6033861714285714,0.5029672657142857,-0.2646277257142858
996,9.960000238,1.0693307,0.7574527,0.37486944,-0.5433486,0.54869354,-0.5201364
997,9.970000238,1.0693307,0.7574527,0.37486944,-0.5433486,0.54869354,-0.5201364
998,9.980000238,1.0693307,0.7574527,0.37486944,-0.5433486,0.54869354,-0.5201364
999,9.990000238,0.4745957916666667,0.7443981000000001,0.1684803615666666,-0.76549341,0.919070595,-1.1163233333333331
