id,timestamp,acc_x,acc_y,acc_z,gyro_x,gyro_y,gyro_z
1,0.01,-0.020012695,0.15912533,0.8871481,0.16554448,-2.2363777,-2.031127
2,0.02,-0.020012695,0.15912533,0.8871481,0.16554448,-2.2363777,-2.031127
3,0.03,-0.020012695,0.15912533,0.8871481,0.1325573867245744,-1.412597952858816,-1.2560424768380851
4,0.04,-0.020012695,0.15912533,0.8871481,0.07574729,0.0061086523,0.07880162
5,0.05,-0.020012695,0.15912533,0.8871481,0.0762818366911201,-0.0072404698663411,0.0662415904231191
6,0.06,-0.020012695,0.15912533,0.8871481,0.1538078161085504,-1.943280459450404,-1.7553553077244408
7,0.07,0.1691106012742315,0.1645651127897551,0.9638491331781828,0.16554448,-2.2363777,-2.031127
8,0.08,0.234539,0.16644704,0.99038434,0.16554448,-2.2363777,-2.031127
9,0.09,0.234539,0.16644704,0.99038434,0.16554448,-2.2363777,-2.031127
10,0.1,0.2027004290042225,0.1778594939435345,0.9649425485350022,0.16554448,-2.2363777,-2.031127
11,0.11,0.12764193,0.20476402,0.90496427,0.16554448,-2.2363777,-2.031127
12,0.12,0.12764193,0.20476402,0.90496427,0.16554448,-2.2363777,-2.031127
13,0.13,0.12764193,0.20476402,0.90496427,0.0208174503006952,-1.618784633843218,-1.6433677036436467
14,0.14,0.12764193,0.20476402,0.90496427,-0.1436791708274858,-1.4289194678884534,-1.3350129002210145
15,0.15,0.12764193,0.20476402,0.90496427,-0.21502456,-1.4422529,-1.2260065
16,0.16,0.12764193,0.20476402,0.90496427,-0.21502456,-1.4422529,-1.2260065
17,0.17,0.12764193,0.20476402,0.90496427,-0.21502456,-1.4422529,-1.2260065
18,0.18,0.12764193,0.20476402,0.90496427,-0.21502456,-1.4422529,-1.2260065
19,0.19,0.12764193,0.20476402,0.90496427,-0.21502456,-1.4422529,-1.2260065
20,0.2,0.12764193,0.20476402,0.90496427,-0.21502456,-1.4422529,-1.2260065
21,0.21,0.12764193,0.20476402,0.90496427,-0.21502456,-1.4422529,-1.2260065
22,0.22,0.12764193,0.20476402,0.90496427,-0.21502456,-1.4422529,-1.2260065
23,0.23,0.1316522368539182,0.2064389144374726,0.9023457772760068,-0.21502456,-1.4422529,-1.2260065
24,0.24,0.21062139,0.23942018,0.8507836,-0.21502456,-1.4422529,-1.2260065
25,0.25,0.21062139,0.23942018,0.8507836,-0.21502456,-1.4422529,-1.2260065
26,0.26,0.21062139,0.23942018,0.8507836,-0.21502456,-1.4422529,-1.2260065
27,0.27,0.21062139,0.23942018,0.8507836,-0.21502456,-1.4422529,-1.2260065
28,0.28,0.21062139,0.23942018,0.8507836,-0.21502456,-1.4422529,-1.2260065
29,0.29,0.21062139,0.23942018,0.8507836,-0.21502456,-1.4422529,-1.2260065
30,0.3,0.21062139,0.23942018,0.8507836,-0.21502456,-1.4422529,-1.2260065
31,0.31,0.21062139,0.23942018,0.8507836,-0.21502456,-1.4422529,-1.2260065
32,0.32,0.21062139,0.23942018,0.8507836,-0.21502456,-1.4422529,-1.2260065
33,0.33,0.21062139,0.23942018,0.8507836,-0.21502456,-1.4422529,-1.2260065
34,0.34,0.21062139,0.23942018,0.8507836,-0.21502456,-1.4422529,-1.2260065
35,0.35,0.1919945500084906,0.2398341081522214,0.8664094412774895,-0.21502456,-1.4422529,-1.2260065
36,0.36,0.122760795,0.24137263,0.92448884,-0.2135017743019861,-1.4285719031901452,-1.221137197715591
37,0.37,0.122760795,0.24137263,0.92448884,-0.0738763339311593,-0.1741503474982817,-0.7746669710474305
38,0.38,0.122760795,0.24137263,0.92448884,0.018873197479863,0.3572969697499094,-0.6828197451907373
39,0.39,0.122760795,0.24137263,0.92448884,0.05131268,0.52534413,-0.6627888
40,0.4,0.122760795,0.24137263,0.92448884,0.05131268,0.52534413,-0.6627888
41,0.41,0.1221524745818983,0.2429948168584444,0.9290850300983862,0.05131268,0.52534413,-0.6627888
42,0.42,0.12056428,0.24723,0.9410847,0.05131268,0.52534413,-0.6627888
43,0.43,0.12056428,0.24723,0.9410847,0.05131268,0.52534413,-0.6627888
44,0.44,0.12056428,0.24723,0.9410847,0.05131268,0.52534413,-0.6627888
45,0.45,0.12056428,0.24723,0.9410847,0.05131268,0.52534413,-0.6627888
46,0.46,0.12056428,0.24723,0.9410847,0.05131268,0.52534413,-0.6627888
47,0.47,0.12056428,0.24723,0.9410847,0.05131268,0.52534413,-0.6627888
48,0.48,0.12056428,0.24723,0.9410847,0.05131268,0.52534413,-0.6627888
49,0.49,0.12056428,0.24723,0.9410847,0.05131268,0.52534413,-0.6627888
50,0.5,0.12056428,0.24723,0.9410847,0.05131268,0.52534413,-0.6627888
51,0.51,0.12056428,0.24723,0.9410847,0.05131268,0.52534413,-0.6627888
52,0.52,0.12056428,0.24723,0.9410847,0.05131268,0.52534413,-0.6627888
53,0.53,0.12056428,0.24723,0.9410847,0.05131268,0.52534413,-0.6627888
54,0.54,0.12056428,0.24723,0.9410847,0.05131268,0.52534413,-0.6627888
55,0.55,0.12056428,0.24723,0.9410847,0.05131268,0.52534413,-0.6627888
56,0.56,0.12056428,0.24723,0.9410847,0.0392061766314024,0.5166796710191178,-0.595134807387011
57,0.57,0.12056428,0.24723,0.9410847,-0.0690807856586901,0.4391801722488526,0.0099982457998892
58,0.58,0.12056428,0.24723,0.9410847,-0.073303826,0.4361578,0.03359759
59,0.59,0.12056428,0.24723,0.9410847,-0.073303826,0.4361578,0.03359759
60,0.6,0.0929986621307403,0.2621500011877307,0.9472710832326284,-0.073303826,0.4361578,0.03359759
61,0.61,0.046614934,0.28725538,0.9576807,-0.073303826,0.4361578,0.03359759
62,0.62,0.046614934,0.28725538,0.9576807,-0.073303826,0.4361578,0.03359759
63,0.63,0.046614934,0.28725538,0.9576807,-0.073303826,0.4361578,0.03359759
64,0.64,0.0673801560098308,0.309503848974728,0.8970536032419516,-0.073303826,0.4361578,0.03359759
65,0.65,0.1096946353552285,0.2955831804457877,0.8520339378576162,-0.073303826,0.4361578,0.03359759
66,0.66,0.13471961,0.2809099,0.8339436,-0.073303826,0.4361578,0.03359759
67,0.67,0.13471961,0.2809099,0.8339436,-0.050353190936409,0.3036428174787285,-0.1286534277903902
68,0.68,0.13471961,0.2809099,0.8339436,-0.0030543262,0.030543262,-0.46303585
69,0.69,0.13471961,0.2809099,0.8339436,-0.0030543262,0.030543262,-0.46303585
70,0.7,0.13471961,0.2809099,0.8339436,-0.0030543262,0.030543262,-0.46303585
71,0.71,0.13471961,0.2809099,0.8339436,-0.0461968593967442,-0.0067784519703722,-0.6130074920004931
72,0.72,0.13471961,0.2809099,0.8339436,-0.08002335,-0.03604105,-0.7305948
73,0.73,0.13471961,0.2809099,0.8339436,-0.08002335,-0.03604105,-0.7305948
74,0.74,0.13471961,0.2809099,0.8339436,-0.08002335,-0.03604105,-0.7305948
75,0.75,0.13471961,0.2809099,0.8339436,-0.08002335,-0.03604105,-0.7305948
76,0.76,0.13471961,0.2809099,0.8339436,-0.08002335,-0.03604105,-0.7305948
77,0.77,0.13471961,0.2809099,0.8339436,-0.08002335,-0.03604105,-0.7305948
78,0.78,0.1731553400702968,0.3046278088097939,0.9358036034367084,-0.08002335,-0.03604105,-0.7305948
79,0.79,0.22331238,0.3355787,1.0687267,-0.08002335,-0.03604105,-0.7305948
80,0.8,0.22331238,0.3355787,1.0687267,-0.08002335,-0.03604105,-0.7305948
81,0.81,0.22331238,0.3355787,1.0687267,-0.08002335,-0.03604105,-0.7305948
82,0.82,0.22331238,0.3355787,1.0687267,-0.08002335,-0.03604105,-0.7305948
83,0.83,0.0644864456693604,0.2141120759354108,0.9208542208436,-0.08002335,-0.03604105,-0.7305948
84,0.84,0.0198874116669394,0.2040366445034263,0.9450922010363758,-0.08002335,-0.03604105,-0.7305948
85,0.85,0.017328065,0.21379416,0.97476465,-0.08002335,-0.03604105,-0.7305948
86,0.86,0.017328065,0.21379416,0.97476465,-0.08002335,-0.03604105,-0.7305948
87,0.87,0.017328065,0.21379416,0.97476465,-0.08002335,-0.03604105,-0.7305948
88,0.88,0.017328065,0.21379416,0.97476465,-0.08002335,-0.03604105,-0.7305948
89,0.89,0.017328065,0.21379416,0.97476465,-0.08002335,-0.03604105,-0.7305948
90,0.9,0.017328065,0.21379416,0.97476465,-0.08002335,-0.03604105,-0.7305948
91,0.91,0.017328065,0.21379416,0.97476465,-0.08002335,-0.03604105,-0.7305948
92,0.92,0.017328065,0.21379416,0.97476465,-0.08002335,-0.03604105,-0.7305948
93,0.93,0.017328065,0.21379416,0.97476465,-0.2007889428699922,-0.0054106811432001,-0.7083536524541603
94,0.94,0.017328065,0.21379416,0.97476465,-0.45814893,0.059864793,-0.6609562
95,0.95,0.017328065,0.21379416,0.97476465,-0.45814893,0.059864793,-0.6609562
96,0.96,0.017328065,0.21379416,0.97476465,-0.45814893,0.059864793,-0.6609562
97,0.97,0.017328065,0.21379416,0.97476465,-0.45814893,0.059864793,-0.6609562
98,0.98,0.060137087019314,0.2800579246379385,0.9568865737830012,0.2545370487310103,-0.0370210834071153,-0.3464876162511033
99,0.99,0.08102701,0.31239328,0.94816244,0.60231316,-0.0842994,-0.19303341
100,1.0,0.08102701,0.31239328,0.94816244,0.60231316,-0.0842994,-0.19303341
101,1.01,0.08102701,0.31239328,0.94816244,0.60231316,-0.0842994,-0.19303341
102,1.02,0.08102701,0.31239328,0.94816244,0.60231316,-0.0842994,-0.19303341
103,1.03,0.08102701,0.31239328,0.94816244,0.60231316,-0.0842994,-0.19303341
104,1.04,0.08102701,0.31239328,0.94816244,0.60231316,-0.0842994,-0.19303341
105,1.05,0.0823002852311233,0.2870549797760539,0.9419233099800536,0.60231316,-0.0842994,-0.19303341
106,1.06,0.08346757,0.2638259,0.93620354,0.60231316,-0.0842994,-0.19303341
107,1.07,0.08346757,0.2638259,0.93620354,0.60231316,-0.0842994,-0.19303341
108,1.08,0.08346757,0.2638259,0.93620354,0.60231316,-0.0842994,-0.19303341
109,1.09,0.08346757,0.2638259,0.93620354,0.60231316,-0.0842994,-0.19303341
110,1.1,0.0177645076569153,0.2685278014914852,0.9254386716100604,0.60231316,-0.0842994,-0.19303341
111,1.11,-0.04612682,0.27310005,0.91497064,0.60231316,-0.0842994,-0.19303341
112,1.12,-0.04612682,0.27310005,0.91497064,0.60231316,-0.0842994,-0.19303341
113,1.13,-0.04612682,0.27310005,0.91497064,0.60231316,-0.0842994,-0.19303341
114,1.14,-0.04612682,0.27310005,0.91497064,0.279986469290524,-0.015162668648385,-0.2799214791069292
115,1.15,-0.04612682,0.27310005,0.91497064,0.18081611,0.0061086523,-0.30665436
116,1.16,-0.04612682,0.27310005,0.91497064,0.18081611,0.0061086523,-0.30665436
117,1.17,-0.04612682,0.27310005,0.91497064,0.18081611,0.0061086523,-0.30665436
118,1.18,-0.04612682,0.27310005,0.91497064,0.18081611,0.0061086523,-0.30665436
119,1.19,-0.04612682,0.27310005,0.91497064,0.18081611,0.0061086523,-0.30665436
120,1.2,-0.04612682,0.27310005,0.91497064,0.18081611,0.0061086523,-0.30665436
121,1.21,-0.04612682,0.27310005,0.91497064,0.18081611,0.0061086523,-0.30665436
122,1.22,-0.04612682,0.27310005,0.91497064,0.3509992763368532,0.0001072308337923,-0.3469496176089563
123,1.23,-0.04612682,0.27310005,0.91497064,0.6658431,-0.010995574,-0.42149702
124,1.24,-0.04612682,0.27310005,0.91497064,0.6658431,-0.010995574,-0.42149702
125,1.25,-0.04612682,0.27310005,0.91497064,0.6658431,-0.010995574,-0.42149702
126,1.26,-0.04612682,0.27310005,0.91497064,0.6658431,-0.010995574,-0.42149702
127,1.27,-0.083240146962226,0.2878201241180646,0.9032259170087562,0.6658431,-0.010995574,-0.42149702
128,1.28,-0.10396838,0.29604146,0.89666635,0.6658431,-0.010995574,-0.42149702
129,1.29,-0.10396838,0.29604146,0.89666635,0.6658431,-0.010995574,-0.42149702
130,1.3,-0.10396838,0.29604146,0.89666635,0.6658431,-0.010995574,-0.42149702
131,1.31,-0.10396838,0.29604146,0.89666635,0.6658431,-0.010995574,-0.42149702
132,1.32,-0.1019186936100665,0.2840849117338133,0.9142595358385036,0.6658431,-0.010995574,-0.42149702
133,1.33,-0.0834786874491543,0.283563584019005,0.9161904738016808,0.6658431,-0.010995574,-0.42149702
134,1.34,-0.0866269892487968,0.2420459550741383,0.959396980662394,0.6658431,-0.010995574,-0.42149702
135,1.35,-0.10421244,0.19085276,1.0133257,0.6658431,-0.010995574,-0.42149702
136,1.36,-0.0949941283759809,0.1959725311287115,1.0100849966913852,0.636056025272079,-0.0087121254981795,-0.4114771108576493
137,1.37,0.0289127607738336,0.2647893535134926,0.966525451082002,0.2356764420094576,0.0219805883017274,-0.2767956396696356
138,1.38,0.061014313,0.28261828,0.95524013,0.13194689,0.029932396,-0.24190263
139,1.39,0.061014313,0.28261828,0.95524013,0.13194689,0.029932396,-0.24190263
140,1.4,0.061014313,0.28261828,0.95524013,0.5034108113836773,-0.040688118898534,-0.0687058202286972
141,1.41,0.061014313,0.28261828,0.95524013,1.4172074,-0.2144137,0.35735616
142,1.42,0.061014313,0.28261828,0.95524013,1.4172074,-0.2144137,0.35735616
143,1.43,0.061014313,0.28261828,0.95524013,1.4172074,-0.2144137,0.35735616
144,1.44,0.061014313,0.28261828,0.95524013,1.4172074,-0.2144137,0.35735616
145,1.45,0.061014313,0.28261828,0.95524013,1.4172074,-0.2144137,0.35735616
146,1.46,0.061014313,0.28261828,0.95524013,1.4172074,-0.2144137,0.35735616
147,1.47,0.061014313,0.28261828,0.95524013,1.4172074,-0.2144137,0.35735616
148,1.48,0.061014313,0.28261828,0.95524013,1.4172074,-0.2144137,0.35735616
149,1.49,0.061014313,0.28261828,0.95524013,1.4172074,-0.2144137,0.35735616
150,1.5,0.061014313,0.28261828,0.95524013,1.4172074,-0.2144137,0.35735616
151,1.51,0.061014313,0.28261828,0.95524013,1.4172074,-0.2144137,0.35735616
152,1.52,0.061014313,0.28261828,0.95524013,1.4172074,-0.2144137,0.35735616
153,1.53,0.061014313,0.28261828,0.95524013,1.4172074,-0.2144137,0.35735616
154,1.54,0.061014313,0.28261828,0.95524013,1.4172074,-0.2144137,0.35735616
155,1.55,0.061014313,0.28261828,0.95524013,1.4172074,-0.2144137,0.35735616
156,1.56,0.061014313,0.28261828,0.95524013,1.4172074,-0.2144137,0.35735616
157,1.57,0.061014313,0.28261828,0.95524013,1.4172074,-0.2144137,0.35735616
158,1.58,0.061014313,0.28261828,0.95524013,1.4172074,-0.2144137,0.35735616
159,1.59,0.061014313,0.28261828,0.95524013,0.4690760588474559,0.3885543188182918,0.0211228591743827
160,1.6,0.061014313,0.28261828,0.95524013,-0.07452556,0.73426,-0.17165314
161,1.61,0.061014313,0.28261828,0.95524013,-0.07452556,0.73426,-0.17165314
162,1.62,0.061014313,0.28261828,0.95524013,-0.07452556,0.73426,-0.17165314
163,1.63,0.010730972959548,0.365538345268271,0.8672600722753698,-0.07452556,0.73426,-0.17165314
164,1.64,-0.1330112,0.6025773,0.6157564,-0.0579231798439623,0.6036476088283246,-0.1203749009142663
165,1.65,-0.1330112,0.6025773,0.6157564,0.0191194347959722,-0.0024534456991096,0.1175795114149755
166,1.66,-0.190463820220854,0.1516832916052493,0.9966528270533508,0.021991149,-0.025045475,0.12644911
167,1.67,-0.21013328,-0.0026846298,1.1270564,0.021991149,-0.025045475,0.12644911
168,1.68,-0.21013328,-0.0026846298,1.1270564,0.021991149,-0.025045475,0.12644911
169,1.69,-0.2055014842013559,0.0570697426598434,1.0819485189565226,0.021991149,-0.025045475,0.12644911
170,1.7,-0.1854419683791399,0.3158557150802411,0.8865939971178951,0.021991149,-0.025045475,0.12644911
171,1.71,-0.18304294,0.34680536,0.86323047,0.021991149,-0.025045475,0.12644911
172,1.72,-0.18304294,0.34680536,0.86323047,0.021991149,-0.025045475,0.12644911
173,1.73,-0.18304294,0.34680536,0.86323047,0.021991149,-0.025045475,0.12644911
174,1.74,-0.1883323025253887,0.3579360252178432,0.8479603044127745,0.021991149,-0.025045475,0.12644911
175,1.75,-0.1981865324482857,0.4001388637331143,0.7962995090453706,0.021991149,-0.025045475,0.12644911
176,1.76,-0.0592760903826137,0.3385643283216751,0.9478191070029154,0.021991149,-0.025045475,0.12644911
177,1.77,-0.049787678,0.33435842,0.9581688,-0.0175902654538111,0.6225504542631106,-0.1489715653494512
178,1.78,-0.049787678,0.33435842,0.9581688,0.1561492312689217,0.1724181905732176,-0.3287759843351384
179,1.79,-0.049787678,0.33435842,0.9581688,0.22602014,-0.032375857,-0.38728857
180,1.8,-0.049787678,0.33435842,0.9581688,0.22602014,-0.032375857,-0.38728857
181,1.81,-0.086449938958778,0.3506096222285729,0.9181786382952204,0.22602014,-0.032375857,-0.38728857
182,1.82,-0.2111095,0.4058672,0.7822035,0.22602014,-0.032375857,-0.38728857
183,1.83,-0.2111095,0.4058672,0.7822035,0.22602014,-0.032375857,-0.38728857
184,1.84,-0.2111095,0.4058672,0.7822035,0.22602014,-0.032375857,-0.38728857
185,1.85,-0.2111095,0.4058672,0.7822035,0.22602014,-0.032375857,-0.38728857
186,1.86,-0.2111095,0.4058672,0.7822035,0.22602014,-0.032375857,-0.38728857
187,1.87,-0.2111095,0.4058672,0.7822035,0.22602014,-0.032375857,-0.38728857
188,1.88,-0.1702710739325235,0.3929184331275235,0.8045976557074381,0.2052156898101458,0.0398379368694761,-0.3693210884354658
189,1.89,0.0781230263114276,0.3139772448995603,0.941045291978338,0.07819075,0.48075095,-0.25961772
190,1.9,-0.1198815188900997,0.3388660774380806,0.8820495175542473,0.07819075,0.48075095,-0.25961772
191,1.91,-0.18304294,0.34680536,0.86323047,0.07819075,0.48075095,-0.25961772
192,1.92,-0.18304294,0.34680536,0.86323047,0.07819075,0.48075095,-0.25961772
193,1.93,-0.18304294,0.34680536,0.86323047,0.07819075,0.48075095,-0.25961772
194,1.94,-0.18304294,0.34680536,0.86323047,0.07819075,0.48075095,-0.25961772
195,1.95,-0.18304294,0.34680536,0.86323047,0.07819075,0.48075095,-0.25961772
196,1.96,-0.18304294,0.34680536,0.86323047,0.07819075,0.48075095,-0.25961772
197,1.97,-0.1453109932522737,0.3359029072681854,0.8729004622644292,0.07819075,0.48075095,-0.25961772
198,1.98,-0.08590815,0.31873876,0.8881243,0.07819075,0.48075095,-0.25961772
199,1.99,-0.08590815,0.31873876,0.8881243,0.07819075,0.48075095,-0.25961772
200,2.0,-0.08590815,0.31873876,0.8881243,0.07819075,0.48075095,-0.25961772
201,2.01,-0.08590815,0.31873876,0.8881243,0.07819075,0.48075095,-0.25961772
202,2.02,-0.08590815,0.31873876,0.8881243,0.07819075,0.48075095,-0.25961772
203,2.03,-0.08590815,0.31873876,0.8881243,0.07819075,0.48075095,-0.25961772
204,2.04,-0.08590815,0.31873876,0.8881243,0.07819075,0.48075095,-0.25961772
205,2.05,-0.08590815,0.31873876,0.8881243,0.07819075,0.48075095,-0.25961772
206,2.06,-0.08590815,0.31873876,0.8881243,0.07819075,0.48075095,-0.25961772
207,2.07,-0.0889886280804502,0.3293611051122501,0.892585680246557,0.0343217452484301,0.2741678145965763,-0.2694550146968205
208,2.08,-0.09298581,0.3431445,0.8983747,0.0297169117335596,0.0710465099206078,-0.267332243204069
209,2.09,-0.0945194960617572,0.3434055518941126,0.9023992673044356,0.20280726,0.28588495,-0.2180789
210,2.1,-0.1253076110040105,0.3486460609671502,0.98319079553925,0.20280726,0.28588495,-0.2180789
211,2.11,-0.0020718605301442,0.3068501651321098,0.9901812729820728,0.20280726,0.28588495,-0.2180789
212,2.12,0.035144243,0.29433304,0.9906283,0.20280726,0.28588495,-0.2180789
213,2.13,0.035144243,0.29433304,0.9906283,0.2013061014646827,0.2618663970520503,-0.2363430057523227
214,2.14,0.035144243,0.29433304,0.9906283,0.1445498103736471,0.2013588919718145,-0.2022784495683282
215,2.15,0.035144243,0.29433304,0.9906283,-0.025045475,0.12095132,-0.014660766
216,2.16,0.035144243,0.29433304,0.9906283,-0.025045475,0.12095132,-0.014660766
217,2.17,0.035144243,0.29433304,0.9906283,-0.025045475,0.12095132,-0.014660766
218,2.18,0.035144243,0.29433304,0.9906283,-0.025045475,0.12095132,-0.014660766
219,2.19,0.035144243,0.29433304,0.9906283,-0.025045475,0.12095132,-0.014660766
220,2.2,0.035144243,0.29433304,0.9906283,-0.025045475,0.12095132,-0.014660766
221,2.21,0.035144243,0.29433304,0.9906283,-0.025045475,0.12095132,-0.014660766
222,2.22,0.035144243,0.29433304,0.9906283,-0.025045475,0.12095132,-0.014660766
223,2.23,0.035144243,0.29433304,0.9906283,-0.025045475,0.12095132,-0.014660766
224,2.24,-0.1341906838204258,0.3490469640074476,1.011586535052334,0.2711307270186796,0.2708963300583359,-0.2662712792740409
225,2.25,-0.18768002,0.36632994,1.0182068,0.36468655,0.3182608,-0.34574974
226,2.26,-0.204083844244015,0.3590131238732976,0.9547157914382778,0.36468655,0.3182608,-0.34574974
227,2.27,-0.20123794154084,0.3642846475919776,0.9082233913679708,0.36468655,0.3182608,-0.34574974
228,2.28,-0.16425052,0.38805103,0.9469421,0.3188769683562522,0.3111095305710194,-0.3251250607121373
229,2.29,-0.1678721138108883,0.3871712909021814,0.9391710712024732,0.09468412,0.2761111,-0.22418754
230,2.3,-0.2158332695699373,0.375520811554953,0.83625850230927,0.09468412,0.2761111,-0.22418754
231,2.31,-0.22453266,0.3734076,0.8175918,0.09468412,0.2761111,-0.22418754
232,2.32,-0.22453266,0.3734076,0.8175918,0.09468412,0.2761111,-0.22418754
233,2.33,-0.223283404666248,0.3708198481904117,0.8243734759903395,0.09468412,0.2761111,-0.22418754
234,2.34,-0.22111587,0.36632994,0.8361401,0.09468412,0.2761111,-0.22418754
235,2.35,-0.22111587,0.36632994,0.8361401,0.09468412,0.2761111,-0.22418754
236,2.36,-0.22111587,0.36632994,0.8361401,0.09468412,0.2761111,-0.22418754
237,2.37,-0.0201257478581444,0.3185549567575074,0.9214645144501608,0.09468412,0.2761111,-0.22418754
238,2.38,-0.1230984108660493,0.3346303282045886,0.8161548260720601,0.09468412,0.2761111,-0.22418754
239,2.39,-0.32996538,0.37487194,0.6628595,0.0307776147444226,0.1861913683613271,-0.1242312163395389
240,2.4,-0.32996538,0.37487194,0.6628595,-0.09590584,0.007941248,0.07391469
241,2.41,-0.32996538,0.37487194,0.6628595,-0.09590584,0.007941248,0.07391469
242,2.42,-0.32996538,0.37487194,0.6628595,-0.09590584,0.007941248,0.07391469
243,2.43,-0.32996538,0.37487194,0.6628595,-0.09590584,0.007941248,0.07391469
244,2.44,-0.32996538,0.37487194,0.6628595,-0.09590584,0.007941248,0.07391469
245,2.45,-0.32996538,0.37487194,0.6628595,-0.09590584,0.007941248,0.07391469
246,2.46,-0.2805919058186534,0.4545769950020858,0.838978303653997,-0.09590584,0.007941248,0.07391469
247,2.47,-0.16986385,0.63332856,1.2339534,-0.09590584,0.007941248,0.07391469
248,2.48,-0.16986385,0.63332856,1.2339534,-0.09590584,0.007941248,0.07391469
249,2.49,-0.16986385,0.63332856,1.2339534,-0.09590584,0.007941248,0.07391469
250,2.5,-0.16986385,0.63332856,1.2339534,-0.09590584,0.007941248,0.07391469
251,2.51,-0.16986385,0.63332856,1.2339534,-0.09590584,0.007941248,0.07391469
252,2.52,-0.16986385,0.63332856,1.2339534,0.2249286098265915,0.0128989556140604,0.0699013079034074
253,2.53,-0.16986385,0.63332856,1.2339534,0.73426,0.02076942,0.06352998
254,2.54,-0.1458317442938199,0.617691598291915,1.2239489692829395,0.73426,0.02076942,0.06352998
255,2.55,0.0424644342098098,0.4951729905162001,1.1455623270486568,0.73426,0.02076942,0.06352998
256,2.56,-0.0233236901029967,0.4617827322180486,0.9167612126385492,0.73426,0.02076942,0.06352998
257,2.57,-0.037828874,0.45589894,0.8712844,-0.0231716029286296,0.2615938305269923,0.0462665856603227
258,2.58,-0.037828874,0.45589894,0.8712844,-0.3378085,0.36163223,0.039095376
259,2.59,-0.037828874,0.45589894,0.8712844,-0.2379488734137766,0.2328875950571292,0.0553947765593805
260,2.6,-0.037828874,0.45589894,0.8712844,-0.0421497,-0.019547688,0.08735373
261,2.61,-0.037828874,0.45589894,0.8712844,-0.0421497,-0.019547688,0.08735373
262,2.62,-0.037828874,0.45589894,0.8712844,-0.0421497,-0.019547688,0.08735373
263,2.63,-0.0384403964419818,0.4045307809208808,0.82236233737058,-0.0421497,-0.019547688,0.08735373
264,2.64,-0.038561042,0.3943965,0.81271064,-0.0421497,-0.019547688,0.08735373
265,2.65,-0.0543101476706959,0.3907525911934957,0.825804020104403,-0.0421497,-0.019547688,0.08735373
266,2.66,-0.0983468890338493,0.3810570381657438,0.8616609248313056,-0.0421497,-0.019547688,0.08735373
267,2.67,-0.0591848005568681,0.3980078093703724,0.817043346438722,-0.0421497,-0.019547688,0.08735373
268,2.68,-0.051740136,0.40123013,0.8085616,-0.0416856332850452,-0.0023770720140883,-0.0017478435235334
269,2.69,-0.051740136,0.40123013,0.8085616,-0.04153884,0.0030543262,-0.029932396
270,2.7,-0.0294956131160771,0.3684487248816373,0.7885285501865791,-0.04153884,0.0030543262,-0.029932396
271,2.71,0.0192486400903955,0.3181369556269076,0.8432263826618805,-0.006915334859233,0.0262146407807524,0.1284467335141135
272,2.72,0.0646104235225695,0.2852101133076212,0.959287130399458,0.04886922,0.06352998,0.38362336
273,2.73,0.0567127808183282,0.2934930152493771,0.957746172375748,0.04886922,0.06352998,0.38362336
274,2.74,0.056377225,0.29384494,0.9576807,0.04886922,0.06352998,0.38362336
275,2.75,0.056377225,0.29384494,0.9576807,0.0752146213591053,0.0563448733898646,0.3583044109239182
276,2.76,0.056377225,0.29384494,0.9576807,0.09590584,0.050701816,0.33841935
277,2.77,0.056377225,0.29384494,0.9576807,0.09590584,0.050701816,0.33841935
278,2.78,0.056377225,0.29384494,0.9576807,0.09590584,0.050701816,0.33841935
279,2.79,0.056377225,0.29384494,0.9576807,0.09590584,0.050701816,0.33841935
280,2.8,0.056377225,0.29384494,0.9576807,0.09590584,0.050701816,0.33841935
281,2.81,-0.0448915201440419,0.3301978146880292,0.934214790025008,0.0155074755695996,0.016761187556561,0.2370788930044328
282,2.82,-0.20061506,0.38609856,0.89813066,-0.108123146,-0.035430185,0.08124508
283,2.83,-0.20061506,0.38609856,0.89813066,-0.108123146,-0.035430185,0.08124508
284,2.84,-0.20061506,0.38609856,0.89813066,-0.108123146,-0.035430185,0.08124508
285,2.85,-0.20061506,0.38609856,0.89813066,-0.5579249140589103,-0.3223726635229371,0.1843436593153461
286,2.86,-0.20061506,0.38609856,0.89813066,-0.7104363,-0.4196644,0.21930063
287,2.87,-0.1079056350053243,0.4538519658721596,0.8096900451695104,-0.7104363,-0.4196644,0.21930063
288,2.88,0.0061014313,0.53717,0.70093244,-0.4630773284094552,-0.2801285810535581,0.1479470802032214
289,2.89,0.0061014313,0.53717,0.70093244,0.051923547,0.01038471,-0.00061086525
290,2.9,0.0061014313,0.53717,0.70093244,0.051923547,0.01038471,-0.00061086525
291,2.91,0.0061014313,0.53717,0.70093244,0.051923547,0.01038471,-0.00061086525
292,2.92,0.0061014313,0.53717,0.70093244,0.051923547,0.01038471,-0.00061086525
293,2.93,0.0061014313,0.53717,0.70093244,0.051923547,0.01038471,-0.00061086525
294,2.94,0.0404384329600169,0.4254831134329205,0.8134747263626775,0.051923547,0.01038471,-0.00061086525
295,2.95,0.07468152,0.3141017,0.9257092,0.1027873897618104,0.1032575629380837,-0.073920699063832
296,2.96,0.07468152,0.3141017,0.9257092,0.20280726,0.28588495,-0.2180789
297,2.97,0.07468152,0.3141017,0.9257092,0.20280726,0.28588495,-0.2180789
298,2.98,0.07468152,0.3141017,0.9257092,0.20280726,0.28588495,-0.2180789
299,2.99,0.07468152,0.3141017,0.9257092,0.20280726,0.28588495,-0.2180789
300,3.0,0.07468152,0.3141017,0.9257092,0.20280726,0.28588495,-0.2180789
301,3.01,0.07468152,0.3141017,0.9257092,0.20280726,0.28588495,-0.2180789
302,3.02,0.0132155591724952,0.3283852063450412,0.9202065047685914,0.20280726,0.28588495,-0.2180789
303,3.03,-0.05344854,0.34387666,0.91423845,0.20280726,0.28588495,-0.2180789
304,3.04,-0.05344854,0.34387666,0.91423845,0.20280726,0.28588495,-0.2180789
305,3.05,-0.05344854,0.34387666,0.91423845,0.20280726,0.28588495,-0.2180789
306,3.06,-0.0409910127788149,0.3522532798078017,0.85538731516495,0.20280726,0.28588495,-0.2180789
307,3.07,-0.03929322,0.3533949,0.8473667,-0.001481102032989,0.10639979467481,-0.0029673057833242
308,3.08,-0.03929322,0.3533949,0.8473667,-0.07391469,0.042760566,0.073303826
309,3.09,-0.03929322,0.3533949,0.8473667,-0.1041671979423618,0.0665814385675082,-0.002684750346413
310,3.1,-0.0011296446198164,0.3540229034268793,0.8134059645940762,-0.15149458,0.103847094,-0.12156218
311,3.11,0.1523790314369153,0.3565489763552922,0.6768027381368582,-0.15149458,0.103847094,-0.12156218
312,3.12,-0.0084103070515802,0.3233975696403415,0.9455195286034992,-0.15149458,0.103847094,-0.12156218
313,3.13,-0.02757847,0.31947094,0.97744924,-0.15149458,0.103847094,-0.12156218
314,3.14,-0.02757847,0.31947094,0.97744924,-0.1264981939388025,-0.086866058233965,-0.237286189963565
315,3.15,-0.02757847,0.31947094,0.97744924,-0.118507855,-0.14782938,-0.2742785
316,3.16,-0.02757847,0.31947094,0.97744924,-0.118507855,-0.14782938,-0.2742785
317,3.17,-0.02757847,0.31947094,0.97744924,-0.118507855,-0.14782938,-0.2742785
318,3.18,-0.02757847,0.31947094,0.97744924,-0.118507855,-0.14782938,-0.2742785
319,3.19,-0.02757847,0.31947094,0.97744924,-0.118507855,-0.14782938,-0.2742785
320,3.2,-0.02757847,0.31947094,0.97744924,-0.118507855,-0.14782938,-0.2742785
321,3.21,-0.0183008408812289,0.3357067884422071,0.9025460275009574,-0.118507855,-0.14782938,-0.2742785
322,3.22,-0.010982576,0.34851375,0.8434618,-0.118507855,-0.14782938,-0.2742785
323,3.23,-0.010982576,0.34851375,0.8434618,-0.118507855,-0.14782938,-0.2742785
324,3.24,-0.010982576,0.34851375,0.8434618,-0.1173715738632227,-0.1471029052468325,-0.2717404949051716
325,3.25,-0.010982576,0.34851375,0.8434618,-0.0327135427934891,-0.0929772841884191,-0.0826477543686861
326,3.26,-0.010982576,0.34851375,0.8434618,0.030543262,-0.052534413,0.058643065
327,3.27,-0.010982576,0.34851375,0.8434618,0.030543262,-0.052534413,0.058643065
328,3.28,-0.010982576,0.34851375,0.8434618,0.030543262,-0.052534413,0.058643065
329,3.29,-0.010982576,0.34851375,0.8434618,0.030543262,-0.052534413,0.058643065
330,3.3,-0.010982576,0.34851375,0.8434618,0.030543262,-0.052534413,0.058643065
331,3.31,-0.0624466077590073,0.191980896266954,0.9182173774269392,0.0112535596266798,-0.018027277826556,0.1019377322994152
332,3.32,-0.15766099,-0.0976229,1.0565238,-0.02443461,0.045814894,0.18203785
333,3.33,-0.15766099,-0.0976229,1.0565238,-0.02443461,0.045814894,0.18203785
334,3.34,-0.15766099,-0.0976229,1.0565238,-0.02443461,0.045814894,0.18203785
335,3.35,-0.15766099,-0.0976229,1.0565238,-0.02443461,0.045814894,0.18203785
336,3.36,-0.15766099,-0.0976229,1.0565238,-0.02443461,0.045814894,0.18203785
337,3.37,-0.046593931596693,0.1783200969772442,0.9620133496815436,-0.02443461,0.045814894,0.18203785
338,3.38,0.0388051,0.3904916,0.88934463,-0.02443461,0.045814894,0.18203785
339,3.39,0.0388051,0.3904916,0.88934463,-0.02443461,0.045814894,0.18203785
340,3.4,0.0388051,0.3904916,0.88934463,-0.02443461,0.045814894,0.18203785
341,3.41,0.0388051,0.3904916,0.88934463,-0.02443461,0.045814894,0.18203785
342,3.42,0.0388051,0.3904916,0.88934463,-0.02443461,0.045814894,0.18203785
343,3.43,0.0388051,0.3904916,0.88934463,-0.02443461,0.045814894,0.18203785
344,3.44,0.0388051,0.3904916,0.88934463,-0.02443461,0.045814894,0.18203785
345,3.45,0.0388051,0.3904916,0.88934463,-0.0243706781333116,0.045411631490334,0.1806116776796753
346,3.46,0.0388051,0.3904916,0.88934463,-0.0180434085680035,0.0055011652954516,0.0394649040171822
347,3.47,0.0388051,0.3904916,0.88934463,-0.016493361,-0.004276057,0.004886922
348,3.48,-0.0102291476929887,0.3629709519737469,0.877749591793154,-0.016493361,-0.004276057,0.004886922
349,3.49,-0.046858992,0.34241232,0.8690878,-0.0382521031749459,0.085973264237434,0.0773336362609667
350,3.5,-0.046858992,0.34241232,0.8690878,-0.070249505,0.21868975,0.18387043
351,3.51,-0.046858992,0.34241232,0.8690878,-0.0707178068530023,0.2165397010706352,0.1838160966343185
352,3.52,-0.046858992,0.34241232,0.8690878,-0.1587827429749033,-0.1877805475245278,0.1735986175717128
353,3.53,-0.046858992,0.34241232,0.8690878,-0.18081611,-0.28893927,0.17104226
354,3.54,-0.046858992,0.34241232,0.8690878,-0.18081611,-0.28893927,0.17104226
355,3.55,-0.046858992,0.34241232,0.8690878,-0.18081611,-0.28893927,0.17104226
356,3.56,-0.046858992,0.34241232,0.8690878,-0.1806431277160553,-0.2883224888869623,0.1712223317305629
357,3.57,-0.046858992,0.34241232,0.8690878,-0.1249351819638439,-0.0896916927003792,0.2292133928320498
358,3.58,-0.046858992,0.34241232,0.8690878,-0.10629055,-0.02321288,0.24862215
359,3.59,-0.046858992,0.34241232,0.8690878,-0.10629055,-0.02321288,0.24862215
360,3.6,-0.046858992,0.34241232,0.8690878,-0.10629055,-0.02321288,0.24862215
361,3.61,-0.046858992,0.34241232,0.8690878,-0.10629055,-0.02321288,0.24862215
362,3.62,-0.046858992,0.34241232,0.8690878,-0.10629055,-0.02321288,0.24862215
363,3.63,-0.046858992,0.34241232,0.8690878,-0.10629055,-0.02321288,0.24862215
364,3.64,-0.046858992,0.34241232,0.8690878,-0.10629055,-0.02321288,0.24862215
365,3.65,-0.046858992,0.34241232,0.8690878,-0.10629055,-0.02321288,0.24862215
366,3.66,-0.046858992,0.34241232,0.8690878,-0.0869476884271186,-0.0193443072383927,0.2351959277627179
367,3.67,-0.046858992,0.34241232,0.8690878,-0.054367006,-0.01282817,0.2125811
368,3.68,-0.0370199581428094,0.3507116588468444,0.8688249405542712,-0.054367006,-0.01282817,0.2125811
369,3.69,0.0165335252691048,0.3955181269004554,0.8688668285520305,-0.054367006,-0.01282817,0.2125811
370,3.7,-0.018515535392217,0.342617973903406,0.9635645651343644,-0.054367006,-0.01282817,0.2125811
371,3.71,-0.022209208,0.33704305,0.97354436,-0.054367006,-0.01282817,0.2125811
372,3.72,-0.022209208,0.33704305,0.97354436,-0.054367006,-0.01282817,0.2125811
373,3.73,-0.022209208,0.33704305,0.97354436,-0.054367006,-0.01282817,0.2125811
374,3.74,-0.022209208,0.33704305,0.97354436,-0.054367006,-0.01282817,0.2125811
375,3.75,-0.022209208,0.33704305,0.97354436,-0.054367006,-0.01282817,0.2125811
376,3.76,-0.018095786817042,0.3796730918846392,0.9015594797219072,-0.054367006,-0.01282817,0.2125811
377,3.77,-0.016839951,0.39268813,0.87958235,0.0048199953926625,-0.0170811283402404,0.1888354227507994
378,3.78,-0.016839951,0.39268813,0.87958235,0.047647487,-0.020158553,0.17165314
379,3.79,-0.016839951,0.39268813,0.87958235,0.047647487,-0.020158553,0.17165314
380,3.8,-0.016839951,0.39268813,0.87958235,0.047647487,-0.020158553,0.17165314
381,3.81,-0.016839951,0.39268813,0.87958235,0.047647487,-0.020158553,0.17165314
382,3.82,-0.016839951,0.39268813,0.87958235,0.047647487,-0.020158553,0.17165314
383,3.83,-0.016839951,0.39268813,0.87958235,0.047647487,-0.020158553,0.17165314
384,3.84,-0.016839951,0.39268813,0.87958235,0.047647487,-0.020158553,0.17165314
385,3.85,-0.016839951,0.39268813,0.87958235,0.047647487,-0.020158553,0.17165314
386,3.86,-0.016839951,0.39268813,0.87958235,0.047647487,-0.020158553,0.17165314
387,3.87,-0.0003919159616253,0.3785596778536533,0.9542311074035236,0.047647487,-0.020158553,0.17165314
388,3.88,0.0021965152,0.37633628,0.9659786,0.047647487,-0.020158553,0.17165314
389,3.89,0.0021965152,0.37633628,0.9659786,0.047647487,-0.020158553,0.17165314
390,3.9,0.0021965152,0.37633628,0.9659786,0.047647487,-0.020158553,0.17165314
391,3.91,0.0021965152,0.37633628,0.9659786,0.047647487,-0.020158553,0.17165314
392,3.92,0.0021965152,0.37633628,0.9659786,0.047647487,-0.020158553,0.17165314
393,3.93,0.0021965152,0.37633628,0.9659786,0.047647487,-0.020158553,0.17165314
394,3.94,0.0021965152,0.37633628,0.9659786,0.047647487,-0.020158553,0.17165314
395,3.95,0.0021965152,0.37633628,0.9659786,0.047647487,-0.020158553,0.17165314
396,3.96,0.0021965152,0.37633628,0.9659786,0.047647487,-0.020158553,0.17165314
397,3.97,0.0021965152,0.37633628,0.9659786,0.047647487,-0.020158553,0.17165314
398,3.98,0.0021965152,0.37633628,0.9659786,0.047647487,-0.020158553,0.17165314
399,3.99,0.0021965152,0.37633628,0.9659786,0.047647487,-0.020158553,0.17165314
400,4.0,0.0021965152,0.37633628,0.9659786,0.047647487,-0.020158553,0.17165314
401,4.01,0.0090026678504754,0.3661270465950916,0.9543680799656808,0.047647487,-0.020158553,0.17165314
402,4.02,0.018792408,0.35144243,0.9376679,0.047647487,-0.020158553,0.17165314
403,4.03,0.018792408,0.35144243,0.9376679,0.047647487,-0.020158553,0.17165314
404,4.04,0.018792408,0.35144243,0.9376679,0.047647487,-0.020158553,0.17165314
405,4.05,0.018792408,0.35144243,0.9376679,0.047647487,-0.020158553,0.17165314
406,4.06,0.018792408,0.35144243,0.9376679,-0.0194561837389553,-0.0348198599255382,0.0935534860667804
407,4.07,0.018792408,0.35144243,0.9376679,-0.09773844,-0.051923547,0.002443461
408,4.08,0.018792408,0.35144243,0.9376679,-0.0872858615062026,-0.0541422544882359,0.000372667059128
409,4.09,0.018792408,0.35144243,0.9376679,0.0157895990442477,-0.0760214775251506,-0.0200479439209394
410,4.1,0.018792408,0.35144243,0.9376679,0.03176499,-0.07941248,-0.02321288
411,4.11,0.018792408,0.35144243,0.9376679,0.03176499,-0.07941248,-0.02321288
412,4.12,0.0103314161933203,0.349455940966409,0.9307519711969016,0.03176499,-0.07941248,-0.02321288
413,4.13,-0.009274175,0.3448529,0.91472656,0.03176499,-0.07941248,-0.02321288
414,4.14,-0.009274175,0.3448529,0.91472656,0.03176499,-0.07941248,-0.02321288
415,4.15,0.0006697691518887,0.3396897025714714,0.9074598434972148,0.03176499,-0.07941248,-0.02321288
416,4.16,0.0034168016,0.33826336,0.9054524,0.03176499,-0.07941248,-0.02321288
417,4.17,0.0034168016,0.33826336,0.9054524,0.03176499,-0.07941248,-0.02321288
418,4.18,-0.0036334508133626,0.3403128549100195,0.9171754850879243,0.0028329530723539,-0.0539687024616522,-0.002488512184126
419,4.19,-0.017572122,0.3443648,0.94035256,-0.054367006,-0.0036651916,0.03848451
420,4.2,-0.017572122,0.3443648,0.94035256,-0.054367006,-0.0036651916,0.03848451
421,4.21,-0.017572122,0.3443648,0.94035256,-0.054367006,-0.0036651916,0.03848451
422,4.22,-0.017572122,0.3443648,0.94035256,-0.0795121143192441,-0.0316435511313353,0.0175892801802023
423,4.23,-0.058186268547851,0.4246803993926181,0.8483546737227136,-0.09773844,-0.051923547,0.002443461
424,4.24,-0.1261776,0.55913514,0.69434285,-0.09773844,-0.051923547,0.002443461
425,4.25,-0.1261776,0.55913514,0.69434285,-0.09773844,-0.051923547,0.002443461
426,4.26,-0.1261776,0.55913514,0.69434285,-0.09773844,-0.051923547,0.002443461
427,4.27,-0.0181413758784615,0.3895951626395266,0.9148662159246708,-0.09773844,-0.051923547,0.002443461
428,4.28,0.004148973,0.35461518,0.96036524,-0.09773844,-0.051923547,0.002443461
429,4.29,0.004148973,0.35461518,0.96036524,-0.09773844,-0.051923547,0.002443461
430,4.3,0.004148973,0.35461518,0.96036524,-0.09773844,-0.051923547,0.002443461
431,4.31,0.0106545705010957,0.3476131725770368,0.9605742554026016,-0.091329773785278,-0.0557164308306492,-0.0020687629247141
432,4.32,0.0591272837292505,0.2954417466968568,0.962131613303834,-0.0435792882151424,-0.0839769203859592,-0.0356890009254588
433,4.33,0.064919226,0.28920785,0.9623177,-0.0425907210483202,-0.0496171220373925,0.0207580998323485
434,4.34,0.064919226,0.28920785,0.9623177,-0.044593163,-0.03359759,0.04642576
435,4.35,0.064919226,0.28920785,0.9623177,-0.0477895233221709,-0.0208121460016216,0.0242795450317333
436,4.36,0.047725986566089,0.3099058607643019,0.9626483565061116,-0.053145275,0.00061086525,-0.01282817
437,4.37,0.0014643435,0.36559775,0.96353805,-0.0497959982470245,-0.0016666429924654,-0.0089876659528817
438,4.38,0.0014643435,0.36559775,0.96353805,-0.0106815248764081,-0.0282644854735722,0.0358635972779917
439,4.39,0.0014643435,0.36559775,0.96353805,0.0057753025483243,-0.4582254703261403,0.0300954047417245
440,4.4,0.0014643435,0.36559775,0.96353805,0.010995574,-0.62858033,0.026267206
441,4.41,0.0014643435,0.36559775,0.96353805,0.010995574,-0.62858033,0.026267206
442,4.42,0.0014643435,0.36559775,0.96353805,0.010995574,-0.62858033,0.026267206
443,4.43,0.0014643435,0.36559775,0.96353805,0.010995574,-0.62858033,0.026267206
444,4.44,0.0014643435,0.36559775,0.96353805,0.010995574,-0.62858033,0.026267206
445,4.45,0.0014643435,0.36559775,0.96353805,0.010995574,-0.62858033,0.026267206
446,4.46,0.0014643435,0.36559775,0.96353805,0.010995574,-0.62858033,0.026267206
447,4.47,0.0014643435,0.36559775,0.96353805,0.010995574,-0.62858033,0.026267206
448,4.48,0.0014643435,0.36559775,0.96353805,0.010995574,-0.62858033,0.026267206
449,4.49,0.0014643435,0.36559775,0.96353805,0.010995574,-0.62858033,0.026267206
450,4.5,0.0154315203032687,0.3528876301513806,0.9631189899055458,0.010995574,-0.62858033,0.026267206
451,4.51,0.025870068,0.34338856,0.9628058,0.010995574,-0.62858033,0.026267206
452,4.52,0.0341628967960659,0.3287957501128395,0.9550272536329482,0.010995574,-0.62858033,0.026267206
453,4.53,0.05735345,0.28798756,0.93327487,0.010995574,-0.62858033,0.026267206
454,4.54,0.05735345,0.28798756,0.93327487,0.010995574,-0.62858033,0.026267206
455,4.55,0.05735345,0.28798756,0.93327487,0.010995574,-0.62858033,0.026267206
456,4.56,0.05735345,0.28798756,0.93327487,0.010995574,-0.62858033,0.026267206
457,4.57,0.05735345,0.28798756,0.93327487,0.010995574,-0.62858033,0.026267206
458,4.58,0.05735345,0.28798756,0.93327487,0.010995574,-0.62858033,0.026267206
459,4.59,0.05735345,0.28798756,0.93327487,0.010995574,-0.62858033,0.026267206
460,4.6,0.05735345,0.28798756,0.93327487,0.010995574,-0.62858033,0.026267206
461,4.61,0.05735345,0.28798756,0.93327487,-0.0800754710073943,-0.189126419395423,-0.0166181000610021
462,4.62,0.05735345,0.28798756,0.93327487,-0.10445796,-0.07147124,-0.028099801
463,4.63,0.037527078230928,0.3119983951189914,0.941643824459068,-0.0493472268154136,-0.0806979219817775,-0.008150214177226
464,4.64,0.008786061,0.34680536,0.95377576,0.030543262,-0.09407325,0.02076942
465,4.65,0.0099229655590596,0.3407839728116963,0.9509124333632376,0.030543262,-0.09407325,0.02076942
466,4.66,0.0150973691135553,0.3133787812132695,0.937880550071996,0.030543262,-0.09407325,0.02076942
467,4.67,0.015375607,0.31190515,0.9371798,0.030543262,-0.09407325,0.02076942
468,4.68,0.015375607,0.31190515,0.9371798,0.0038300219444743,-0.0964302996852418,0.0078056404610353
469,4.69,0.0066332363997716,0.3090265627306537,0.9476280380029052,-0.010995574,-0.09773844,0.00061086525
470,4.7,-0.0046370877,0.3053156,0.9610975,-0.010995574,-0.09773844,0.00061086525
471,4.71,-0.0041683725130703,0.3053707427382223,0.9605184963061688,-0.010995574,-0.09773844,0.00061086525
472,4.72,0.0079682211221041,0.3067985714589392,0.9455261667609588,-0.010995574,-0.09773844,0.00061086525
473,4.73,0.011958805,0.30726805,0.9405966,-0.010995574,-0.09773844,0.00061086525
474,4.74,0.005415787561953,0.3084698313371001,0.9442019658964884,-0.010995574,-0.09773844,0.00061086525
475,4.75,0.0,0.30946457,0.9471862,-0.010995574,-0.09773844,0.00061086525
476,4.76,0.0,0.30946457,0.9471862,-0.010995574,-0.09773844,0.00061086525
477,4.77,0.0,0.30946457,0.9471862,-0.010995574,-0.09773844,0.00061086525
478,4.78,0.0,0.30946457,0.9471862,-0.010995574,-0.09773844,0.00061086525
479,4.79,0.0,0.30946457,0.9471862,-0.0184164795859414,-0.0419332327343511,0.0041728996348361
480,4.8,0.0,0.30946457,0.9471862,-0.026267206,0.017104227,0.007941248
481,4.81,0.0,0.30946457,0.9471862,-0.026267206,0.017104227,0.007941248
482,4.82,0.0,0.30946457,0.9471862,-0.026267206,0.017104227,0.007941248
483,4.83,0.0,0.30946457,0.9471862,-0.026267206,0.017104227,0.007941248
484,4.84,0.0,0.30946457,0.9471862,0.7002388618134003,-0.3946344041881613,0.257888378802878
485,4.85,0.0247477822563432,0.3262344585092084,0.9103901123179924,0.829555,-0.46792278,0.3023783
486,4.86,0.0271314967413585,0.3254563432246163,0.9030865155814782,0.829555,-0.46792278,0.3023783
487,4.87,0.0153750273483259,0.3542445399272375,0.9228810549424415,0.829555,-0.46792278,0.3023783
488,4.88,0.0102504045,0.40147418,0.9374239,0.829555,-0.46792278,0.3023783
489,4.89,0.0102504045,0.40147418,0.9374239,0.829555,-0.46792278,0.3023783
490,4.9,0.0102504045,0.40147418,0.9374239,0.829555,-0.46792278,0.3023783
491,4.91,0.0437585348946154,0.3253970422038662,0.944775130480154,0.2133711191317327,-0.1354402250609581,0.1098208339888966
492,4.92,0.058085624,0.2928687,0.9479183,-0.0301028601356564,0.0408927070147941,0.0094351774383876
493,4.93,0.058085624,0.2928687,0.9479183,-0.012217305,0.07147124,-0.0067195175
494,4.94,0.0513928610803091,0.2970826636690264,0.9444893005541782,-0.012217305,0.07147124,-0.0067195175
495,4.95,0.0199287976162559,0.3168933789010533,0.92836886457338,-0.012217305,0.07147124,-0.0067195175
496,4.96,0.0473703376793957,0.2913578755729838,0.9549960264105252,-0.012217305,0.07147124,-0.0067195175
497,4.97,0.056377225,0.2831064,0.96353805,-0.012217305,0.07147124,-0.0067195175
498,4.98,0.056377225,0.2831064,0.96353805,-0.012217305,0.07147124,-0.0067195175
499,4.99,0.056377225,0.2831064,0.96353805,-0.012217305,0.07147124,-0.0067195175
500,5.0,0.056377225,0.2831064,0.96353805,-0.012217305,0.07147124,-0.0067195175
501,5.01,0.056377225,0.2831064,0.96353805,-0.012217305,0.07147124,-0.0067195175
502,5.02,0.056377225,0.2831064,0.96353805,-0.012217305,0.07147124,-0.0067195175
503,5.03,0.056377225,0.2831064,0.96353805,-0.012217305,0.07147124,-0.0067195175
504,5.04,0.056377225,0.2831064,0.96353805,-0.4461341375904745,0.7247208363204588,-0.7365426667254114
505,5.05,0.056377225,0.2831064,0.96353805,-0.9053023,1.4159856,-1.5088371
506,5.06,0.056377225,0.2831064,0.96353805,-0.9053023,1.4159856,-1.5088371
507,5.07,0.056377225,0.2831064,0.96353805,-0.9053023,1.4159856,-1.5088371
508,5.08,0.056377225,0.2831064,0.96353805,-0.9053023,1.4159856,-1.5088371
509,5.09,0.033212383837987,0.3117789632715374,0.9347034531833566,-0.2922482247839582,0.4874844200480511,-0.5187061571715756
510,5.1,0.021477038,0.32630453,0.9200958,0.018325957,0.017104227,-0.017104227
511,5.11,0.021477038,0.32630453,0.9200958,0.018325957,0.017104227,-0.017104227
512,5.12,0.021477038,0.32630453,0.9200958,0.0184320774713591,0.0160076487814791,-0.016149142757768
513,5.13,0.021477038,0.32630453,0.9200958,0.0247145627568024,-0.0489113666918164,0.0403932248112223
514,5.14,0.021477038,0.32630453,0.9200958,0.02565634,-0.058643065,0.04886922
515,5.15,0.021477038,0.32630453,0.9200958,0.02565634,-0.058643065,0.04886922
516,5.16,0.021477038,0.32630453,0.9200958,0.02565634,-0.058643065,0.04886922
517,5.17,0.0225785168030148,0.3276263029990423,0.9208301184999568,0.02565634,-0.058643065,0.04886922
518,5.18,0.0283450188967088,0.3345460973205519,0.9246744495536718,0.02565634,-0.058643065,0.04886922
519,5.19,0.028798755,0.33509058,0.92497694,0.02565634,-0.058643065,0.04886922
520,5.2,0.028798755,0.33509058,0.92497694,0.02565634,-0.058643065,0.04886922
521,5.21,0.028798755,0.33509058,0.92497694,0.02565634,-0.058643065,0.04886922
522,5.22,0.028798755,0.33509058,0.92497694,0.02565634,-0.058643065,0.04886922
523,5.23,0.028798755,0.33509058,0.92497694,0.02565634,-0.058643065,0.04886922
524,5.24,0.028798755,0.33509058,0.92497694,0.02565634,-0.058643065,0.04886922
525,5.25,0.028798755,0.33509058,0.92497694,0.02565634,-0.058643065,0.04886922
526,5.26,0.028798755,0.33509058,0.92497694,0.02565634,-0.058643065,0.04886922
527,5.27,0.028798755,0.33509058,0.92497694,0.02565634,-0.058643065,0.04886922
528,5.28,0.028798755,0.33509058,0.92497694,0.02565634,-0.058643065,0.04886922
529,5.29,0.028798755,0.33509058,0.92497694,0.02565634,-0.058643065,0.04886922
530,5.3,0.028798755,0.33509058,0.92497694,0.02565634,-0.058643065,0.04886922
531,5.31,0.0244936939469746,0.3299245128514154,0.922106902041914,0.02565634,-0.058643065,0.04886922
532,5.32,0.021477038,0.32630453,0.9200958,-0.0185185498362599,-0.0394903156489119,0.0349680303920589
533,5.33,0.021477038,0.32630453,0.9200958,-0.0326159757596217,-0.0079015369141986,0.0216376409650521
534,5.34,0.021477038,0.32630453,0.9200958,0.007330383,0.009773844,0.021991149
535,5.35,0.021611984493879,0.3260751216460386,0.9196909614030506,0.0032434195068127,0.009773844,0.027361621645526
536,5.36,0.02391761,0.32215557,0.9127741,-0.06658431,0.009773844,0.11911872
537,5.37,0.02391761,0.32215557,0.9127741,-0.06658431,0.009773844,0.11911872
538,5.38,0.02391761,0.32215557,0.9127741,-0.06658431,0.009773844,0.11911872
539,5.39,0.02391761,0.32215557,0.9127741,-0.06658431,0.009773844,0.11911872
540,5.4,0.02391761,0.32215557,0.9127741,-0.06658431,0.009773844,0.11911872
541,5.41,0.0194445081693615,0.319599509068085,0.9193772435886528,-0.06658431,0.009773844,0.11911872
542,5.42,0.008542004,0.3133695,0.9354714,-0.06658431,0.009773844,0.11911872
543,5.43,0.008542004,0.3133695,0.9354714,-0.06658431,0.009773844,0.11911872
544,5.44,0.008542004,0.3133695,0.9354714,-0.06658431,0.009773844,0.11911872
545,5.45,0.008542004,0.3133695,0.9354714,-0.06658431,0.009773844,0.11911872
546,5.46,0.008542004,0.3133695,0.9354714,-0.06658431,0.009773844,0.11911872
547,5.47,0.008542004,0.3133695,0.9354714,-0.06658431,0.009773844,0.11911872
548,5.48,0.008542004,0.3133695,0.9354714,-0.198396077730067,0.348068402248735,0.1959308608646327
549,5.49,0.008542004,0.3133695,0.9354714,-0.66828656,1.5540411,0.46975538
550,5.5,0.008542004,0.3133695,0.9354714,-0.66828656,1.5540411,0.46975538
551,5.51,-0.1093198937440081,0.3894647911832718,0.8975191481676771,-0.66828656,1.5540411,0.46975538
552,5.52,-0.14228538,0.41074833,0.88690406,-0.66828656,1.5540411,0.46975538
553,5.53,-0.0455545731059083,0.3689033215051854,0.8373205644060465,-0.66828656,1.5540411,0.46975538
554,5.54,0.022453265,0.33948365,0.80246025,-0.66828656,1.5540411,0.46975538
555,5.55,0.022453265,0.33948365,0.80246025,-0.66828656,1.5540411,0.46975538
556,5.56,0.0173096707711545,0.319279977442229,0.8561204446738918,-0.66828656,1.5540411,0.46975538
557,5.57,-0.0042830422939186,0.2344653351918489,1.0813849455381843,-0.66828656,1.5540411,0.46975538
558,5.58,-0.0046370877,0.23307467,1.0850785,-0.66828656,1.5540411,0.46975538
559,5.59,-0.0046370877,0.23307467,1.0850785,-0.66828656,1.5540411,0.46975538
560,5.6,-0.0046370877,0.23307467,1.0850785,-0.66828656,1.5540411,0.46975538
561,5.61,-0.0003096362965979,0.2575120368637034,1.004299427069717,-0.3201940473110931,0.914561832022031,0.2888067345748482
562,5.62,0.0078098318,0.30336314,0.85273606,0.33292156,-0.28527406,-0.050701816
563,5.63,0.0078098318,0.30336314,0.85273606,0.33292156,-0.28527406,-0.050701816
564,5.64,0.0078098318,0.30336314,0.85273606,0.33292156,-0.28527406,-0.050701816
565,5.65,0.0078098318,0.30336314,0.85273606,0.33292156,-0.28527406,-0.050701816
566,5.66,0.0078098318,0.30336314,0.85273606,0.33292156,-0.28527406,-0.050701816
567,5.67,0.0078098318,0.30336314,0.85273606,0.33292156,-0.28527406,-0.050701816
568,5.68,-0.0113635181357765,0.2944762305210255,0.8515464591075257,0.33292156,-0.28527406,-0.050701816
569,5.69,-0.05906185,0.2723679,0.84858704,0.33292156,-0.28527406,-0.050701816
570,5.7,-0.05906185,0.2723679,0.84858704,0.33292156,-0.28527406,-0.050701816
571,5.71,-0.0479013744092641,0.339166635074408,0.8046016249667726,0.33292156,-0.28527406,-0.050701816
572,5.72,-0.042465962,0.37169918,0.7831797,0.33292156,-0.28527406,-0.050701816
573,5.73,-0.042465962,0.37169918,0.7831797,0.2189447290961334,-0.1716992675593776,-0.0356255154574496
574,5.74,-0.042465962,0.37169918,0.7831797,-0.0772864487806895,0.095929954883325,-0.0016082709838989
575,5.75,-0.042465962,0.37169918,0.7831797,-0.23945917,0.18753563,0.0067195175
576,5.76,-0.042465962,0.37169918,0.7831797,-0.2301551261883388,0.1696231715544746,-0.0187579116347629
577,5.77,-0.042465962,0.37169918,0.7831797,-0.1168463720059399,-0.0485226574948945,-0.3290332944110324
578,5.78,-0.042465962,0.37169918,0.7831797,-0.10873401,-0.06414085,-0.35124752
579,5.79,-0.042465962,0.37169918,0.7831797,-0.10873401,-0.06414085,-0.35124752
580,5.8,-0.042465962,0.37169918,0.7831797,-0.10873401,-0.06414085,-0.35124752
581,5.81,-0.042465962,0.37169918,0.7831797,-0.10873401,-0.06414085,-0.35124752
582,5.82,-0.042465962,0.37169918,0.7831797,-0.10873401,-0.06414085,-0.35124752
583,5.83,-0.042465962,0.37169918,0.7831797,-0.10873401,-0.06414085,-0.35124752
584,5.84,-0.042465962,0.37169918,0.7831797,-0.1034872240791403,-0.0977947928138873,-0.367267291583045
585,5.85,-0.042465962,0.37169918,0.7831797,-0.0213840171404834,-0.624421316713988,-0.6179492597883072
586,5.86,-0.042465962,0.37169918,0.7831797,-0.005497787,-0.7263188,-0.66645396
587,5.87,-0.0238801269901676,0.302666089118081,0.9152984259431722,-0.005497787,-0.7263188,-0.66645396
588,5.88,0.00024405724,0.21306199,1.0867869,-0.005497787,-0.7263188,-0.66645396
589,5.89,-0.0001843408057591,0.2129334697253473,1.086044344979307,-0.005497787,-0.7263188,-0.66645396
590,5.9,-0.0118554132999875,0.2094321245224512,1.0658145293598091,-0.005497787,-0.7263188,-0.66645396
591,5.91,-0.014399378,0.20866893,1.061405,-0.2517329870737076,-1.000716887631672,-0.6105087328653994
592,5.92,-0.014399378,0.20866893,1.061405,-0.4007276,-1.1667526,-0.5766568
593,5.93,-0.014399378,0.20866893,1.061405,-0.4007276,-1.1667526,-0.5766568
594,5.94,-0.0109595272886828,0.2108857226527857,1.0620547459525305,-0.3605963429804629,-1.0867292482854478,-0.5346122522145313
595,5.95,0.0253938415163703,0.2343134489218116,1.068921455069942,0.0635227567937729,-0.2410185875510947,-0.0902729246797198
596,5.96,0.0206530913536636,0.4841779457884205,0.8430221918225228,0.11178834,-0.14477506,-0.03970624
597,5.97,0.01854835,0.5427833,0.78928113,0.11178834,-0.14477506,-0.03970624
598,5.98,0.01854835,0.5427833,0.78928113,0.11178834,-0.14477506,-0.03970624
599,5.99,0.01854835,0.5427833,0.78928113,0.11178834,-0.14477506,-0.03970624
600,6.0,0.01854835,0.5427833,0.78928113,0.11178834,-0.14477506,-0.03970624
601,6.01,0.0266665228735641,0.3856101749311331,0.9210350090865422,-0.0574293774309287,-0.3046658096288976,-0.0317117027912058
602,6.02,0.033435844,0.2545517,1.0308977,-0.19853121,-0.43799037,-0.025045475
603,6.03,0.033435844,0.2545517,1.0308977,-0.1487039130028246,-0.3869173939629835,-0.0011283726289631
604,6.04,0.033435844,0.2545517,1.0308977,0.045814894,-0.18753563,0.092240654
605,6.05,0.033435844,0.2545517,1.0308977,0.045814894,-0.18753563,0.092240654
606,6.06,0.0492435281633274,0.2844106780864379,0.9555478558639702,0.045814894,-0.18753563,0.092240654
607,6.07,0.055400997,0.29604146,0.9261973,0.045814894,-0.18753563,0.092240654
608,6.08,0.055400997,0.29604146,0.9261973,0.045814894,-0.18753563,0.092240654
609,6.09,0.055400997,0.29604146,0.9261973,0.0125938034212129,-0.1111821838979368,0.0760889626232479
610,6.1,0.0549595731847851,0.2929514955543559,0.93234963622894,-0.064751714,0.06658431,0.03848451
611,6.11,0.0518662700240083,0.2712983892720247,0.9754624916010062,-0.064751714,0.06658431,0.03848451
612,6.12,0.051496077,0.26870704,0.98062205,-0.064751714,0.06658431,0.03848451
613,6.13,0.051496077,0.26870704,0.98062205,0.0411455448919403,-0.0015673933233688,0.0769290622650571
614,6.14,0.051496077,0.26870704,0.98062205,0.12034045,-0.052534413,0.10567969
615,6.15,0.051496077,0.26870704,0.98062205,0.12034045,-0.052534413,0.10567969
616,6.16,0.051496077,0.26870704,0.98062205,0.12034045,-0.052534413,0.10567969
617,6.17,0.051496077,0.26870704,0.98062205,0.12034045,-0.052534413,0.10567969
618,6.18,0.051496077,0.26870704,0.98062205,0.12034045,-0.052534413,0.10567969
619,6.19,-0.0234769389969608,0.2905291564090166,0.9837548795828732,0.0916785426975973,-0.0376626668451756,0.0872928037483677
620,6.2,-0.117879644,0.3180066,0.9876996,0.055588737,-0.018936822,0.06414085
621,6.21,-0.117879644,0.3180066,0.9876996,0.055588737,-0.018936822,0.06414085
622,6.22,-0.117879644,0.3180066,0.9876996,0.055588737,-0.018936822,0.06414085
623,6.23,-0.117879644,0.3180066,0.9876996,0.055588737,-0.018936822,0.06414085
624,6.24,-0.117879644,0.3180066,0.9876996,0.055588737,-0.018936822,0.06414085
625,6.25,-0.0150001719668152,0.2954197302872854,0.9506863881900066,0.055588737,-0.018936822,0.06414085
626,6.26,0.054424766,0.2801777,0.9257092,0.055588737,-0.018936822,0.06414085
627,6.27,0.054424766,0.2801777,0.9257092,0.055588737,-0.018936822,0.06414085
628,6.28,0.054424766,0.2801777,0.9257092,0.055588737,-0.018936822,0.06414085
629,6.29,0.054424766,0.2801777,0.9257092,0.0444062319579616,-0.0222308931294873,0.0664813740256601
630,6.3,0.054424766,0.2801777,0.9257092,-0.0757908528049364,-0.057637784991155,0.0916389003262778
631,6.31,0.054424766,0.2801777,0.9257092,-0.1020145,-0.06536258,0.09712757
632,6.32,0.0546686503122092,0.2748123030898827,0.9761928898871324,-0.1020145,-0.06536258,0.09712757
633,6.33,0.054912884,0.26943922,1.0267489,-0.0009841551936333,0.0053381642089825,0.0948733458526409
634,6.34,0.053047878172779,0.2713042230484315,1.0016561072923478,0.19914207,0.14538592,0.09040806
635,6.35,0.046858992,0.2774931,0.9183875,0.1656134982547396,0.1353739167065574,0.0838110024829361
636,6.36,0.046858992,0.2774931,0.9183875,-0.0533870663970106,0.0699779197873309,0.0407206098394952
637,6.37,0.046858992,0.2774931,0.9183875,-0.064751714,0.06658431,0.03848451
638,6.38,0.046858992,0.2774931,0.9183875,-0.064751714,0.06658431,0.03848451
639,6.39,0.046858992,0.2774931,0.9183875,-0.064751714,0.06658431,0.03848451
640,6.4,0.0581312560817832,0.2937530874859592,0.9367423117618672,-0.064751714,0.06658431,0.03848451
641,6.41,0.07443746,0.31727442,0.96329397,-0.064751714,0.06658431,0.03848451
642,6.42,0.07443746,0.31727442,0.96329397,-0.064751714,0.06658431,0.03848451
643,6.43,0.07443746,0.31727442,0.96329397,-0.064751714,0.06658431,0.03848451
644,6.44,0.07443746,0.31727442,0.96329397,-0.064751714,0.06658431,0.03848451
645,6.45,0.07443746,0.31727442,0.96329397,-0.064751714,0.06658431,0.03848451
646,6.46,0.07443746,0.31727442,0.96329397,-0.064751714,0.06658431,0.03848451
647,6.47,0.07443746,0.31727442,0.96329397,-0.064751714,0.06658431,0.03848451
648,6.48,0.07443746,0.31727442,0.96329397,0.0613324881635641,-0.0176379424679617,0.0738678264592605
649,6.49,0.07443746,0.31727442,0.96329397,0.08979719,-0.036651913,0.081855945
650,6.5,0.07443746,0.31727442,0.96329397,0.08979719,-0.036651913,0.081855945
651,6.51,0.07443746,0.31727442,0.96329397,0.08979719,-0.036651913,0.081855945
652,6.52,0.07443746,0.31727442,0.96329397,0.08979719,-0.036651913,0.081855945
653,6.53,0.0227070233211939,0.2356314604830839,0.9678505357094662,0.08979719,-0.036651913,0.081855945
654,6.54,-0.16107778,-0.054424766,0.98403883,0.0906659581331082,-0.0374457872727245,0.081796029867556
655,6.55,-0.16107778,-0.054424766,0.98403883,0.1188658533145714,-0.0632146551960866,0.0798512066284039
656,6.56,-0.16107778,-0.054424766,0.98403883,0.12522738,-0.069027774,0.07941248
657,6.57,-0.1608619827750927,-0.0634883307939367,0.967853870130999,0.12522738,-0.069027774,0.07941248
658,6.58,-0.16058967,-0.07492557,0.9474302,0.12522738,-0.069027774,0.07941248
659,6.59,-0.16058967,-0.07492557,0.9474302,0.12522738,-0.069027774,0.07941248
660,6.6,-0.16058967,-0.07492557,0.9474302,0.12522738,-0.069027774,0.07941248
661,6.61,-0.0312410742140765,0.13330086069102,0.9300550230813224,0.12522738,-0.069027774,0.07941248
662,6.62,0.06833603,0.2936009,0.916679,0.12522738,-0.069027774,0.07941248
663,6.63,0.06833603,0.2936009,0.916679,0.1128356905479022,-0.0502107657599174,0.0792594975090888
664,6.64,0.06833603,0.2936009,0.916679,0.0670218191385942,0.0036568670732746,0.0794145661104268
665,6.65,0.06833603,0.2936009,0.916679,-0.0720821,-0.035430185,0.089186326
666,6.66,0.06833603,0.2936009,0.916679,-0.0720821,-0.035430185,0.089186326
667,6.67,0.06833603,0.2936009,0.916679,-0.0720821,-0.035430185,0.089186326
668,6.68,0.06833603,0.2936009,0.916679,-0.0720821,-0.035430185,0.089186326
669,6.69,0.06833603,0.2936009,0.916679,-0.0720821,-0.035430185,0.089186326
670,6.7,0.06833603,0.2936009,0.916679,-0.0360145493739,-0.0096113370301668,0.0956903108247497
671,6.71,0.06833603,0.2936009,0.916679,0.03970624,0.044593163,0.10934488
672,6.72,0.06833603,0.2936009,0.916679,0.03970624,0.044593163,0.10934488
673,6.73,0.06833603,0.2936009,0.916679,-0.007287497830021,0.0229760425057872,0.1187436240272335
674,6.74,0.06833603,0.2936009,0.916679,-0.021380283,0.016493361,0.12156218
675,6.75,0.06833603,0.2936009,0.916679,-0.021380283,0.016493361,0.12156218
676,6.76,0.06833603,0.2936009,0.916679,-0.021380283,0.016493361,0.12156218
677,6.77,0.06833603,0.2936009,0.916679,-0.021380283,0.016493361,0.12156218
678,6.78,0.06833603,0.2936009,0.916679,-0.021380283,0.016493361,0.12156218
679,6.79,0.06833603,0.2936009,0.916679,-0.021380283,0.016493361,0.12156218
680,6.8,0.06833603,0.2936009,0.916679,-0.2267336345053991,0.0003763191114789,0.0134668437809918
681,6.81,0.06833603,0.2936009,0.916679,-0.3519106656363699,-0.0194405685984336,-0.0539357298265622
682,6.82,0.06833603,0.2936009,0.916679,-0.032986723,-0.02076942,0.10995574
683,6.83,0.06833603,0.2936009,0.916679,-0.032986723,-0.02076942,0.10995574
684,6.84,0.06833603,0.2936009,0.916679,-0.0284519825928833,-0.03815259063268,0.0940841488844029
685,6.85,0.06833603,0.2936009,0.916679,-0.02565634,-0.04886922,0.0842994
686,6.86,0.06833603,0.2936009,0.916679,-0.02565634,-0.04886922,0.0842994
687,6.87,0.06833603,0.2936009,0.916679,-0.02565634,-0.04886922,0.0842994
688,6.88,0.06833603,0.2936009,0.916679,-0.02565634,-0.04886922,0.0842994
689,6.89,0.06833603,0.2936009,0.916679,-0.02565634,-0.04886922,0.0842994
690,6.9,0.0688989114062078,0.2966404383751689,0.9229832496086374,-0.2589643427368572,-0.0553499970850206,-0.0092492096612746
691,6.91,0.06955632,0.30019042,0.9303462,-0.5314528,-0.06291912,-0.118507855
692,6.92,0.06955632,0.30019042,0.9303462,-0.5314528,-0.06291912,-0.118507855
693,6.93,0.06955632,0.30019042,0.9303462,-0.5314528,-0.06291912,-0.118507855
694,6.94,0.06955632,0.30019042,0.9303462,-0.5314528,-0.06291912,-0.118507855
695,6.95,0.06955632,0.30019042,0.9303462,-0.5314528,-0.06291912,-0.118507855
696,6.96,0.06955632,0.30019042,0.9303462,-0.5314528,-0.06291912,-0.118507855
697,6.97,0.06955632,0.30019042,0.9303462,-0.5314528,-0.06291912,-0.118507855
698,6.98,0.06955632,0.30019042,0.9303462,-0.4399444650318687,-0.048666895813366,-0.0886460526741464
699,6.99,0.06955632,0.30019042,0.9303462,-0.03726278,0.014049901,0.042760566
700,7.0,0.06955632,0.30019042,0.9303462,-0.03726278,0.014049901,0.042760566
701,7.01,0.06955632,0.30019042,0.9303462,-0.0415513681694951,-0.005963510457644,0.0384719790005905
702,7.02,0.06955632,0.30019042,0.9303462,-0.044593163,-0.020158553,0.035430185
703,7.03,0.0701803773387559,0.2960092279035896,0.9439506689067884,-0.044593163,-0.020158553,0.035430185
704,7.04,0.0719496520182726,0.2841550650775878,0.982520910566051,-0.044593163,-0.020158553,0.035430185
705,7.05,0.07199689,0.28383857,0.9835507,-0.044593163,-0.020158553,0.035430185
706,7.06,0.07199689,0.28383857,0.9835507,0.0249401819361671,-0.0055896620078441,0.0317879620486973
707,7.07,0.07199689,0.28383857,0.9835507,-0.0529717663801965,0.0094333392578749,-0.2033210941709605
708,7.08,0.0731247210987025,0.2860629057665216,0.9753112735981294,-0.2894153487319421,0.0167615027797731,-0.6102013977696713
709,7.09,0.08078295,0.30116665,0.9193637,0.10140363,0.02687807,0.016493361
710,7.1,0.08078295,0.30116665,0.9193637,0.10140363,0.02687807,0.016493361
711,7.11,0.08078295,0.30116665,0.9193637,0.10140363,0.02687807,0.016493361
712,7.12,0.08078295,0.30116665,0.9193637,-0.2847990550889542,0.0591456542489523,-0.0793010333843976
713,7.13,0.08078295,0.30116665,0.9193637,-0.60048056,0.08552113,-0.15760323
714,7.14,0.08078295,0.30116665,0.9193637,-0.60048056,0.08552113,-0.15760323
715,7.15,0.08078295,0.30116665,0.9193637,-0.60048056,0.08552113,-0.15760323
716,7.16,0.08078295,0.30116665,0.9193637,-0.60048056,0.08552113,-0.15760323
717,7.17,0.08078295,0.30116665,0.9193637,-0.60048056,0.08552113,-0.15760323
718,7.18,0.07841995847222,0.2986723819420808,0.9152940931403952,-0.60048056,0.08552113,-0.15760323
719,7.19,0.076389916,0.29652956,0.9117979,-0.60048056,0.08552113,-0.15760323
720,7.2,0.076389916,0.29652956,0.9117979,-0.60048056,0.08552113,-0.15760323
721,7.21,0.076389916,0.29652956,0.9117979,-0.60048056,0.08552113,-0.15760323
722,7.22,0.076389916,0.29652956,0.9117979,-0.60048056,0.08552113,-0.15760323
723,7.23,0.076389916,0.29652956,0.9117979,-0.60048056,0.08552113,-0.15760323
724,7.24,0.076389916,0.29652956,0.9117979,-0.2788846044628575,0.0497882504300408,-0.0628170603200643
725,7.25,0.0774928345069135,0.2953263891713294,0.9332546436412952,-0.07819075,0.027488936,-0.0036651916
726,7.26,0.07907455,0.2936009,0.96402615,-0.065029350419664,0.02345993591759,-0.0095743914277318
727,7.27,0.07907455,0.2936009,0.96402615,-0.018325957,0.009162978,-0.030543262
728,7.28,0.07907455,0.2936009,0.96402615,-0.018325957,0.009162978,-0.030543262
729,7.29,0.07907455,0.2936009,0.96402615,-0.018325957,0.009162978,-0.030543262
730,7.3,0.0757412478205019,0.2937969624210974,0.9275559045146754,-0.018325957,0.009162978,-0.030543262
731,7.31,0.07492557,0.29384494,0.91863143,-0.018325957,0.009162978,-0.030543262
732,7.32,0.07492557,0.29384494,0.91863143,-0.018325957,0.009162978,-0.030543262
733,7.33,0.07492557,0.29384494,0.91863143,0.0782916333454721,-0.283935328236121,0.0643267200192159
734,7.34,0.07492557,0.29384494,0.91863143,0.2180789,-0.7079928,0.20158553
735,7.35,0.0741864578208668,0.2934238165903307,0.9204964013269922,0.2180789,-0.7079928,0.20158553
736,7.36,0.0569963659422497,0.2836294304215883,0.9638714523234178,0.2180789,-0.7079928,0.20158553
737,7.37,0.0571299397825506,0.2873147150071233,0.9554657736171228,0.2180789,-0.7079928,0.20158553
738,7.38,0.058817793,0.29018408,0.9469421,0.1094672278239651,-0.3910887364305941,0.1065143085710918
739,7.39,0.058817793,0.29018408,0.9469421,-0.012217305,-0.03604105,0.0
740,7.4,0.058817793,0.29018408,0.9469421,-0.012217305,-0.03604105,0.0
741,7.41,0.058817793,0.29018408,0.9469421,-0.012217305,-0.03604105,0.0
742,7.42,0.058817793,0.29018408,0.9469421,-0.012217305,-0.03604105,0.0
743,7.43,0.058817793,0.29018408,0.9469421,-0.012217305,-0.03604105,0.0
744,7.44,0.058817793,0.29018408,0.9469421,-0.012217305,-0.03604105,0.0
745,7.45,0.058817793,0.29018408,0.9469421,-0.0164382835606157,-0.0331145049444867,-0.0018009508033927
746,7.46,0.058817793,0.29018408,0.9469421,-0.0535630681200477,-0.0073746550188923,-0.0176408584499124
747,7.47,0.058817793,0.29018408,0.9469421,-0.0580322,-0.004276057,-0.019547688
748,7.48,0.058817793,0.29018408,0.9469421,-0.0580322,-0.004276057,-0.019547688
749,7.49,0.058817793,0.29018408,0.9469421,-0.0495564593152846,-0.0066713747310779,-0.0123617345051363
750,7.5,0.058817793,0.29018408,0.9469421,-0.0274811776101417,-0.0118000763197312,0.005006207147782
751,7.51,0.058817793,0.29018408,0.9469421,-0.0063003883694006,-0.0081948354409386,0.0113153783168029
752,7.52,0.058817793,0.29018408,0.9469421,-0.0012217305,-0.007330383,0.01282817
753,7.53,0.0635926068432968,0.2913455232344412,0.9419092075182298,-0.0012217305,-0.007330383,0.01282817
754,7.54,0.067847915,0.2923806,0.9374239,-0.0012217305,-0.007330383,0.01282817
755,7.55,0.067847915,0.2923806,0.9374239,-0.023202183069719,-0.0039159436980349,0.0130415723690366
756,7.56,0.067847915,0.2923806,0.9374239,-0.06414085,0.002443461,0.013439035
757,7.57,0.067847915,0.2923806,0.9374239,-0.055381711757732,0.0038449231417051,0.0142799125144455
758,7.58,0.067847915,0.2923806,0.9374239,0.012217305,0.014660766,0.02076942
759,7.59,0.067847915,0.2923806,0.9374239,0.012217305,0.014660766,0.02076942
760,7.6,0.067847915,0.2923806,0.9374239,0.012217305,0.014660766,0.02076942
761,7.61,0.067847915,0.2923806,0.9374239,-0.0209744600388722,0.0448004135361502,0.0375560568967543
762,7.62,0.067847915,0.2923806,0.9374239,-0.040927973,0.06291912,0.047647487
763,7.63,0.067847915,0.2923806,0.9374239,-0.0475117117952185,0.0529763310459444,0.0394514046564283
764,7.64,0.067847915,0.2923806,0.9374239,-0.07086037,0.017715093,0.01038471
765,7.65,0.067847915,0.2923806,0.9374239,-0.07086037,0.017715093,0.01038471
766,7.66,0.067847915,0.2923806,0.9374239,-0.07086037,0.017715093,0.01038471
767,7.67,0.067847915,0.2923806,0.9374239,-0.07086037,0.017715093,0.01038471
768,7.68,0.0657447754043738,0.2871780895091315,0.9552452435291476,-0.07086037,0.017715093,0.01038471
769,7.69,0.06321083,0.2809099,0.9767171,-0.07086037,0.017715093,0.01038471
770,7.7,0.06321083,0.2809099,0.9767171,-0.07086037,0.017715093,0.01038471
771,7.71,0.06321083,0.2809099,0.9767171,-0.07086037,0.017715093,0.01038471
772,7.72,0.06321083,0.2809099,0.9767171,-0.0330337753203911,0.0114848294641106,0.0179500292273239
773,7.73,0.0594370880664615,0.2824714384946921,0.9733337728153876,-0.018936822,0.009162978,0.02076942
774,7.74,0.056133166,0.28383857,0.97037166,-0.018936822,0.009162978,0.02076942
775,7.75,0.056133166,0.28383857,0.97037166,-0.018936822,0.009162978,0.02076942
776,7.76,0.056133166,0.28383857,0.97037166,-0.018936822,0.009162978,0.02076942
777,7.77,0.056133166,0.28383857,0.97037166,-0.018936822,0.009162978,0.02076942
778,7.78,0.056133166,0.28383857,0.97037166,-0.018936822,0.009162978,0.02076942
779,7.79,0.056133166,0.28383857,0.97037166,0.0096426177245425,0.0162645359095519,0.0263120988945155
780,7.8,0.056133166,0.28383857,0.97037166,0.0771064734948666,0.0330282822661046,0.0393959974287371
781,7.81,0.056133166,0.28383857,0.97037166,0.081855945,0.034208454,0.040317107
782,7.82,0.056133166,0.28383857,0.97037166,0.081855945,0.034208454,0.040317107
783,7.83,0.056133166,0.28383857,0.97037166,0.081855945,0.034208454,0.040317107
784,7.84,0.056133166,0.28383857,0.97037166,0.0265266323098044,0.0157653500894244,0.0666643959731119
785,7.85,0.056133166,0.28383857,0.97037166,-0.03359759,-0.004276057,0.095294975
786,7.86,0.056133166,0.28383857,0.97037166,-0.03359759,-0.004276057,0.095294975
787,7.87,0.056133166,0.28383857,0.97037166,-0.03359759,-0.004276057,0.095294975
788,7.88,0.0688561602637306,0.2880100658049873,0.9568143349547086,-0.03359759,-0.004276057,0.095294975
789,7.89,0.071020655,0.28871974,0.9545079,-0.03359759,-0.004276057,0.095294975
790,7.9,0.071020655,0.28871974,0.9545079,-0.03359759,-0.004276057,0.095294975
791,7.91,0.071020655,0.28871974,0.9545079,-0.03359759,-0.004276057,0.095294975
792,7.92,0.071020655,0.28871974,0.9545079,-0.03359759,-0.004276057,0.095294975
793,7.93,0.071020655,0.28871974,0.9545079,-0.03359759,-0.004276057,0.095294975
794,7.94,0.071020655,0.28871974,0.9545079,-0.03359759,-0.004276057,0.095294975
795,7.95,0.071020655,0.28871974,0.9545079,-0.03359759,-0.004276057,0.095294975
796,7.96,0.071020655,0.28871974,0.9545079,-0.03359759,-0.004276057,0.095294975
797,7.97,0.071020655,0.28871974,0.9545079,-0.03359759,-0.004276057,0.095294975
798,7.98,-0.0580693002637134,0.1057487463100629,0.9678534444621376,-0.0382802966404037,0.003216276384297,0.0509653411329767
799,7.99,-0.18157859,-0.06931226,0.98062205,-0.0489526778402862,0.0584269483584998,0.0881954748778597
800,8.0,-0.18157859,-0.06931226,0.98062205,-0.06047566,0.14782938,0.23640485
801,8.01,-0.1812963602188364,-0.0682995777033099,0.9803565449453782,-0.06047566,0.14782938,0.23640485
802,8.02,-0.048349650867396,0.4087329254164997,0.8552881585312042,-0.06047566,0.14782938,0.23640485
803,8.03,-0.016839951,0.5217944,0.8256457,-0.014544291645886,0.0644861781146727,0.1178722883246415
804,8.04,-0.016839951,0.5217944,0.8256457,0.015271631,0.01038471,0.040927973
805,8.05,0.0026712289798087,0.456082833506209,0.8565111912697391,0.015271631,0.01038471,0.040927973
806,8.06,0.056133166,0.27602875,0.9410847,0.015271631,0.01038471,0.040927973
807,8.07,0.056133166,0.27602875,0.9410847,0.015271631,0.01038471,0.040927973
808,8.08,0.056133166,0.27602875,0.9410847,0.015271631,0.01038471,0.040927973
809,8.09,0.056133166,0.27602875,0.9410847,0.015271631,0.01038471,0.040927973
810,8.1,0.056133166,0.27602875,0.9410847,0.015271631,0.01038471,0.040927973
811,8.11,0.056133166,0.27602875,0.9410847,0.015271631,0.01038471,0.040927973
812,8.12,0.056133166,0.27602875,0.9410847,0.015271631,0.01038471,0.040927973
813,8.13,0.056133166,0.27602875,0.9410847,0.015271631,0.01038471,0.040927973
814,8.14,0.056133166,0.27602875,0.9410847,0.0467241369914064,0.0115354110022373,0.03364019684629
815,8.15,0.056133166,0.27602875,0.9410847,0.06536258,0.012217305,0.029321533
816,8.16,0.0580571166744201,0.278337489022446,0.946279385793164,0.06536258,0.012217305,0.029321533
817,8.17,0.06345488,0.2848148,0.9608534,0.06536258,0.012217305,0.029321533
818,8.18,0.06345488,0.2848148,0.9608534,0.06536258,0.012217305,0.029321533
819,8.19,0.06345488,0.2848148,0.9608534,0.0301408884554801,0.0081004836137725,0.04990563955673
820,8.2,0.06345488,0.2848148,0.9608534,0.018325957,0.0067195175,0.05681047
821,8.21,0.060074341659733,0.2869130760470395,0.9445335547955866,0.018325957,0.0067195175,0.05681047
822,8.22,0.056377225,0.28920785,0.9266854,0.0058104124582245,0.0061831370865385,0.0566316759922498
823,8.23,0.056377225,0.28920785,0.9266854,-0.02443461,0.004886922,0.056199603
824,8.24,0.056377225,0.28920785,0.9266854,-0.0288665094228835,0.003198579329808,0.053667088994712
825,8.25,0.056377225,0.28920785,0.9266854,-0.0982284904860021,-0.0232250330187138,0.0140316704719291
826,8.26,0.056377225,0.28920785,0.9266854,-0.10140363,-0.02443461,0.012217305
827,8.27,0.056377225,0.28920785,0.9266854,-0.10140363,-0.02443461,0.012217305
828,8.28,0.056377225,0.28920785,0.9266854,-0.10140363,-0.02443461,0.012217305
829,8.29,0.0586900389604066,0.2857386208585489,0.9409181018555514,-0.10140363,-0.02443461,0.012217305
830,8.3,0.06272271,0.2796896,0.96573454,-0.10140363,-0.02443461,0.012217305
831,8.31,0.06272271,0.2796896,0.96573454,-0.0858528634959744,-0.0247443862013395,0.0071989301528955
832,8.32,0.06272271,0.2796896,0.96573454,0.0378370162570296,-0.0272083278394646,-0.0327169274502117
833,8.33,0.06272271,0.2796896,0.96573454,0.051923547,-0.027488936,-0.03726278
834,8.34,0.06272271,0.2796896,0.96573454,0.051923547,-0.027488936,-0.03726278
835,8.35,0.0759660787211755,0.2895372275623858,0.9382290890220116,0.051923547,-0.027488936,-0.03726278
836,8.36,0.09127741,0.30092257,0.90642864,0.0094462638133279,-0.0266427750454654,-0.0235549714837993
837,8.37,0.0852694581573131,0.2962452412869402,0.9088882745113236,-0.10140363,-0.02443461,0.012217305
838,8.38,0.0570054756265091,0.2738675022321662,0.9283263234174912,-0.10140363,-0.02443461,0.012217305
839,8.39,0.0726325283734563,0.2832437133906424,0.9806768864096282,-0.10140363,-0.02443461,0.012217305
840,8.4,0.0578365403472837,0.2770384703146029,0.9395525255376408,-0.0649194584018141,-0.0487573905124442,0.1267370698131208
841,8.41,0.054424766,0.27554062,0.9298581,-0.057421334,-0.05375614,0.15027285
842,8.42,0.054424766,0.27554062,0.9298581,-0.057421334,-0.05375614,0.15027285
843,8.43,0.054424766,0.27554062,0.9298581,-0.0455433387759261,-0.0289935415522468,0.1178600174406778
844,8.44,0.054424766,0.27554062,0.9298581,-0.021380283,0.021380283,0.051923547
845,8.45,0.054424766,0.27554062,0.9298581,-0.021380283,0.021380283,0.051923547
846,8.46,0.054424766,0.27554062,0.9298581,-0.021380283,0.021380283,0.051923547
847,8.47,0.054424766,0.27554062,0.9298581,-0.021380283,0.021380283,0.051923547
848,8.48,0.054424766,0.27554062,0.9298581,-0.021380283,0.021380283,0.051923547
849,8.49,0.054424766,0.27554062,0.9298581,-0.021380283,0.021380283,0.051923547
850,8.5,0.054424766,0.27554062,0.9298581,-0.021380283,0.021380283,0.051923547
851,8.51,0.054424766,0.27554062,0.9298581,-0.021380283,0.021380283,0.051923547
852,8.52,0.054424766,0.27554062,0.9298581,-0.021380283,0.021380283,0.051923547
853,8.53,0.0671168884992857,0.2820646238260507,0.944922597070708,-0.021380283,0.021380283,0.051923547
854,8.54,0.08053889,0.2889638,0.9608534,-0.021380283,0.021380283,0.051923547
855,8.55,0.08053889,0.2889638,0.9608534,-0.021380283,0.021380283,0.051923547
856,8.56,0.08053889,0.2889638,0.9608534,-0.021380283,0.021380283,0.051923547
857,8.57,0.122077249501814,0.3270549752438263,0.671291391268499,0.0200346735808569,0.0261257470323662,0.0536491688078531
858,8.58,0.1087183067259843,0.3264418023739905,0.758849034022037,0.03726278,0.028099801,0.054367006
859,8.59,0.08029483,0.311173,0.9518233,0.0257713446841253,0.0242693225352477,0.0516856715449667
860,8.6,0.0807415935770499,0.3100166714385082,0.95045672880507,0.00061086525,0.015882496,0.045814894
861,8.61,0.0840433207826659,0.3014710297026302,0.94035732606838,0.00061086525,0.015882496,0.045814894
862,8.62,0.08444381,0.30043447,0.9391323,0.00061086525,0.015882496,0.045814894
863,8.63,0.08444381,0.30043447,0.9391323,0.00061086525,0.015882496,0.045814894
864,8.64,0.08444381,0.30043447,0.9391323,0.00061086525,0.015882496,0.045814894
865,8.65,0.08444381,0.30043447,0.9391323,0.00061086525,0.015882496,0.045814894
866,8.66,0.08444381,0.30043447,0.9391323,0.00061086525,0.015882496,0.045814894
867,8.67,0.08444381,0.30043447,0.9391323,0.00061086525,0.015882496,0.045814894
868,8.68,0.08444381,0.30043447,0.9391323,0.00061086525,0.015882496,0.045814894
869,8.69,0.08444381,0.30043447,0.9391323,0.00061086525,0.015882496,0.045814894
870,8.7,0.0835579920031313,0.2997922510675674,0.938091463014346,0.00061086525,0.015882496,0.045814894
871,8.71,0.07468152,0.2933568,0.9276616,0.00061086525,0.015882496,0.045814894
872,8.72,0.07468152,0.2933568,0.9276616,0.00061086525,0.015882496,0.045814894
873,8.73,0.07468152,0.2933568,0.9276616,0.00061086525,0.015882496,0.045814894
874,8.74,0.07468152,0.2933568,0.9276616,-0.0001280497642679,-0.0192159655144988,0.0144110058633724
875,8.75,0.07468152,0.2933568,0.9276616,-0.00061086525,-0.0421497,-0.0061086523
876,8.76,0.07468152,0.2933568,0.9276616,-0.00061086525,-0.0421497,-0.0061086523
877,8.77,0.07468152,0.2933568,0.9276616,-0.00061086525,-0.0421497,-0.0061086523
878,8.78,0.07468152,0.2933568,0.9276616,-0.00061086525,-0.0421497,-0.0061086523
879,8.79,0.0304567795361636,0.4120442743982098,0.8815719660500446,-0.00061086525,-0.0421497,-0.0061086523
880,8.8,-0.006345488,0.5108118,0.8432178,-0.00061086525,-0.0421497,-0.0061086523
881,8.81,-0.006345488,0.5108118,0.8432178,-0.00061086525,-0.0421497,-0.0061086523
882,8.82,-0.006345488,0.5108118,0.8432178,-0.00061086525,-0.0421497,-0.0061086523
883,8.83,-0.006345488,0.5108118,0.8432178,-0.00061086525,-0.0421497,-0.0061086523
884,8.84,-0.006345488,0.5108118,0.8432178,-0.00061086525,-0.0421497,-0.0061086523
885,8.85,0.038878541981474,0.3831118983647822,0.9116336307562298,-0.00061086525,-0.0421497,-0.0061086523
886,8.86,0.0728352130101073,0.292328994332816,0.951584386018162,-0.00061086525,-0.0421497,-0.0061086523
887,8.87,0.0745464501118852,0.2910801898158664,0.9367746022631016,-0.00061086525,-0.0421497,-0.0061086523
888,8.88,0.0692679168311874,0.2899847089539711,0.9354644366952004,-0.00061086525,-0.0421497,-0.0061086523
889,8.89,0.06589546,0.2562601,0.9884319,-0.00061086525,-0.0421497,-0.0061086523
890,8.9,0.06589546,0.2562601,0.9884319,-0.00061086525,-0.0421497,-0.0061086523
891,8.91,0.06589546,0.2845723187276684,0.9788669389969168,-0.00061086525,-0.0421497,-0.0061086523
892,8.92,0.06589546,0.2923806,0.976229,-0.00061086525,-0.0421497,-0.0061086523
893,8.93,0.06589546,0.2923806,0.976229,-0.00061086525,-0.0421497,-0.0061086523
894,8.94,0.06589546,0.2923806,0.976229,0.0158993119820578,-0.0262664913850093,-0.0075715797973122
895,8.95,0.06589546,0.2923806,0.976229,0.047647487,0.004276057,-0.01038471
896,8.96,0.06589546,0.2923806,0.976229,0.047647487,0.004276057,-0.01038471
897,8.97,0.06589546,0.2923806,0.976229,0.047647487,0.004276057,-0.01038471
898,8.98,0.06589546,0.2923806,0.976229,0.047647487,0.004276057,-0.01038471
899,8.99,0.06589546,0.2923806,0.976229,0.0447850349609435,-0.002329602771666,-0.0031184841790766
900,9.0,0.06589546,0.2923806,0.976229,0.03970624,-0.014049901,0.009773844
901,9.01,0.0655056905608071,0.2917472241622368,0.9690669890502056,0.03970624,-0.014049901,0.009773844
902,9.02,0.063943,0.28920785,0.94035256,0.03970624,-0.014049901,0.009773844
903,9.03,0.063943,0.28920785,0.94035256,0.03970624,-0.014049901,0.009773844
904,9.04,0.063943,0.28920785,0.94035256,0.03970624,-0.014049901,0.009773844
905,9.05,0.063943,0.28920785,0.94035256,0.03970624,-0.014049901,0.009773844
906,9.06,0.063943,0.28920785,0.94035256,0.03970624,-0.014049901,0.009773844
907,9.07,0.063943,0.28920785,0.94035256,0.03970624,-0.014049901,0.009773844
908,9.08,0.063943,0.28920785,0.94035256,0.03970624,-0.014049901,0.009773844
909,9.09,0.063943,0.28920785,0.94035256,0.03970624,-0.014049901,0.009773844
910,9.1,0.063943,0.28920785,0.94035256,0.03970624,-0.014049901,0.009773844
911,9.11,0.063943,0.28920785,0.94035256,0.03970624,-0.014049901,0.009773844
912,9.12,0.063943,0.28920785,0.94035256,0.03970624,-0.014049901,0.009773844
913,9.13,0.063943,0.28920785,0.94035256,-0.0147950193904225,-0.0843632565575236,0.0573783390457486
914,9.14,0.063943,0.28920785,0.94035256,-0.15821409,-0.26939157,0.1826487
915,9.15,0.063943,0.28920785,0.94035256,-0.15821409,-0.26939157,0.1826487
916,9.16,0.063943,0.28920785,0.94035256,-0.0253174966284563,-0.1010558782503927,0.0698879537094437
917,9.17,0.063943,0.28920785,0.94035256,0.0592265980124803,-0.0018108242013613,0.0038179365826844
918,9.18,0.0705833341310365,0.2933912533957969,0.949184222645473,0.07819075,0.01282817,-0.005497787
919,9.19,0.088348724,0.30458343,0.97281224,0.07819075,0.01282817,-0.005497787
920,9.2,0.088348724,0.30458343,0.97281224,0.0773259816452787,0.0129270006864454,-0.0056460330094446
921,9.21,0.088348724,0.30458343,0.97281224,0.0603117149725785,0.0148714886472365,-0.008562764552735
922,9.22,0.088348724,0.30458343,0.97281224,0.0446154165549681,0.015271631,-0.0120084902486899
923,9.23,0.0796965419406895,0.3063372563200503,0.9542217202915052,-0.0177041833354212,-0.014285962745267,-0.0377289381162871
924,9.24,0.07028849,0.3082443,0.9340071,-0.0811698968578874,0.123774484125734,-0.1568194678813397
925,9.25,0.0702563179488691,0.3082082283026764,0.9341474869433718,-0.087964594,0.61208695,-0.42271876
926,9.26,0.0638306340085676,0.3010036728564267,0.962186797330619,-0.087964594,0.61208695,-0.42271876
927,9.27,0.0622346,0.29921418,0.9691513,-0.087964594,0.61208695,-0.42271876
928,9.28,0.0622346,0.29921418,0.9691513,-0.087964594,0.61208695,-0.42271876
929,9.29,0.0622346,0.29921418,0.9691513,-0.087964594,0.61208695,-0.42271876
930,9.3,0.0622346,0.29921418,0.9691513,-0.087964594,0.61208695,-0.42271876
931,9.31,0.0622346,0.29921418,0.9691513,-0.087964594,0.61208695,-0.42271876
932,9.32,0.0622346,0.29921418,0.9691513,-0.087964594,0.61208695,-0.42271876
933,9.33,0.0622346,0.29921418,0.9691513,-0.087964594,0.61208695,-0.42271876
934,9.34,0.0622346,0.29921418,0.9691513,-0.087964594,0.61208695,-0.42271876
935,9.35,0.0622346,0.29921418,0.9691513,-0.087964594,0.61208695,-0.42271876
936,9.36,0.0622346,0.29921418,0.9691513,-0.087964594,0.61208695,-0.42271876
937,9.37,0.0622346,0.29921418,0.9691513,-0.087964594,0.61208695,-0.42271876
938,9.38,0.0622346,0.29921418,0.9691513,-0.087964594,0.61208695,-0.42271876
939,9.39,0.0622346,0.29921418,0.9691513,-0.0502147343822855,0.4066341862067815,-0.5616916948509468
940,9.4,0.0622346,0.29921418,0.9691513,-0.018936822,0.23640485,-0.6768387
941,9.41,0.0607395090718893,0.2985496969581678,0.966936355770932,0.0071196271094492,0.199260547907832,-0.5174508388983435
942,9.42,0.055645052,0.2962855,0.95938903,0.09590584,0.07269296,0.02565634
943,9.43,0.055645052,0.2962855,0.95938903,0.09590584,0.07269296,0.02565634
944,9.44,0.055645052,0.2962855,0.95938903,0.0671852590153514,0.0609436337791348,0.0265266603552689
945,9.45,0.055645052,0.2962855,0.95938903,0.055588737,0.056199603,0.02687807
946,9.46,0.0640823780333951,0.2960653963235963,0.9560141119721144,0.0390613844821071,0.0411413482181515,0.0114525410734855
947,9.47,0.08371163,0.29555333,0.94816244,0.00061086525,0.0061086523,-0.02443461
948,9.48,0.08371163,0.29555333,0.94816244,0.00061086525,0.0061086523,-0.02443461
949,9.49,0.08371163,0.29555333,0.94816244,-0.022914723730646,0.0143239377833254,-0.0352638484187061
950,9.5,0.08371163,0.29555333,0.94816244,-0.037873644,0.019547688,-0.0421497
951,9.51,0.0815110734965981,0.2983040243769523,0.9479179309389556,-0.037873644,0.019547688,-0.0421497
952,9.52,0.07492557,0.3065359,0.9471862,-0.0302718953644871,0.0247005514991885,-0.0390375747964814
953,9.53,0.07492557,0.3065359,0.9471862,0.0421905251118183,0.073819376579889,-0.0093717523804711
954,9.54,0.07492557,0.3065359,0.9471862,0.053145275,0.08124508,-0.004886922
955,9.55,0.07492557,0.3065359,0.9471862,0.053145275,0.08124508,-0.004886922
956,9.56,0.07492557,0.3065359,0.9471862,0.053145275,0.08124508,-0.004886922
957,9.57,0.07492557,0.3065359,0.9471862,0.053145275,0.08124508,-0.004886922
958,9.58,0.07492557,0.3065359,0.9471862,0.053145275,0.08124508,-0.004886922
959,9.59,0.07492557,0.3065359,0.9471862,0.053145275,0.08124508,-0.004886922
960,9.6,0.07492557,0.3065359,0.9471862,0.053145275,0.08124508,-0.004886922
961,9.61,0.07492557,0.3065359,0.9471862,0.053145275,0.08124508,-0.004886922
962,9.62,0.07492557,0.3065359,0.9471862,0.053145275,0.08124508,-0.004886922
963,9.63,0.07492557,0.3065359,0.9471862,0.053145275,0.08124508,-0.004886922
964,9.64,0.07492557,0.3065359,0.9471862,0.053145275,0.08124508,-0.004886922
965,9.65,0.07492557,0.3065359,0.9471862,0.053145275,0.08124508,-0.004886922
966,9.66,0.07492557,0.3065359,0.9471862,0.0368775072989458,0.0343939059211508,0.009428714279978
967,9.67,0.07492557,0.3065359,0.9471862,0.022602014,-0.0067195175,0.021991149
968,9.68,0.07492557,0.3065359,0.9471862,0.022602014,-0.0067195175,0.021991149
969,9.69,0.07492557,0.3065359,0.9471862,0.022602014,-0.0067195175,0.021991149
970,9.7,0.07492557,0.3065359,0.9471862,0.022602014,-0.0067195175,0.021991149
971,9.71,0.07492557,0.3065359,0.9471862,-0.0058116942079959,-0.0196728257944744,0.0387050960911002
972,9.72,0.07492557,0.3065359,0.9471862,-0.0236911888223549,0.0130577867418582,0.0423505881203078
973,9.73,0.07492557,0.3065359,0.9471862,-0.0146188440309171,0.0308823818626251,0.0358778527725883
974,9.74,0.0748844931095882,0.3078093256811208,0.9435713326557096,0.0067195175,0.009162978,0.030543262
975,9.75,0.07468152,0.3141017,0.9257092,0.0067195175,0.009162978,0.030543262
976,9.76,0.07468152,0.3141017,0.9257092,0.0067195175,0.009162978,0.030543262
977,9.77,0.07468152,0.3141017,0.9257092,-0.0257100781424785,-0.0222531935692678,0.0188888754114573
978,9.78,0.07468152,0.3141017,0.9257092,-0.032375857,-0.028710667,0.016493361
979,9.79,0.07468152,0.3141017,0.9257092,-0.032375857,-0.028710667,0.016493361
980,9.8,0.07468152,0.3141017,0.9257092,-0.032375857,-0.028710667,0.016493361
981,9.81,0.07468152,0.3141017,0.9257092,-0.032375857,-0.028710667,0.016493361
982,9.82,0.07468152,0.3141017,0.9257092,-0.032375857,-0.028710667,0.016493361
983,9.83,0.07468152,0.3141017,0.9257092,-0.032375857,-0.028710667,0.016493361
984,9.84,0.072963834961224,0.305298553179345,0.9615657850096334,-0.032375857,-0.028710667,0.016493361
985,9.85,0.07272906,0.30409533,0.9664667,-0.032375857,-0.028710667,0.016493361
986,9.86,0.07272906,0.30409533,0.9664667,-0.0161269773694196,-0.0168489847419974,0.0174682939267935
987,9.87,0.07272906,0.30409533,0.9664667,0.0190206215659673,0.0088087627570146,0.0195771501851262
988,9.88,0.07272906,0.30409533,0.9664667,0.028710667,0.015882496,0.020158553
989,9.89,0.07272906,0.30409533,0.9664667,0.028710667,0.015882496,0.020158553
990,9.9,0.07272906,0.30409533,0.9664667,0.028710667,0.015882496,0.020158553
991,9.91,0.0706654908495184,0.30409533,0.966274745749405,0.028710667,0.015882496,0.020158553
992,9.92,0.0622346,0.30409533,0.9654905,0.0217209328951137,0.0085861946415079,0.0191775378085358
993,9.93,0.0622346,0.30409533,0.9654905,-0.040927973,-0.05681047,0.01038471
994,9.94,0.0622346,0.30409533,0.9654905,-0.040927973,-0.05681047,0.01038471
995,9.95,0.0622346,0.30409533,0.9654905,-0.040927973,-0.05681047,0.01038471
996,9.96,0.0622346,0.30409533,0.9654905,-0.040927973,-0.05681047,0.01038471
997,9.97,0.0622346,0.30409533,0.9654905,-0.040927973,-0.05681047,0.01038471
998,9.98,0.0622346,0.30409533,0.9654905,-0.040927973,-0.05681047,0.01038471
999,9.99,0.0622346,0.30409533,0.9654905,-0.040927973,-0.05681047,0.01038471
