id,timestamp,acc_x,acc_y,acc_z,gyro_x,gyro_y,gyro_z
1,0.01,0.19353738,0.59745216,0.7902574,-0.21868975,0.049480084,-0.13561209
2,0.02,0.19353738,0.59745216,0.7902574,-0.21868975,0.049480084,-0.13561209
3,0.03,0.2248241790534621,0.6159716859655395,0.7624780938057971,-0.21868975,0.049480084,-0.13561209
4,0.04,0.24796216,0.6296677,0.74193406,-0.2072095601746965,0.0169935834496529,-0.166144514427338
5,0.05,0.24796216,0.6296677,0.74193406,-0.18997909,-0.03176499,-0.21197024
6,0.06,0.24796216,0.6296677,0.74193406,-0.18997909,-0.03176499,-0.21197024
7,0.07,0.24796216,0.6296677,0.74193406,-0.18997909,-0.03176499,-0.21197024
8,0.08,0.24796216,0.6296677,0.74193406,-0.18997909,-0.03176499,-0.21197024
9,0.09,0.1872142312125581,0.5944724960839748,0.7842004652605045,-0.18997909,-0.03176499,-0.21197024
10,0.1,0.15570852,0.5762192,0.8061211,-0.18997909,-0.03176499,-0.21197024
11,0.11,0.15570852,0.5762192,0.8061211,-0.18997909,-0.03176499,-0.21197024
12,0.12,0.15570852,0.5762192,0.8061211,-0.18997909,-0.03176499,-0.21197024
13,0.13,0.15570852,0.5762192,0.8061211,-0.18997909,-0.03176499,-0.21197024
14,0.14,0.15570852,0.5762192,0.8061211,-0.18997909,-0.03176499,-0.21197024
15,0.15,0.15570852,0.5762192,0.8061211,-0.18997909,-0.03176499,-0.21197024
16,0.16,0.15570852,0.5762192,0.8061211,-0.18997909,-0.03176499,-0.21197024
17,0.17,0.15570852,0.5762192,0.8061211,-0.18997909,-0.03176499,-0.21197024
18,0.18,0.15570852,0.5762192,0.8061211,-0.18997909,-0.03176499,-0.21197024
19,0.19,0.15570852,0.5762192,0.8061211,-0.18997909,-0.03176499,-0.21197024
20,0.2,0.15570852,0.5762192,0.8061211,-0.147520211765201,0.0406425549697743,-0.1831588585623115
21,0.21,0.1752195425458963,0.5935961807734816,0.7595791772980465,-0.12156218,0.084910266,-0.16554448
22,0.22,0.20256752,0.61795294,0.69434285,-0.12156218,0.084910266,-0.16554448
23,0.23,0.20256752,0.61795294,0.69434285,-0.12156218,0.084910266,-0.16554448
24,0.24,0.20256752,0.61795294,0.69434285,-0.12156218,0.084910266,-0.16554448
25,0.25,0.2665189578389737,0.6501043336438049,0.6722057902905917,-0.12156218,0.084910266,-0.16554448
26,0.26,0.29140437,0.6626154,0.6635916,-0.12156218,0.084910266,-0.16554448
27,0.27,0.29140437,0.6626154,0.6635916,-0.12156218,0.084910266,-0.16554448
28,0.28,0.2532096201987271,0.6285523134580516,0.7157421474243026,-0.12156218,0.084910266,-0.16554448
29,0.29,0.18987654,0.5720702,0.8022162,-0.12156218,0.084910266,-0.16554448
30,0.3,0.18987654,0.5720702,0.8022162,-0.12156218,0.084910266,-0.16554448
31,0.31,0.18987654,0.5720702,0.8022162,-0.12156218,0.084910266,-0.16554448
32,0.32,0.18987654,0.5720702,0.8022162,-0.12156218,0.084910266,-0.16554448
33,0.33,0.18987654,0.5720702,0.8022162,-0.12156218,0.084910266,-0.16554448
34,0.34,0.18987654,0.5720702,0.8022162,-0.12156218,0.084910266,-0.16554448
35,0.35,0.18987654,0.5720702,0.8022162,-0.12156218,0.084910266,-0.16554448
36,0.36,0.18987654,0.5720702,0.8022162,-0.12156218,0.084910266,-0.16554448
37,0.37,0.18987654,0.5720702,0.8022162,-0.12156218,0.084910266,-0.16554448
38,0.38,0.18987654,0.5720702,0.8022162,-0.12156218,0.084910266,-0.16554448
39,0.39,0.18987654,0.5720702,0.8022162,-0.12156218,0.084910266,-0.16554448
40,0.4,0.18987654,0.5720702,0.8022162,0.0083686778063216,0.1637144926131803,-0.0375356737078872
41,0.41,0.18987654,0.5720702,0.8022162,0.084910266,0.21013765,0.037873644
42,0.42,0.18987654,0.5720702,0.8022162,0.084910266,0.21013765,0.037873644
43,0.43,0.18987654,0.5720702,0.8022162,0.084910266,0.21013765,0.037873644
44,0.44,0.18987654,0.5720702,0.8022162,0.084910266,0.21013765,0.037873644
45,0.45,0.18987654,0.5720702,0.8022162,0.084910266,0.21013765,0.037873644
46,0.46,0.18987654,0.5720702,0.8022162,0.084910266,0.21013765,0.037873644
47,0.47,0.18987654,0.5720702,0.8022162,0.084910266,0.21013765,0.037873644
48,0.48,0.2020545141462621,0.5876227911701913,0.786516880600081,0.084910266,0.21013765,0.037873644
49,0.49,0.2506468,0.6496804,0.7238738,0.084910266,0.21013765,0.037873644
50,0.5,0.2506468,0.6496804,0.7238738,0.084910266,0.21013765,0.037873644
51,0.51,0.2506468,0.6496804,0.7238738,0.084910266,0.21013765,0.037873644
52,0.52,0.2506468,0.6496804,0.7238738,0.084910266,0.21013765,0.037873644
53,0.53,0.2584146105272675,0.65592237842325,0.7374674684227182,0.084910266,0.21013765,0.037873644
54,0.54,0.264314,0.66066295,0.7477914,0.084910266,0.21013765,0.037873644
55,0.55,0.2354522466668691,0.6397922484107524,0.744783021270318,0.084910266,0.21013765,0.037873644
56,0.56,0.18938842,0.60648227,0.7399816,0.084910266,0.21013765,0.037873644
57,0.57,0.18938842,0.60648227,0.7399816,0.084910266,0.21013765,0.037873644
58,0.58,0.18938842,0.60648227,0.7399816,0.084910266,0.21013765,0.037873644
59,0.59,0.1544850418106704,0.5974332726490184,0.7693447575073841,0.084910266,0.21013765,0.037873644
60,0.6,0.1432616,0.5945235,0.7787867,0.084910266,0.21013765,0.037873644
61,0.61,0.1432616,0.5945235,0.7787867,0.1128398343607998,0.1014611984808016,0.0409154790519074
62,0.62,0.1667829684676146,0.5996266202413564,0.7726863936903909,0.14660765,-0.029932396,0.044593163
63,0.63,0.24112856,0.6157564,0.75340474,0.14660765,-0.029932396,0.044593163
64,0.64,0.24112856,0.6157564,0.75340474,0.14660765,-0.029932396,0.044593163
65,0.65,0.1840068642082387,0.6019623534353994,0.7597712152262777,0.14660765,-0.029932396,0.044593163
66,0.66,0.16229807,0.59672,0.76219076,0.14660765,-0.029932396,0.044593163
67,0.67,0.16229807,0.59672,0.76219076,0.0738229326634338,0.0178266061985227,-0.0075596681763577
68,0.68,0.16229807,0.59672,0.76219076,-0.086132,0.122783914,-0.12217305
69,0.69,0.16229807,0.59672,0.76219076,-0.086132,0.122783914,-0.12217305
70,0.7,0.16229807,0.59672,0.76219076,-0.086132,0.122783914,-0.12217305
71,0.71,0.16229807,0.59672,0.76219076,-0.086132,0.122783914,-0.12217305
72,0.72,0.16229807,0.59672,0.76219076,-0.086132,0.122783914,-0.12217305
73,0.73,0.16229807,0.59672,0.76219076,-0.086132,0.122783914,-0.12217305
74,0.74,0.16229807,0.59672,0.76219076,-0.086132,0.122783914,-0.12217305
75,0.75,0.16229807,0.59672,0.76219076,-0.086132,0.122783914,-0.12217305
76,0.76,0.16229807,0.59672,0.76219076,0.0572796583329486,-0.0962519291909202,-0.0336183059208405
77,0.77,0.16229807,0.59672,0.76219076,0.13744467,-0.21868975,0.015882496
78,0.78,0.16229807,0.59672,0.76219076,0.13744467,-0.21868975,0.015882496
79,0.79,0.16229807,0.59672,0.76219076,0.1341684205944886,-0.2136858607807993,0.0138594566528711
80,0.8,0.16229807,0.59672,0.76219076,-0.0681636659025188,0.0953404742160412,-0.111077848633336
81,0.81,0.16229807,0.59672,0.76219076,-0.086132,0.122783914,-0.12217305
82,0.82,0.16229807,0.59672,0.76219076,-0.086132,0.122783914,-0.12217305
83,0.83,0.16229807,0.59672,0.76219076,-0.086132,0.122783914,-0.12217305
84,0.84,0.16229807,0.59672,0.76219076,-0.086132,0.122783914,-0.12217305
85,0.85,0.16229807,0.59672,0.76219076,-0.086132,0.122783914,-0.12217305
86,0.86,0.16229807,0.59672,0.76219076,-0.086132,0.122783914,-0.12217305
87,0.87,0.16229807,0.59672,0.76219076,-0.086132,0.122783914,-0.12217305
88,0.88,0.16229807,0.59672,0.76219076,0.0662595843386793,-0.0858335691162936,-0.0504365521083504
89,0.89,0.16229807,0.59672,0.76219076,0.15393804,-0.20586158,-0.009162978
90,0.9,0.16229807,0.59672,0.76219076,0.1230208937950817,-0.0986724170557898,-0.017038099970862
91,0.91,0.16229807,0.59672,0.76219076,0.0276672669484118,0.2381525059347923,-0.039257322893247
92,0.92,0.16229807,0.59672,0.76219076,0.1105629283980628,0.1106580124267151,0.0349124752797081
93,0.93,0.16229807,0.59672,0.76219076,0.12889257,0.08246681,0.05131268
94,0.94,0.16229807,0.59672,0.76219076,0.12889257,0.08246681,0.05131268
95,0.95,0.16229807,0.59672,0.76219076,0.12889257,0.08246681,0.05131268
96,0.96,0.16229807,0.59672,0.76219076,0.12889257,0.08246681,0.05131268
97,0.97,0.16229807,0.59672,0.76219076,0.12889257,0.08246681,0.05131268
98,0.98,0.16229807,0.59672,0.76219076,0.12889257,0.08246681,0.05131268
99,0.99,0.16229807,0.59672,0.76219076,0.1436621298423501,-0.0875632756942777,0.0156495900345691
100,1.0,0.16229807,0.59672,0.76219076,0.15393804,-0.20586158,-0.009162978
101,1.01,0.16229807,0.59672,0.76219076,0.15393804,-0.20586158,-0.009162978
102,1.02,0.16229807,0.59672,0.76219076,0.15393804,-0.20586158,-0.009162978
103,1.03,0.16229807,0.59672,0.76219076,0.15393804,-0.20586158,-0.009162978
104,1.04,0.16229807,0.59672,0.76219076,0.15393804,-0.20586158,-0.009162978
105,1.05,0.16229807,0.59672,0.76219076,0.15393804,-0.20586158,-0.009162978
106,1.06,0.16229807,0.59672,0.76219076,0.15393804,-0.20586158,-0.009162978
107,1.07,0.16229807,0.59672,0.76219076,0.15393804,-0.20586158,-0.009162978
108,1.08,0.16229807,0.59672,0.76219076,0.15393804,-0.20586158,-0.009162978
109,1.09,0.1676770609108637,0.5995561895002518,0.7531279768924308,0.15393804,-0.20586158,-0.009162978
110,1.1,0.20256752,0.61795294,0.69434285,0.1537835018702221,-0.2021526685957362,-0.0080296994849123
111,1.11,0.20256752,0.61795294,0.69434285,0.147117727539911,-0.0421742447110887,0.040852598015546
112,1.12,0.20256752,0.61795294,0.69434285,0.177138498328953,-0.1136609094027404,-0.0247951058009986
113,1.13,0.20256752,0.61795294,0.69434285,0.18692477,-0.14049901,-0.047036625
114,1.14,0.20256752,0.61795294,0.69434285,0.18692477,-0.14049901,-0.047036625
115,1.15,0.20256752,0.61795294,0.69434285,0.18692477,-0.14049901,-0.047036625
116,1.16,0.20256752,0.61795294,0.69434285,0.1861482537165498,-0.1359508466991472,-0.0464819709787829
117,1.17,0.20256752,0.61795294,0.69434285,0.1785926579030732,-0.0916966767257296,-0.0410851213698924
118,1.18,0.20256752,0.61795294,0.69434285,0.17837265,-0.09040806,-0.040927973
119,1.19,0.20256752,0.61795294,0.69434285,0.17837265,-0.09040806,-0.040927973
120,1.2,0.20256752,0.61795294,0.69434285,0.17837265,-0.09040806,-0.040927973
121,1.21,0.20256752,0.61795294,0.69434285,0.17837265,-0.09040806,-0.040927973
122,1.22,0.20256752,0.61795294,0.69434285,0.17837265,-0.09040806,-0.040927973
123,1.23,0.20256752,0.61795294,0.69434285,0.17837265,-0.09040806,-0.040927973
124,1.24,0.20256752,0.61795294,0.69434285,0.17837265,-0.09040806,-0.040927973
125,1.25,0.20256752,0.61795294,0.69434285,0.17837265,-0.09040806,-0.040927973
126,1.26,0.20256752,0.61795294,0.69434285,0.17837265,-0.09040806,-0.040927973
127,1.27,0.20256752,0.61795294,0.69434285,0.17837265,-0.09040806,-0.040927973
128,1.28,0.20256752,0.61795294,0.69434285,0.17837265,-0.09040806,-0.040927973
129,1.29,0.20256752,0.61795294,0.69434285,0.17837265,-0.09040806,-0.040927973
130,1.3,0.20256752,0.61795294,0.69434285,0.17837265,-0.09040806,-0.040927973
131,1.31,0.20256752,0.61795294,0.69434285,0.1766295304172365,-0.0897007070260426,-0.0398290497002706
132,1.32,0.20256752,0.61795294,0.69434285,0.103971184113556,-0.0602161565402673,0.0059773025789789
133,1.33,0.20256752,0.61795294,0.69434285,0.09407325,-0.056199603,0.012217305
134,1.34,0.20256752,0.61795294,0.69434285,0.09407325,-0.056199603,0.012217305
135,1.35,0.20256752,0.61795294,0.69434285,0.09407325,-0.056199603,0.012217305
136,1.36,0.2273415963630589,0.6452175391090096,0.7187236932790894,0.09407325,-0.056199603,0.012217305
137,1.37,0.24869433,0.66871685,0.7397375,0.09407325,-0.056199603,0.012217305
138,1.38,0.24869433,0.66871685,0.7397375,0.09407325,-0.056199603,0.012217305
139,1.39,0.24869433,0.66871685,0.7397375,0.0909133420925531,-0.0534243796335918,0.0113929812334555
140,1.4,0.24869433,0.66871685,0.7397375,0.0310657228099938,-0.0008625593775521,-0.0042194405176502
141,1.41,0.2372488062602137,0.6619948833022312,0.7244768116055486,0.023823744,0.005497787,-0.0061086523
142,1.42,0.23331872,0.65968674,0.7192367,0.023823744,0.005497787,-0.0061086523
143,1.43,0.23331872,0.65968674,0.7192367,0.023823744,0.005497787,-0.0061086523
144,1.44,0.23331872,0.65968674,0.7192367,0.023823744,0.005497787,-0.0061086523
145,1.45,0.23331872,0.65968674,0.7192367,0.023823744,0.005497787,-0.0061086523
146,1.46,0.2324946847218977,0.6585919483922384,0.7182243138976573,0.023823744,0.005497787,-0.0061086523
147,1.47,0.2174795035490717,0.6386431734139559,0.699777093071707,0.023823744,0.005497787,-0.0061086523
148,1.48,0.21623473,0.6369894,0.6982478,0.023823744,0.005497787,-0.0061086523
149,1.49,0.21623473,0.6369894,0.6982478,0.023823744,0.005497787,-0.0061086523
150,1.5,0.21623473,0.6369894,0.6982478,0.023823744,0.005497787,-0.0061086523
151,1.51,0.21623473,0.6369894,0.6982478,0.023823744,0.005497787,-0.0061086523
152,1.52,0.21623473,0.6369894,0.6982478,0.0317389467824927,0.053588640424067,-0.0043097426034776
153,1.53,0.21623473,0.6369894,0.6982478,0.06414085,0.25045475,0.0030543262
154,1.54,0.21623473,0.6369894,0.6982478,0.06414085,0.25045475,0.0030543262
155,1.55,0.21623473,0.6369894,0.6982478,0.06414085,0.25045475,0.0030543262
156,1.56,0.21623473,0.6369894,0.6982478,0.06414085,0.25045475,0.0030543262
157,1.57,0.21623473,0.6369894,0.6982478,0.0278178224470083,0.0935251636994894,-0.0008248321882895
158,1.58,0.21623473,0.6369894,0.6982478,0.0012217305,-0.021380283,-0.0036651916
159,1.59,0.2214344604834578,0.6397717140237649,0.69528304466977,0.0012217305,-0.021380283,-0.0036651916
160,1.6,0.2398492096472836,0.6496252275867511,0.6847834186003061,0.0012217305,-0.021380283,-0.0036651916
161,1.61,0.24405725,0.6518769,0.6823841,0.0012217305,-0.021380283,-0.0036651916
162,1.62,0.24405725,0.6518769,0.6823841,0.0012217305,-0.021380283,-0.0036651916
163,1.63,0.24405725,0.6518769,0.6823841,0.0012217305,-0.021380283,-0.0036651916
164,1.64,0.2431210968329737,0.6510577643806009,0.68632374084865,0.0012217305,-0.021380283,-0.0036651916
165,1.65,0.23819989,0.6467517,0.7070338,0.0012217305,-0.021380283,-0.0036651916
166,1.66,0.23819989,0.6467517,0.7070338,0.0012217305,-0.021380283,-0.0036651916
167,1.67,0.23819989,0.6467517,0.7070338,0.0371050913859593,-0.0335212699103814,0.0020006018498432
168,1.68,0.23819989,0.6467517,0.7070338,0.08246681,-0.04886922,0.009162978
169,1.69,0.2400203797279516,0.6460048344790645,0.7084808627053942,0.0637729966749759,-0.0390549681047757,0.0079946148130245
170,1.7,0.24771811,0.6428468,0.7145996,-0.0139780205238907,0.0029720329855245,0.0029708674647843
171,1.71,0.24771811,0.6428468,0.7145996,0.0309449434965429,0.0213276514088902,7.261190136274216e-05
172,1.72,0.24771811,0.6428468,0.7145996,0.04153884,0.02565634,-0.00061086525
173,1.73,0.2491314472885308,0.6445251407446623,0.7066495904198292,0.04153884,0.02565634,-0.00061086525
174,1.74,0.25162303,0.6474839,0.69263446,0.04153884,0.02565634,-0.00061086525
175,1.75,0.25162303,0.6474839,0.69263446,0.0453045089087405,0.0224622456274788,-0.0017203927793768
176,1.76,0.25162303,0.6474839,0.69263446,0.1526760939978374,-0.0686118726800869,-0.0333566657540561
177,1.77,0.25162303,0.6474839,0.69263446,0.17837265,-0.09040806,-0.040927973
178,1.78,0.2506032744222475,0.6476693045799611,0.7026466073990681,0.17837265,-0.09040806,-0.040927973
179,1.79,0.2457310570466377,0.6489265614195558,0.7147543763329295,0.17837265,-0.09040806,-0.040927973
180,1.8,0.2291967566166329,0.6538474587228151,0.6929054842328621,0.17837265,-0.09040806,-0.040927973
181,1.81,0.22843759,0.6540734,0.6919023,0.17837265,-0.09040806,-0.040927973
182,1.82,0.22843759,0.6540734,0.6919023,0.0708233605458295,-0.0378134204830656,-0.0136192177600698
183,1.83,0.22843759,0.6540734,0.6919023,-0.016493361,0.004886922,0.008552114
184,1.84,0.22843759,0.6540734,0.6919023,-0.016493361,0.004886922,0.008552114
185,1.85,0.22843759,0.6540734,0.6919023,-0.0161528897769399,0.0050087748511214,0.0084983553849834
186,1.86,0.22843759,0.6540734,0.6919023,0.0294131540253559,0.0213166210818062,0.0013037167762388
187,1.87,0.22843759,0.6540734,0.6919023,0.04153884,0.02565634,-0.00061086525
188,1.88,0.22843759,0.6540734,0.6919023,0.04153884,0.02565634,-0.00061086525
189,1.89,0.22843759,0.6540734,0.6919023,0.04153884,0.02565634,-0.00061086525
190,1.9,0.22843759,0.6540734,0.6919023,0.04153884,0.02565634,-0.00061086525
191,1.91,0.22843759,0.6540734,0.6919023,0.04153884,0.02565634,-0.00061086525
192,1.92,0.22843759,0.6540734,0.6919023,0.04153884,0.02565634,-0.00061086525
193,1.93,0.22843759,0.6540734,0.6919023,0.04153884,0.02565634,-0.00061086525
194,1.94,0.22843759,0.6540734,0.6919023,0.0100166477428411,0.0194596702097384,-0.0049215926215137
195,1.95,0.2304414298334719,0.651453005885795,0.6998662866526053,-0.029932396,0.01160644,-0.01038471
196,1.96,0.23795582,0.64162654,0.7297312,-0.029932396,0.01160644,-0.01038471
197,1.97,0.23795582,0.64162654,0.7297312,-0.029932396,0.01160644,-0.01038471
198,1.98,0.23795582,0.64162654,0.7297312,0.0493538286787736,-0.0310529962806897,0.0034041986397867
199,1.99,0.2389755711255675,0.627859884136126,0.7364870263980907,0.0282284696633646,-0.0026071070590625,0.0031010462656336
200,2.0,0.23990828,0.6152683,0.7426662,-0.021380283,0.03970624,-0.002443461
201,2.01,0.23990828,0.6152683,0.7426662,-0.021380283,0.03970624,-0.002443461
202,2.02,0.23990828,0.6152683,0.7426662,-0.021380283,0.03970624,-0.002443461
203,2.03,0.23990828,0.6152683,0.7426662,-0.021380283,0.03970624,-0.002443461
204,2.04,0.2283926253593737,0.6411242076791737,0.7020355171843962,-0.021380283,0.03970624,-0.002443461
205,2.05,0.22697324,0.64431113,0.6970275,-0.021380283,0.03970624,-0.002443461
206,2.06,0.2367314783489862,0.6210600316088384,0.7242541916036267,-0.0102234287652116,0.0095525798926363,-0.0030465342712543
207,2.07,0.24674188,0.5972081,0.75218445,0.0162136619879438,-0.0152071347487504,-0.0015486834961517
208,2.08,0.24674188,0.5972081,0.75218445,0.053145275,0.0,0.0036651916
209,2.09,0.24674188,0.5972081,0.75218445,0.053145275,0.0,0.0036651916
210,2.1,0.24674188,0.5972081,0.75218445,0.053145275,0.0,0.0036651916
211,2.11,0.24674188,0.5972081,0.75218445,0.053145275,0.0,0.0036651916
212,2.12,0.24674188,0.5972081,0.75218445,0.053145275,0.0,0.0036651916
213,2.13,0.24674188,0.5972081,0.75218445,0.053145275,0.0,0.0036651916
214,2.14,0.2314524785228568,0.6336383823289775,0.7095251293383504,0.053145275,0.0,0.0036651916
215,2.15,0.22697324,0.64431113,0.6970275,0.053145275,0.0,0.0036651916
216,2.16,0.22697324,0.64431113,0.6970275,0.053145275,0.0,0.0036651916
217,2.17,0.22697324,0.64431113,0.6970275,0.053145275,0.0,0.0036651916
218,2.18,0.22697324,0.64431113,0.6970275,0.053145275,0.0,0.0036651916
219,2.19,0.22697324,0.64431113,0.6970275,0.053145275,0.0,0.0036651916
220,2.2,0.22697324,0.64431113,0.6970275,0.053145275,0.0,0.0036651916
221,2.21,0.22697324,0.64431113,0.6970275,0.0087831178867879,-0.0115727366107729,-0.0017354190288587
222,2.22,0.22697324,0.64431113,0.6970275,-0.017104227,-0.018325957,-0.004886922
223,2.23,0.22697324,0.64431113,0.6970275,-0.017104227,-0.018325957,-0.004886922
224,2.24,0.22697324,0.64431113,0.6970275,-0.017104227,-0.018325957,-0.004886922
225,2.25,0.22697324,0.64431113,0.6970275,-0.017104227,-0.018325957,-0.004886922
226,2.26,0.226801882834269,0.6439684086474299,0.6816055376330218,-0.017104227,-0.018325957,-0.004886922
227,2.27,0.22672918,0.643823,0.67506236,-0.017104227,-0.018325957,-0.004886922
228,2.28,0.22672918,0.643823,0.67506236,-0.017104227,-0.018325957,-0.004886922
229,2.29,0.22672918,0.643823,0.67506236,-0.017104227,-0.018325957,-0.004886922
230,2.3,0.22672918,0.643823,0.67506236,-0.017104227,-0.018325957,-0.004886922
231,2.31,0.22672918,0.643823,0.67506236,-0.017104227,-0.018325957,-0.004886922
232,2.32,0.22672918,0.643823,0.67506236,-0.017104227,-0.018325957,-0.004886922
233,2.33,0.22672918,0.643823,0.67506236,-0.017104227,-0.018325957,-0.004886922
234,2.34,0.22672918,0.643823,0.67506236,0.0092436932412931,-0.013354651662615,-0.0103553585221744
235,2.35,0.22672918,0.643823,0.67506236,0.015271631,-0.012217305,-0.01160644
236,2.36,0.22672918,0.643823,0.67506236,0.015271631,-0.012217305,-0.01160644
237,2.37,0.22672918,0.643823,0.67506236,0.0222580998615953,-0.0114111743327997,-0.0140248328813702
238,2.38,0.22672918,0.643823,0.67506236,0.031154128,-0.01038471,-0.017104227
239,2.39,0.22672918,0.643823,0.67506236,0.031154128,-0.01038471,-0.017104227
240,2.4,0.22672918,0.643823,0.67506236,0.031154128,-0.01038471,-0.017104227
241,2.41,0.22672918,0.643823,0.67506236,0.031154128,-0.01038471,-0.017104227
242,2.42,0.22672918,0.643823,0.67506236,0.031154128,-0.01038471,-0.017104227
243,2.43,0.234372761158793,0.6434674952683528,0.6894607167878248,0.031154128,-0.01038471,-0.017104227
244,2.44,0.24771811,0.6428468,0.7145996,0.031154128,-0.01038471,-0.017104227
245,2.45,0.24771811,0.6428468,0.7145996,0.031154128,-0.01038471,-0.017104227
246,2.46,0.24771811,0.6428468,0.7145996,0.031154128,-0.01038471,-0.017104227
247,2.47,0.24771811,0.6428468,0.7145996,0.031154128,-0.01038471,-0.017104227
248,2.48,0.24771811,0.6428468,0.7145996,-0.0231451365674035,-0.0448385553272536,-0.0126941344371405
249,2.49,0.2463731142412246,0.645611508231293,0.7110876725830892,-0.089186326,-0.08674286,-0.007330383
250,2.5,0.24332508,0.6518769,0.70312893,-0.089186326,-0.08674286,-0.007330383
251,2.51,0.24332508,0.6518769,0.70312893,-0.089186326,-0.08674286,-0.007330383
252,2.52,0.24332508,0.6518769,0.70312893,-0.089186326,-0.08674286,-0.007330383
253,2.53,0.2425781114279715,0.6126610767489793,0.7382364222790827,-0.089186326,-0.08674286,-0.007330383
254,2.54,0.24234885,0.60062486,0.7490117,-0.089186326,-0.08674286,-0.007330383
255,2.55,0.24234885,0.60062486,0.7490117,-0.089186326,-0.08674286,-0.007330383
256,2.56,0.24234885,0.60062486,0.7490117,-0.089186326,-0.08674286,-0.007330383
257,2.57,0.24234885,0.60062486,0.7490117,-0.089186326,-0.08674286,-0.007330383
258,2.58,0.2488904340342556,0.6292923856270586,0.7376601543696143,-0.089186326,-0.08674286,-0.007330383
259,2.59,0.2506468,0.6369894,0.73461235,-0.089186326,-0.08674286,-0.007330383
260,2.6,0.2506468,0.6369894,0.73461235,-0.0506387980356195,-0.0575717597272184,-0.0091535770068834
261,2.61,0.2506468,0.6369894,0.73461235,-0.048822715969495,-0.0136126298573605,-0.0061999763259663
262,2.62,0.2506468,0.6369894,0.73461235,-0.21930063,0.002443461,0.012217305
263,2.63,0.2506468,0.6369894,0.73461235,-0.21930063,0.002443461,0.012217305
264,2.64,0.2506468,0.6369894,0.73461235,-0.0700946090777262,-0.0729617307031215,-0.0102438152995326
265,2.65,0.2506468,0.6369894,0.73461235,-0.04886922,-0.08368854,-0.013439035
266,2.66,0.2506468,0.6369894,0.73461235,-0.04886922,-0.08368854,-0.013439035
267,2.67,0.2506468,0.6369894,0.73461235,-0.04886922,-0.08368854,-0.013439035
268,2.68,0.2506468,0.6369894,0.73461235,-0.04886922,-0.08368854,-0.013439035
269,2.69,0.2506468,0.6369894,0.73461235,-0.04886922,-0.08368854,-0.013439035
270,2.7,0.2506468,0.6369894,0.73461235,-0.0142892611046661,-0.0216112639424124,-0.0109392792787552
271,2.71,0.2506468,0.6369894,0.73461235,0.0018325958,0.007330383,-0.009773844
272,2.72,0.2506468,0.6369894,0.73461235,0.0018325958,0.007330383,-0.009773844
273,2.73,0.2506468,0.6369894,0.73461235,0.0018325958,0.007330383,-0.009773844
274,2.74,0.2506468,0.6369894,0.73461235,0.0018325958,0.007330383,-0.009773844
275,2.75,0.2506468,0.6369894,0.73461235,0.0018325958,0.007330383,-0.009773844
276,2.76,0.2506468,0.6369894,0.73461235,0.0018325958,0.007330383,-0.009773844
277,2.77,0.250589748756134,0.6350496109548233,0.727423671192652,0.0018325958,0.007330383,-0.009773844
278,2.78,0.25040275,0.6286915,0.7038611,0.0018274931403208,0.0071160713151933,-0.0097891519798728
279,2.79,0.25040275,0.6286915,0.7038611,0.0013412142640371,-0.0133076394189945,-0.0112479886883288
280,2.8,0.25040275,0.6286915,0.7038611,0.0012217305,-0.018325957,-0.01160644
281,2.81,0.25040275,0.6286915,0.7038611,0.0012217305,-0.018325957,-0.01160644
282,2.82,0.25040275,0.6286915,0.7038611,0.0012217305,-0.018325957,-0.01160644
283,2.83,0.25040275,0.6286915,0.7038611,0.0012217305,-0.018325957,-0.01160644
284,2.84,0.25040275,0.6286915,0.7038611,0.0012217305,-0.018325957,-0.01160644
285,2.85,0.25040275,0.6286915,0.7038611,0.0012217305,-0.018325957,-0.01160644
286,2.86,0.2452670267022186,0.633978263060999,0.6996316895512007,-0.0411224504713639,-0.0334488792065165,-0.0076366730871225
287,2.87,0.23380683,0.6457755,0.6901939,-0.13561209,-0.06719518,0.0012217305
288,2.88,0.23380683,0.6457755,0.6901939,-0.13561209,-0.06719518,0.0012217305
289,2.89,0.2380619366955258,0.6514489008735628,0.686546669247667,-0.13561209,-0.06719518,0.0012217305
290,2.9,0.23893206,0.65260905,0.68580085,-0.13561209,-0.06719518,0.0012217305
291,2.91,0.2441024626720254,0.6506701705142466,0.7126223659966756,-0.13561209,-0.06719518,0.0012217305
292,2.92,0.24674188,0.6496804,0.72631437,-0.13561209,-0.06719518,0.0012217305
293,2.93,0.2400159482235992,0.6383210478749471,0.7031472743809241,-0.13561209,-0.06719518,0.0012217305
294,2.94,0.22477673,0.6125837,0.65065664,-0.13561209,-0.06719518,0.0012217305
295,2.95,0.22477673,0.6125837,0.65065664,-0.13561209,-0.06719518,0.0012217305
296,2.96,0.22477673,0.6125837,0.65065664,-0.13561209,-0.06719518,0.0012217305
297,2.97,0.22477673,0.6125837,0.65065664,-0.13561209,-0.06719518,0.0012217305
298,2.98,0.2304757637020401,0.6187268131474781,0.67456296432388,-0.13561209,-0.06719518,0.0012217305
299,2.99,0.24356914,0.63284045,0.7294871,-0.13561209,-0.06719518,0.0012217305
300,3.0,0.24356914,0.63284045,0.7294871,-0.13561209,-0.06719518,0.0012217305
301,3.01,0.2340150725083717,0.6390713450811155,0.698609494639042,-0.13561209,-0.06719518,0.0012217305
302,3.02,0.22672918,0.643823,0.67506236,-0.13561209,-0.06719518,0.0012217305
303,3.03,0.2309421594610303,0.641130178481548,0.6801874214133632,-0.13561209,-0.06719518,0.0012217305
304,3.04,0.25040275,0.6286915,0.7038611,-0.1383500428231001,-0.0649164965129411,0.001257058924923
305,3.05,0.25040275,0.6286915,0.7038611,-0.215311001954419,-0.0008651128509759,0.0022501035982054
306,3.06,0.25040275,0.6286915,0.7038611,-0.2302962,0.01160644,0.002443461
307,3.07,0.25040275,0.6286915,0.7038611,-0.2302962,0.01160644,0.002443461
308,3.08,0.25040275,0.6286915,0.7038611,-0.2302962,0.01160644,0.002443461
309,3.09,0.25040275,0.6286915,0.7038611,-0.2302962,0.01160644,0.002443461
310,3.1,0.25040275,0.6286915,0.7038611,-0.2302962,0.01160644,0.002443461
311,3.11,0.2421761384273879,0.6458448180321784,0.6909085521014632,-0.2302962,0.01160644,0.002443461
312,3.12,0.23893206,0.65260905,0.68580085,-0.2302962,0.01160644,0.002443461
313,3.13,0.23893206,0.65260905,0.68580085,-0.2302962,0.01160644,0.002443461
314,3.14,0.23893206,0.65260905,0.68580085,-0.2302962,0.01160644,0.002443461
315,3.15,0.2342051363484203,0.6422500553895666,0.68725916245808,-0.2302962,0.01160644,0.002443461
316,3.16,0.2160436622818464,0.6024494100141552,0.6928621943326339,-0.2302962,0.01160644,0.002443461
317,3.17,0.21599068,0.6023333,0.69287854,-0.2302962,0.01160644,0.002443461
318,3.18,0.21599068,0.6023333,0.69287854,-0.2302962,0.01160644,0.002443461
319,3.19,0.21599068,0.6023333,0.69287854,-0.2302962,0.01160644,0.002443461
320,3.2,0.2185740171751787,0.6053471958212681,0.6804641553929606,-0.2302962,0.01160644,0.002443461
321,3.21,0.22477673,0.6125837,0.65065664,-0.2417449040032493,0.0025407231184943,0.0003712970686805
322,3.22,0.22477673,0.6125837,0.65065664,-0.3462975228526923,-0.0802498216837824,-0.0185522566928029
323,3.23,0.22477673,0.6125837,0.65065664,-0.3652974,-0.095294975,-0.021991149
324,3.24,0.22477673,0.6125837,0.65065664,-0.3652974,-0.095294975,-0.021991149
325,3.25,0.2343272772809828,0.61031347408573,0.6795431565799003,-0.3652974,-0.095294975,-0.021991149
326,3.26,0.2505318943453767,0.6113012288433463,0.7315352281766937,-0.3652974,-0.095294975,-0.021991149
327,3.27,0.22526483,0.64772797,0.673842,-0.3652974,-0.095294975,-0.021991149
328,3.28,0.22526483,0.64772797,0.673842,-0.3652974,-0.095294975,-0.021991149
329,3.29,0.22526483,0.64772797,0.673842,-0.3652974,-0.095294975,-0.021991149
330,3.3,0.22526483,0.64772797,0.673842,-0.3652974,-0.095294975,-0.021991149
331,3.31,0.22526483,0.64772797,0.673842,-0.3652974,-0.095294975,-0.021991149
332,3.32,0.22526483,0.64772797,0.673842,-0.3652974,-0.095294975,-0.021991149
333,3.33,0.22526483,0.64772797,0.673842,-0.3652974,-0.095294975,-0.021991149
334,3.34,0.22526483,0.64772797,0.673842,-0.3652974,-0.095294975,-0.021991149
335,3.35,0.22526483,0.64772797,0.673842,-0.3652974,-0.095294975,-0.021991149
336,3.36,0.22526483,0.64772797,0.673842,-0.3652974,-0.095294975,-0.021991149
337,3.37,0.22526483,0.64772797,0.673842,-0.3652974,-0.095294975,-0.021991149
338,3.38,0.22526483,0.64772797,0.673842,-0.3652974,-0.095294975,-0.021991149
339,3.39,0.22526483,0.64772797,0.673842,-0.3652974,-0.095294975,-0.021991149
340,3.4,0.22526483,0.64772797,0.673842,-0.3652974,-0.095294975,-0.021991149
341,3.41,0.22526483,0.64772797,0.673842,-0.377837967294565,-0.1167250558021824,-0.0308806622477543
342,3.42,0.22526483,0.64772797,0.673842,-0.41355577,-0.1777618,-0.056199603
343,3.43,0.22526483,0.64772797,0.673842,-0.41355577,-0.1777618,-0.056199603
344,3.44,0.22526483,0.64772797,0.673842,-0.41355577,-0.1777618,-0.056199603
345,3.45,0.22526483,0.64772797,0.673842,-0.41355577,-0.1777618,-0.056199603
346,3.46,0.22526483,0.64772797,0.673842,-0.41355577,-0.1777618,-0.056199603
347,3.47,0.22526483,0.64772797,0.673842,-0.41355577,-0.1777618,-0.056199603
348,3.48,0.22526483,0.64772797,0.673842,-0.41355577,-0.1777618,-0.056199603
349,3.49,0.22526483,0.64772797,0.673842,-0.41355577,-0.1777618,-0.056199603
350,3.5,0.2178344126961212,0.6336927185214452,0.8104791398115717,-0.3395080542673707,-0.0820163753815294,-0.0424232822336359
351,3.51,0.21208574,0.6228341,0.91619086,-0.28221974,-0.007941248,-0.03176499
352,3.52,0.21208574,0.6228341,0.91619086,-0.28221974,-0.007941248,-0.03176499
353,3.53,0.21208574,0.6228341,0.91619086,-0.2775096101171875,0.0009698063722567,-0.02285393646132
354,3.54,0.21208574,0.6228341,0.91619086,-0.2597278790395738,0.0346109110567945,0.0107871650762899
355,3.55,0.21208574,0.6228341,0.91619086,0.0444990802465243,-0.0336650004412724,-0.0307914677411703
356,3.56,0.21208574,0.6228341,0.91619086,0.06047566,-0.03726278,-0.032986723
357,3.57,0.21208574,0.6228341,0.91619086,0.0138105449624399,-7.65172284338122e-05,-0.0096541661973933
358,3.58,0.2332569932797996,0.6313881286299762,0.8788738938914247,-0.017715093,0.025045475,0.0061086523
359,3.59,0.2604091,0.64235866,0.83101493,-0.1193043699803874,-0.0101269116859381,-0.0021041894927773
360,3.6,0.2604091,0.64235866,0.83101493,-0.3652974,-0.095294975,-0.021991149
361,3.61,0.2604091,0.64235866,0.83101493,-0.3652419048898001,-0.0990686439698529,-0.0212419647170494
362,3.62,0.2604091,0.64235866,0.83101493,-0.3631532921094622,-0.2410943685933211,0.0069543189296104
363,3.63,0.2604091,0.64235866,0.83101493,-0.36285394,-0.26145032,0.010995574
364,3.64,0.2604091,0.64235866,0.83101493,-0.36285394,-0.26145032,0.010995574
365,3.65,0.2604091,0.64235866,0.83101493,-0.36285394,-0.26145032,0.010995574
366,3.66,0.2604091,0.64235866,0.83101493,-0.36285394,-0.26145032,0.010995574
367,3.67,0.2604091,0.64235866,0.83101493,-0.36285394,-0.26145032,0.010995574
368,3.68,0.2604091,0.64235866,0.83101493,-0.36285394,-0.26145032,0.010995574
369,3.69,0.2604091,0.64235866,0.83101493,-0.36285394,-0.26145032,0.010995574
370,3.7,0.2604091,0.64235866,0.83101493,-0.36285394,-0.26145032,0.010995574
371,3.71,0.2604091,0.64235866,0.83101493,-0.36285394,-0.26145032,0.010995574
372,3.72,0.1719215171055034,0.5647524166766451,0.7800986599547095,-0.36285394,-0.26145032,0.010995574
373,3.73,0.1552204,0.55010504,0.77048874,-0.291715696482406,-0.0849652822936695,0.0098293731196812
374,3.74,0.1552204,0.55010504,0.77048874,-0.2510656,0.015882496,0.009162978
375,3.75,0.1552204,0.55010504,0.77048874,-0.2510656,0.015882496,0.009162978
376,3.76,0.1552204,0.55010504,0.77048874,-0.207687218328747,0.008863971065117,0.0098453346462997
377,3.77,0.1552204,0.55010504,0.77048874,0.02076942,-0.028099801,0.013439035
378,3.78,0.1552204,0.55010504,0.77048874,0.02076942,-0.028099801,0.013439035
379,3.79,0.1552204,0.55010504,0.77048874,0.02076942,-0.028099801,0.013439035
380,3.8,0.1893725152896451,0.5937845685498604,0.8579943383167551,0.02076942,-0.028099801,0.013439035
381,3.81,0.21208574,0.6228341,0.91619086,0.02076942,-0.028099801,0.013439035
382,3.82,0.21208574,0.6228341,0.91619086,0.02076942,-0.028099801,0.013439035
383,3.83,0.21208574,0.6228341,0.91619086,0.02076942,-0.028099801,0.013439035
384,3.84,0.2128075791851013,0.6222390702070295,0.9096455378729033,0.02076942,-0.028099801,0.013439035
385,3.85,0.2273959541245258,0.6102135139624457,0.7773645322691562,0.02076942,-0.028099801,0.013439035
386,3.86,0.23014598,0.6079466,0.7524285,-0.1486963088293011,0.0823340275769184,-0.0050335326629343
387,3.87,0.23014598,0.6079466,0.7524285,-0.23701571,0.13988814,-0.014660766
388,3.88,0.23014598,0.6079466,0.7524285,-0.23701571,0.13988814,-0.014660766
389,3.89,0.23014598,0.6079466,0.7524285,-0.23701571,0.13988814,-0.014660766
390,3.9,0.23014598,0.6079466,0.7524285,-0.23701571,0.13988814,-0.014660766
391,3.91,0.2559415852652628,0.6253306121687808,0.7840187708821592,-0.23701571,0.13988814,-0.014660766
392,3.92,0.2638259,0.63064396,0.7936742,-0.23701571,0.13988814,-0.014660766
393,3.93,0.2638259,0.63064396,0.7936742,-0.2417132369164177,0.0984273278172912,-0.0066953884283716
394,3.94,0.2638259,0.63064396,0.7936742,-0.2488320721761223,0.0154226517073165,0.0084403654939806
395,3.95,0.2638259,0.63064396,0.7936742,-0.2302962,0.01160644,0.002443461
396,3.96,0.2638259,0.63064396,0.7936742,-0.2302962,0.01160644,0.002443461
397,3.97,0.2638259,0.63064396,0.7936742,-0.2302962,0.01160644,0.002443461
398,3.98,0.2638259,0.63064396,0.7936742,-0.2302962,0.01160644,0.002443461
399,3.99,0.2638259,0.63064396,0.7936742,-0.2302962,0.01160644,0.002443461
400,4.0,0.2638259,0.63064396,0.7936742,-0.2302962,0.01160644,0.002443461
401,4.01,0.2638259,0.63064396,0.7936742,-0.2302962,0.01160644,0.002443461
402,4.02,0.2638259,0.63064396,0.7936742,-0.2302962,0.01160644,0.002443461
403,4.03,0.2638259,0.63064396,0.7936742,-0.3219998107418836,0.0134457670466107,0.0153187520468579
404,4.04,0.2638259,0.63064396,0.7936742,-0.44348818,0.015882496,0.032375857
405,4.05,0.2638259,0.63064396,0.7936742,-0.44348818,0.015882496,0.032375857
406,4.06,0.2638259,0.63064396,0.7936742,-0.44348818,0.015882496,0.032375857
407,4.07,0.2457024215608772,0.6125204585941433,0.7549983349326963,-0.44348818,0.015882496,0.032375857
408,4.08,0.24015234,0.60697037,0.74315435,-0.44348818,0.015882496,0.032375857
409,4.09,0.24015234,0.60697037,0.74315435,-0.44348818,0.015882496,0.032375857
410,4.1,0.24015234,0.60697037,0.74315435,-0.44348818,0.015882496,0.032375857
411,4.11,0.24015234,0.60697037,0.74315435,-0.44348818,0.015882496,0.032375857
412,4.12,0.2413292308614476,0.607470547531121,0.7399473179420233,-0.44348818,0.015882496,0.032375857
413,4.13,0.2490367075773288,0.6107462180297261,0.7189444146791532,-0.44348818,0.015882496,0.032375857
414,4.14,0.24991462,0.61111933,0.7165521,-0.44348818,0.015882496,0.032375857
415,4.15,0.24991462,0.61111933,0.7165521,-0.2143711921768341,0.0208700765956615,0.0186600108722296
416,4.16,0.24991462,0.61111933,0.7165521,0.005497787,0.02565634,0.005497787
417,4.17,0.24991462,0.61111933,0.7165521,0.0130578141270346,0.0150093023607447,0.0015917732989203
418,4.18,0.24991462,0.61111933,0.7165521,0.0670244222796755,-0.0609936667568383,-0.0262909720011871
419,4.19,0.2478162522301467,0.6139671051798623,0.7256949969133957,0.07880162,-0.077579886,-0.032375857
420,4.2,0.24649782,0.6157564,0.7314396,0.0561965733066563,-0.0642965083765458,-0.0181603133088446
421,4.21,0.2460290984437257,0.6184906224153772,0.7311271114937018,0.019547688,-0.042760566,0.004886922
422,4.22,0.24356914,0.63284045,0.7294871,0.0119748590397836,-0.0331367628525606,0.0020076694031266
423,4.23,0.24356914,0.63284045,0.7294871,-0.081420811490089,0.0855535644642881,-0.0335021418342026
424,4.24,0.2347834094385354,0.6165469201055852,0.7445027117563063,-0.09773844,0.10629055,-0.03970624
425,4.25,0.23014598,0.6079466,0.7524285,-0.09773844,0.10629055,-0.03970624
426,4.26,0.23014598,0.6079466,0.7524285,-0.09773844,0.10629055,-0.03970624
427,4.27,0.23014598,0.6079466,0.7524285,-0.09773844,0.10629055,-0.03970624
428,4.28,0.23014598,0.6079466,0.7524285,-0.09773844,0.10629055,-0.03970624
429,4.29,0.23014598,0.6079466,0.7524285,0.0007132545511467,0.0122914469043205,0.0003670620421308
430,4.3,0.23014598,0.6079466,0.7524285,0.023823744,-0.009773844,0.009773844
431,4.31,0.23014598,0.6079466,0.7524285,-0.030570890203478,0.0421607301244527,-0.0123666850771788
432,4.32,0.23014598,0.6079466,0.7524285,-0.09773844,0.10629055,-0.03970624
433,4.33,0.23014598,0.6079466,0.7524285,-0.09773844,0.10629055,-0.03970624
434,4.34,0.23014598,0.6079466,0.7524285,-0.09773844,0.10629055,-0.03970624
435,4.35,0.23014598,0.6079466,0.7524285,-0.0045117729608318,0.0081938351534763,-0.0247482303257081
436,4.36,0.23014598,0.6079466,0.7524285,0.065973446,-0.065973446,-0.013439035
437,4.37,0.236832378113238,0.6090197206540163,0.74029393266154,0.065973446,-0.065973446,-0.013439035
438,4.38,0.24991462,0.61111933,0.7165521,0.065973446,-0.065973446,-0.013439035
439,4.39,0.24991462,0.61111933,0.7165521,0.065973446,-0.065973446,-0.013439035
440,4.4,0.24991462,0.61111933,0.7165521,0.065973446,-0.065973446,-0.013439035
441,4.41,0.24991462,0.61111933,0.7165521,0.065973446,-0.065973446,-0.013439035
442,4.42,0.24991462,0.61111933,0.7165521,0.065973446,-0.065973446,-0.013439035
443,4.43,0.24991462,0.61111933,0.7165521,0.065973446,-0.065973446,-0.013439035
444,4.44,0.24991462,0.61111933,0.7165521,0.065973446,-0.065973446,-0.013439035
445,4.45,0.24991462,0.61111933,0.7165521,0.065973446,-0.065973446,-0.013439035
446,4.46,0.24991462,0.61111933,0.7165521,0.065973446,-0.065973446,-0.013439035
447,4.47,0.24991462,0.61111933,0.7165521,0.065973446,-0.065973446,-0.013439035
448,4.48,0.24991462,0.61111933,0.7165521,0.065973446,-0.065973446,-0.013439035
449,4.49,0.24991462,0.61111933,0.7165521,0.065973446,-0.065973446,-0.013439035
450,4.5,0.24991462,0.61111933,0.7165521,0.065973446,-0.065973446,-0.013439035
451,4.51,0.24991462,0.61111933,0.7165521,0.065973446,-0.065973446,-0.013439035
452,4.52,0.24991462,0.61111933,0.7165521,0.065973446,-0.065973446,-0.013439035
453,4.53,0.24991462,0.61111933,0.7165521,0.065973446,-0.065973446,-0.013439035
454,4.54,0.24991462,0.61111933,0.7165521,0.065973446,-0.065973446,-0.013439035
455,4.55,0.24991462,0.61111933,0.7165521,0.065973446,-0.065973446,-0.013439035
456,4.56,0.24991462,0.61111933,0.7165521,0.065973446,-0.065973446,-0.013439035
457,4.57,0.24991462,0.61111933,0.7165521,0.065973446,-0.065973446,-0.013439035
458,4.58,0.24991462,0.61111933,0.7165521,0.0668308668206281,-0.0667492074847889,-0.0147047510293685
459,4.59,0.24991462,0.61111933,0.7165521,0.0774571775053251,-0.0763634859770587,-0.0303912044523424
460,4.6,0.24991462,0.61111933,0.7165521,0.07880162,-0.077579886,-0.032375857
461,4.61,0.2480138275693387,0.6136989681282037,0.7248341321094212,0.07880162,-0.077579886,-0.032375857
462,4.62,0.24649782,0.6157564,0.7314396,0.07880162,-0.077579886,-0.032375857
463,4.63,0.24649782,0.6157564,0.7314396,0.07880162,-0.077579886,-0.032375857
464,4.64,0.24649782,0.6157564,0.7314396,0.07880162,-0.077579886,-0.032375857
465,4.65,0.24649782,0.6157564,0.7314396,0.07880162,-0.077579886,-0.032375857
466,4.66,0.2449416874014131,0.6099562757286916,0.7513864211451051,0.07880162,-0.077579886,-0.032375857
467,4.67,0.2438132,0.6057501,0.7658516,0.07880162,-0.077579886,-0.032375857
468,4.68,0.2438132,0.6057501,0.7658516,0.0678838739924418,-0.0684230672504702,-0.0264767526285286
469,4.69,0.2438132,0.6057501,0.7658516,0.007221475929597,-0.0175449296212608,0.0063005090286603
470,4.7,0.2438132,0.6057501,0.7658516,0.0030543262,-0.014049901,0.008552114
471,4.71,0.2438132,0.6057501,0.7658516,0.0030543262,-0.014049901,0.008552114
472,4.72,0.2438132,0.6057501,0.7658516,0.0030543262,-0.014049901,0.008552114
473,4.73,0.2438132,0.6057501,0.7658516,0.0030543262,-0.014049901,0.008552114
474,4.74,0.2438132,0.6057501,0.7658516,0.0030543262,-0.014049901,0.008552114
475,4.75,0.2438132,0.6057501,0.7658516,0.0030543262,-0.014049901,0.008552114
476,4.76,0.2438132,0.6057501,0.7658516,0.0030543262,-0.014049901,0.008552114
477,4.77,0.2438132,0.6057501,0.7658516,0.0030543262,-0.014049901,0.008552114
478,4.78,0.2438132,0.6057501,0.7658516,0.0030543262,-0.014049901,0.008552114
479,4.79,0.2438132,0.6057501,0.7658516,0.0030543262,-0.014049901,0.008552114
480,4.8,0.2438132,0.6057501,0.7658516,0.0030543262,-0.014049901,0.008552114
481,4.81,0.2488303378009793,0.5993821672644726,0.7506071933017127,0.0030543262,-0.014049901,0.008552114
482,4.82,0.2392007711947753,0.6079111745467773,0.7404420985299784,0.0030543262,-0.014049901,0.008552114
483,4.83,0.23575929,0.61111933,0.7385172,0.0030543262,-0.014049901,0.008552114
484,4.84,0.23575929,0.61111933,0.7385172,0.0030543262,-0.014049901,0.008552114
485,4.85,0.23575929,0.61111933,0.7385172,0.0030543262,-0.014049901,0.008552114
486,4.86,0.23575929,0.61111933,0.7385172,-0.000155451694988,-0.0046996782416552,0.008552114
487,4.87,0.23575929,0.61111933,0.7385172,-0.010995574,0.02687807,0.008552114
488,4.88,0.23575929,0.61111933,0.7385172,-0.010995574,0.02687807,0.008552114
489,4.89,0.23575929,0.61111933,0.7385172,-0.010995574,0.02687807,0.008552114
490,4.9,0.23575929,0.61111933,0.7385172,-0.010995574,0.02687807,0.008552114
491,4.91,0.23575929,0.61111933,0.7385172,-0.0029348569782243,0.0349387871474477,0.0116228628209871
492,4.92,0.23575929,0.61111933,0.7385172,0.0018325958,0.03970624,0.013439035
493,4.93,0.23575929,0.61111933,0.7385172,0.0018325958,0.03970624,0.013439035
494,4.94,0.23575929,0.61111933,0.7385172,0.0018325958,0.03970624,0.013439035
495,4.95,0.23575929,0.61111933,0.7385172,0.0018325958,0.03970624,0.013439035
496,4.96,0.23575929,0.61111933,0.7385172,0.0018325958,0.03970624,0.013439035
497,4.97,0.23575929,0.61111933,0.7385172,0.0018325958,0.03970624,0.013439035
498,4.98,0.23575929,0.61111933,0.7385172,-0.0059920350904126,0.0318816089875959,0.0104582237376166
499,4.99,0.23575929,0.61111933,0.7385172,-0.010995574,0.02687807,0.008552114
500,5.0,0.23575929,0.61111933,0.7385172,-0.0042708442513397,0.0197994070456843,0.0087880693416821
501,5.01,0.23575929,0.61111933,0.7385172,0.0234823397334325,-0.0094144710847274,0.0097618649073999
502,5.02,0.23575929,0.61111933,0.7385172,0.023823744,-0.009773844,0.009773844
503,5.03,0.2345095438607841,0.6116747575560333,0.7455991346167212,0.023823744,-0.009773844,0.009773844
504,5.04,0.23356278,0.61209553,0.75096416,-0.005156861136654,-0.014435060322151,0.0136244139619819
505,5.05,0.2334261537703784,0.6120727616052757,0.7495523637133841,-0.06352998,-0.023823744,0.021380283
506,5.06,0.23209843,0.6118515,0.73583263,-0.06352998,-0.023823744,0.021380283
507,5.07,0.23209843,0.6118515,0.73583263,-0.06352998,-0.023823744,0.021380283
508,5.08,0.23209843,0.6118515,0.73583263,-0.011635038111586,0.0252981898698915,0.0150419696007696
509,5.09,0.23209843,0.6118515,0.73583263,0.016493361,0.051923547,0.01160644
510,5.1,0.23209843,0.6118515,0.73583263,0.016493361,0.051923547,0.01160644
511,5.11,0.23209843,0.6118515,0.73583263,0.016493361,0.051923547,0.01160644
512,5.12,0.23209843,0.6118515,0.73583263,0.016493361,0.051923547,0.01160644
513,5.13,0.228328885854929,0.6120153751214028,0.7299324540927145,0.016493361,0.051923547,0.01160644
514,5.14,0.22648512,0.61209553,0.72704655,-0.0008414740858939,0.0011797549856163,0.0131823340049076
515,5.15,0.22648512,0.61209553,0.72704655,-0.017104227,-0.04642576,0.014660766
516,5.16,0.22648512,0.61209553,0.72704655,-0.017104227,-0.04642576,0.014660766
517,5.17,0.22648512,0.61209553,0.72704655,-0.017104227,-0.04642576,0.014660766
518,5.18,0.22648512,0.61209553,0.72704655,-0.017104227,-0.04642576,0.014660766
519,5.19,0.22648512,0.61209553,0.72704655,-0.017104227,-0.04642576,0.014660766
520,5.2,0.22648512,0.61209553,0.72704655,-0.017104227,-0.04642576,0.014660766
521,5.21,0.22648512,0.61209553,0.72704655,-0.017104227,-0.04642576,0.014660766
522,5.22,0.22648512,0.61209553,0.72704655,-0.0107609936971169,-0.0115379740527109,0.0033335630111773
523,5.23,0.22648512,0.61209553,0.72704655,-0.008552114,0.00061086525,-0.00061086525
524,5.24,0.2325485205797628,0.6105075193309114,0.7394621056464735,-0.008552114,0.00061086525,-0.00061086525
525,5.25,0.2363925715223108,0.6103254723965049,0.7412908200627757,-0.008552114,0.00061086525,-0.00061086525
526,5.26,0.2358270902487451,0.6115396561401887,0.7365444165897681,-0.008552114,0.00061086525,-0.00061086525
527,5.27,0.23551524,0.6118515,0.74169,-0.008552114,0.00061086525,-0.00061086525
528,5.28,0.23551524,0.6118515,0.74169,-0.0091293870779329,-0.0059556170598567,0.0010487951296068
529,5.29,0.23551524,0.6118515,0.74169,-0.013439035,-0.05497787,0.013439035
530,5.3,0.23551524,0.6118515,0.74169,-0.013439035,-0.05497787,0.013439035
531,5.31,0.23551524,0.6118515,0.74169,-0.013439035,-0.05497787,0.013439035
532,5.32,0.228147875107232,0.6143511484463542,0.7197194561200072,-0.013439035,-0.05497787,0.013439035
533,5.33,0.2139518120073896,0.6191676829316626,0.6773847500483151,-0.013439035,-0.05497787,0.013439035
534,5.34,0.20818083,0.6211257,0.66017485,-0.013439035,-0.05497787,0.013439035
535,5.35,0.20818083,0.6211257,0.66017485,-0.013439035,-0.05497787,0.013439035
536,5.36,0.20818083,0.6211257,0.66017485,-0.013439035,-0.05497787,0.013439035
537,5.37,0.20818083,0.6211257,0.66017485,-0.013439035,-0.05497787,0.013439035
538,5.38,0.20818083,0.6211257,0.66017485,-0.013439035,-0.05497787,0.013439035
539,5.39,0.20818083,0.6211257,0.66017485,-0.013439035,-0.05497787,0.013439035
540,5.4,0.20818083,0.6211257,0.66017485,-0.013439035,-0.05497787,0.013439035
541,5.41,0.20818083,0.6211257,0.66017485,-0.0125230230712064,-0.0375736369949037,0.0075765564664034
542,5.42,0.20818083,0.6211257,0.66017485,-0.01038471,0.0030543262,-0.0061086523
543,5.43,0.20818083,0.6211257,0.66017485,-0.01038471,0.0030543262,-0.0061086523
544,5.44,0.20818083,0.6211257,0.66017485,-0.01038471,0.0030543262,-0.0061086523
545,5.45,0.20818083,0.6211257,0.66017485,-0.01038471,0.0030543262,-0.0061086523
546,5.46,0.2312970231415747,0.6161530012184225,0.706676032300197,-0.01038471,0.0030543262,-0.0061086523
547,5.47,0.25015867,0.61209553,0.74461865,-0.01038471,0.0030543262,-0.0061086523
548,5.48,0.25015867,0.61209553,0.74461865,-0.01038471,0.0030543262,-0.0061086523
549,5.49,0.25015867,0.61209553,0.74461865,-0.01038471,0.0030543262,-0.0061086523
550,5.5,0.25015867,0.61209553,0.74461865,-0.01038471,0.0030543262,-0.0061086523
551,5.51,0.242158072204777,0.61209553,0.7476777130159374,-0.01038471,0.0030543262,-0.0061086523
552,5.52,0.23356278,0.61209553,0.75096416,-0.01038471,0.0030543262,-0.0061086523
553,5.53,0.23356278,0.61209553,0.75096416,-0.01038471,0.0030543262,-0.0061086523
554,5.54,0.23356278,0.61209553,0.75096416,-0.01038471,0.0030543262,-0.0061086523
555,5.55,0.23356278,0.61209553,0.75096416,-0.01038471,0.0030543262,-0.0061086523
556,5.56,0.23356278,0.61209553,0.75096416,-0.01038471,0.0030543262,-0.0061086523
557,5.57,0.23356278,0.61209553,0.75096416,-0.01038471,0.0030543262,-0.0061086523
558,5.58,0.23356278,0.61209553,0.75096416,-0.01038471,0.0030543262,-0.0061086523
559,5.59,0.23356278,0.61209553,0.75096416,-0.0129950132306861,0.0015212909427946,-0.003995549674024
560,5.6,0.23356278,0.61209553,0.75096416,-0.0444165806969679,-0.0169326458244699,0.0214409574507927
561,5.61,0.23356278,0.61209553,0.75096416,-0.0602607105781101,-0.0228702068622875,0.0221976008014615
562,5.62,0.23356278,0.61209553,0.75096416,-0.06352998,-0.023823744,0.021380283
563,5.63,0.23356278,0.61209553,0.75096416,-0.06352998,-0.023823744,0.021380283
564,5.64,0.23356278,0.61209553,0.75096416,-0.06352998,-0.023823744,0.021380283
565,5.65,0.23356278,0.61209553,0.75096416,-0.06352998,-0.023823744,0.021380283
566,5.66,0.23356278,0.61209553,0.75096416,-0.0549188553535303,-0.0130598346677608,0.0261164036700495
567,5.67,0.23356278,0.61209553,0.75096416,-0.05131268,-0.008552114,0.028099801
568,5.68,0.23356278,0.61209553,0.75096416,-0.05131268,-0.008552114,0.028099801
569,5.69,0.23356278,0.61209553,0.75096416,-0.05131268,-0.008552114,0.028099801
570,5.7,0.23356278,0.61209553,0.75096416,-0.05131268,-0.008552114,0.028099801
571,5.71,0.23356278,0.61209553,0.75096416,-0.05131268,-0.008552114,0.028099801
572,5.72,0.2350786661903183,0.6108128743434802,0.7495648914655038,-0.05131268,-0.008552114,0.028099801
573,5.73,0.23673552,0.60941094,0.7480355,-0.05131268,-0.008552114,0.028099801
574,5.74,0.23673552,0.60941094,0.7480355,-0.05131268,-0.008552114,0.028099801
575,5.75,0.23673552,0.60941094,0.7480355,-0.05131268,-0.008552114,0.028099801
576,5.76,0.23673552,0.60941094,0.7480355,-0.05131268,-0.008552114,0.028099801
577,5.77,0.23673552,0.60941094,0.7480355,-0.05131268,-0.008552114,0.028099801
578,5.78,0.23673552,0.60941094,0.7480355,-0.05131268,-0.008552114,0.028099801
579,5.79,0.23673552,0.60941094,0.7480355,-0.05131268,-0.008552114,0.028099801
580,5.8,0.23673552,0.60941094,0.7480355,-0.05131268,-0.008552114,0.028099801
581,5.81,0.23673552,0.60941094,0.7480355,-0.05131268,-0.008552114,0.028099801
582,5.82,0.23673552,0.60941094,0.7480355,-0.05131268,-0.008552114,0.028099801
583,5.83,0.23673552,0.60941094,0.7480355,-0.05131268,-0.008552114,0.028099801
584,5.84,0.2636463308493431,0.6104459644289794,0.7598643765818153,-0.05131268,-0.008552114,0.028099801
585,5.85,0.28115395,0.61111933,0.76756,-0.030092029665928,-0.0106980224046126,0.0204699044936353
586,5.86,0.28115395,0.61111933,0.76756,-0.0090672946536043,-0.015829221471896,0.0108874721307416
587,5.87,0.28115395,0.61111933,0.76756,-0.0620968445988949,-0.0236133755031642,0.0211041743465579
588,5.88,0.28115395,0.61111933,0.76756,-0.06352998,-0.023823744,0.021380283
589,5.89,0.2558739123163795,0.6084426196258332,0.7461463413790044,-0.06352998,-0.023823744,0.021380283
590,5.9,0.23966423,0.6067263,0.7324158,-0.0385603873464512,0.0004457680617702,0.0183465939922787
591,5.91,0.23966423,0.6067263,0.7324158,0.0018325958,0.03970624,0.013439035
592,5.92,0.23966423,0.6067263,0.7324158,0.0018325958,0.03970624,0.013439035
593,5.93,0.23966423,0.6067263,0.7324158,0.0018325958,0.03970624,0.013439035
594,5.94,0.23966423,0.6067263,0.7324158,0.0018325958,0.03970624,0.013439035
595,5.95,0.2401679248508772,0.6119311766034756,0.7298973188661344,0.0018325958,0.03970624,0.013439035
596,5.96,0.2403964,0.6142921,0.72875494,0.0018325958,0.03970624,0.013439035
597,5.97,0.2362041482014157,0.6132723401144151,0.7366862046013255,0.0018325958,0.03970624,0.013439035
598,5.98,0.23136626,0.61209553,0.74583894,0.0018325958,0.03970624,0.013439035
599,5.99,0.23136626,0.61209553,0.74583894,0.0018325958,0.03970624,0.013439035
600,6.0,0.23136626,0.61209553,0.74583894,0.0018325958,0.03970624,0.013439035
601,6.01,0.23136626,0.61209553,0.74583894,0.0018325958,0.03970624,0.013439035
602,6.02,0.23136626,0.61209553,0.74583894,0.0018325958,0.03970624,0.013439035
603,6.03,0.2375269003053704,0.6122075473997279,0.7419185375397391,0.0018325958,0.03970624,0.013439035
604,6.04,0.24478942,0.6123396,0.73729694,0.0018325958,0.03970624,0.013439035
605,6.05,0.2444542142014917,0.6119724700577409,0.7369776959463492,0.0018325958,0.03970624,0.013439035
606,6.06,0.2401443772156944,0.6072521752096718,0.7328730836871247,0.0018325958,0.03970624,0.013439035
607,6.07,0.23966423,0.6067263,0.7324158,-0.0127349017348594,-0.0265523774525811,0.0143788739327887
608,6.08,0.23966423,0.6067263,0.7324158,-0.017104227,-0.04642576,0.014660766
609,6.09,0.23966423,0.6067263,0.7324158,-0.017104227,-0.04642576,0.014660766
610,6.1,0.23966423,0.6067263,0.7324158,-0.0204553370607429,-0.0196168811598084,0.0210278747314027
611,6.11,0.23966423,0.6067263,0.7324158,-0.0450711600555678,-0.0123339682029571,0.0287301109511559
612,6.12,0.23966423,0.6067263,0.7324158,-0.06658431,-0.02687807,0.031154128
613,6.13,0.23966423,0.6067263,0.7324158,-0.06658431,-0.02687807,0.031154128
614,6.14,0.23966423,0.6067263,0.7324158,-0.06658431,-0.02687807,0.031154128
615,6.15,0.23966423,0.6067263,0.7324158,-0.06658431,-0.02687807,0.031154128
616,6.16,0.23966423,0.6067263,0.7324158,-0.06658431,-0.02687807,0.031154128
617,6.17,0.2417914012877181,0.6038592489784008,0.7523002667975037,-0.0503801366616709,-0.0104424085577408,0.024209481850486
618,6.18,0.24527754,0.59916055,0.78488815,-0.023823744,0.016493361,0.01282817
619,6.19,0.2446352832708063,0.6004450578762576,0.7810346183967563,-0.023823744,0.016493361,0.01282817
620,6.2,0.2382378159055734,0.6132399370035796,0.7426499015817276,-0.023823744,0.016493361,0.01282817
621,6.21,0.2495014562879608,0.6130692771469418,0.7552563816230613,-0.023823744,0.016493361,0.01282817
622,6.22,0.2504888507569797,0.6100948100451273,0.7548644296237619,-0.023823744,0.016493361,0.01282817
623,6.23,0.24820623,0.60843474,0.7499879,-0.023823744,0.016493361,0.01282817
624,6.24,0.24820623,0.60843474,0.7499879,-0.023823744,0.016493361,0.01282817
625,6.25,0.24820623,0.60843474,0.7499879,-0.023823744,0.016493361,0.01282817
626,6.26,0.24820623,0.60843474,0.7499879,-0.023823744,0.016493361,0.01282817
627,6.27,0.24820623,0.60843474,0.7499879,-0.023823744,0.016493361,0.01282817
628,6.28,0.24820623,0.60843474,0.7499879,-0.023823744,0.016493361,0.01282817
629,6.29,0.24820623,0.60843474,0.7499879,-0.0198659887600326,0.0158337351626661,0.0083427140469726
630,6.3,0.24820623,0.60843474,0.7499879,-0.0125677201903608,0.0146173571340954,7.134297479481954e-05
631,6.31,0.24820623,0.60843474,0.7499879,-0.005497787,0.013439035,-0.007941248
632,6.32,0.24820623,0.60843474,0.7499879,-0.005497787,0.013439035,-0.007941248
633,6.33,0.24820623,0.60843474,0.7499879,0.012687054453323,0.0112741737660156,0.0054808966122011
634,6.34,0.24820623,0.60843474,0.7499879,0.020158553,0.01038471,0.010995574
635,6.35,0.2487869040267724,0.6090154021303961,0.7611659731604746,0.020158553,0.01038471,0.010995574
636,6.36,0.24918245,0.60941094,0.7687803,0.020158553,0.01038471,0.010995574
637,6.37,0.24918245,0.60941094,0.7687803,0.020158553,0.01038471,0.010995574
638,6.38,0.24918245,0.60941094,0.7687803,0.020158553,0.01038471,0.010995574
639,6.39,0.24918245,0.60941094,0.7687803,0.020158553,0.01038471,0.010995574
640,6.4,0.24918245,0.60941094,0.7687803,0.020158553,0.01038471,0.010995574
641,6.41,0.24918245,0.60941094,0.7687803,0.020158553,0.01038471,0.010995574
642,6.42,0.24918245,0.60941094,0.7687803,0.020158553,0.01038471,0.010995574
643,6.43,0.24918245,0.60941094,0.7687803,0.020158553,0.01038471,0.010995574
644,6.44,0.24918245,0.60941094,0.7687803,0.020158553,0.01038471,0.010995574
645,6.45,0.24918245,0.60941094,0.7687803,0.020158553,0.01038471,0.010995574
646,6.46,0.24918245,0.60941094,0.7687803,0.020158553,0.01038471,0.010995574
647,6.47,0.24918245,0.60941094,0.7687803,0.020158553,0.01038471,0.010995574
648,6.48,0.24918245,0.60941094,0.7687803,0.020158553,0.01038471,0.010995574
649,6.49,0.24918245,0.60941094,0.7687803,0.020158553,0.01038471,0.010995574
650,6.5,0.24918245,0.60941094,0.7687803,0.020158553,0.01038471,0.010995574
651,6.51,0.24918245,0.60941094,0.7687803,0.020158553,0.01038471,0.010995574
652,6.52,0.24918245,0.60941094,0.7687803,0.020158553,0.01038471,0.010995574
653,6.53,0.24918245,0.60941094,0.7687803,0.020158553,0.01038471,0.010995574
654,6.54,0.24918245,0.60941094,0.7687803,0.020158553,0.01038471,0.010995574
655,6.55,0.24918245,0.60941094,0.7687803,0.020158553,0.01038471,0.010995574
656,6.56,0.24918245,0.60941094,0.7687803,0.020158553,0.01038471,0.010995574
657,6.57,0.24918245,0.60941094,0.7687803,0.020158553,0.01038471,0.010995574
658,6.58,0.24918245,0.60941094,0.7687803,0.020158553,0.01038471,0.010995574
659,6.59,0.24918245,0.60941094,0.7687803,0.020158553,0.01038471,0.010995574
660,6.6,0.24918245,0.60941094,0.7687803,0.020158553,0.01038471,0.010995574
661,6.61,0.24918245,0.60941094,0.7687803,0.020158553,0.01038471,0.010995574
662,6.62,0.24918245,0.60941094,0.7687803,0.020158553,0.01038471,0.010995574
663,6.63,0.24918245,0.60941094,0.7687803,0.020158553,0.01038471,0.010995574
664,6.64,0.24918245,0.60941094,0.7687803,0.020158553,0.01038471,0.010995574
665,6.65,0.24918245,0.60941094,0.7687803,0.020158553,0.01038471,0.010995574
666,6.66,0.24918245,0.60941094,0.7687803,0.020158553,0.01038471,0.010995574
667,6.67,0.24918245,0.60941094,0.7687803,0.020158553,0.01038471,0.010995574
668,6.68,0.24918245,0.60941094,0.7687803,0.020158553,0.01038471,0.010995574
669,6.69,0.24918245,0.60941094,0.7687803,0.020158553,0.01038471,0.010995574
670,6.7,0.24918245,0.60941094,0.7687803,0.020158553,0.01038471,0.010995574
671,6.71,0.24918245,0.60941094,0.7687803,0.020158553,0.01038471,0.010995574
672,6.72,0.24918245,0.60941094,0.7687803,0.020158553,0.01038471,0.010995574
673,6.73,0.24918245,0.60941094,0.7687803,0.020158553,0.01038471,0.010995574
674,6.74,0.24918245,0.60941094,0.7687803,0.020158553,0.01038471,0.010995574
675,6.75,0.24918245,0.60941094,0.7687803,0.020158553,0.01038471,0.010995574
676,6.76,0.24918245,0.60941094,0.7687803,0.020158553,0.01038471,0.010995574
677,6.77,0.24918245,0.60941094,0.7687803,0.020158553,0.01038471,0.010995574
678,6.78,0.24918245,0.60941094,0.7687803,0.020158553,0.01038471,0.010995574
679,6.79,0.24918245,0.60941094,0.7687803,0.020158553,0.01038471,0.010995574
680,6.8,0.24918245,0.60941094,0.7687803,0.020158553,0.01038471,0.010995574
681,6.81,0.24918245,0.60941094,0.7687803,0.020158553,0.01038471,0.010995574
682,6.82,0.24918245,0.60941094,0.7687803,0.020158553,0.01038471,0.010995574
683,6.83,0.24918245,0.60941094,0.7687803,0.020158553,0.01038471,0.010995574
684,6.84,0.24918245,0.60941094,0.7687803,0.020158553,0.01038471,0.010995574
685,6.85,0.24918245,0.60941094,0.7687803,0.020158553,0.01038471,0.010995574
686,6.86,0.24918245,0.60941094,0.7687803,0.020158553,0.01038471,0.010995574
687,6.87,0.24918245,0.60941094,0.7687803,0.020158553,0.01038471,0.010995574
688,6.88,0.24918245,0.60941094,0.7687803,0.020158553,0.01038471,0.010995574
689,6.89,0.24918245,0.60941094,0.7687803,0.020158553,0.01038471,0.010995574
690,6.9,0.24918245,0.60941094,0.7687803,0.020158553,0.01038471,0.010995574
691,6.91,0.24918245,0.60941094,0.7687803,0.020158553,0.01038471,0.010995574
692,6.92,0.24918245,0.60941094,0.7687803,0.020158553,0.01038471,0.010995574
693,6.93,0.24918245,0.60941094,0.7687803,0.020158553,0.01038471,0.010995574
694,6.94,0.24918245,0.60941094,0.7687803,0.020158553,0.01038471,0.010995574
695,6.95,0.24918245,0.60941094,0.7687803,0.020158553,0.01038471,0.010995574
696,6.96,0.24918245,0.60941094,0.7687803,0.020158553,0.01038471,0.010995574
697,6.97,0.24918245,0.60941094,0.7687803,0.020158553,0.01038471,0.010995574
698,6.98,0.24918245,0.60941094,0.7687803,0.020158553,0.01038471,0.010995574
699,6.99,0.24918245,0.60941094,0.7687803,0.020158553,0.01038471,0.010995574
700,7.0,0.24918245,0.60941094,0.7687803,0.020158553,0.01038471,0.010995574
701,7.01,0.24918245,0.60941094,0.7687803,0.020158553,0.01038471,0.010995574
702,7.02,0.24918245,0.60941094,0.7687803,0.020158553,0.01038471,0.010995574
703,7.03,0.24918245,0.60941094,0.7687803,0.020158553,0.01038471,0.010995574
704,7.04,0.24918245,0.60941094,0.7687803,0.020158553,0.01038471,0.010995574
705,7.05,0.24918245,0.60941094,0.7687803,0.020158553,0.01038471,0.010995574
706,7.06,0.24918245,0.60941094,0.7687803,0.020158553,0.01038471,0.010995574
707,7.07,0.24918245,0.60941094,0.7687803,0.020158553,0.01038471,0.010995574
708,7.08,0.24918245,0.60941094,0.7687803,0.020158553,0.01038471,0.010995574
709,7.09,0.24918245,0.60941094,0.7687803,0.020158553,0.01038471,0.010995574
710,7.1,0.24918245,0.60941094,0.7687803,0.020158553,0.01038471,0.010995574
711,7.11,0.24918245,0.60941094,0.7687803,0.020158553,0.01038471,0.010995574
712,7.12,0.24918245,0.60941094,0.7687803,0.020158553,0.01038471,0.010995574
713,7.13,0.24918245,0.60941094,0.7687803,0.020158553,0.01038471,0.010995574
714,7.14,0.24918245,0.60941094,0.7687803,0.020158553,0.01038471,0.010995574
715,7.15,0.24918245,0.60941094,0.7687803,0.020158553,0.01038471,0.010995574
716,7.16,0.24918245,0.60941094,0.7687803,0.020158553,0.01038471,0.010995574
717,7.17,0.24918245,0.60941094,0.7687803,0.020158553,0.01038471,0.010995574
718,7.18,0.24918245,0.60941094,0.7687803,0.020158553,0.01038471,0.010995574
719,7.19,0.24918245,0.60941094,0.7687803,0.020158553,0.01038471,0.010995574
720,7.2,0.24918245,0.60941094,0.7687803,0.020158553,0.01038471,0.010995574
721,7.21,0.24918245,0.60941094,0.7687803,0.020158553,0.01038471,0.010995574
722,7.22,0.24918245,0.60941094,0.7687803,0.020158553,0.01038471,0.010995574
723,7.23,0.24918245,0.60941094,0.7687803,0.020158553,0.01038471,0.010995574
724,7.24,0.24918245,0.60941094,0.7687803,0.020158553,0.01038471,0.010995574
725,7.25,0.24918245,0.60941094,0.7687803,0.020158553,0.01038471,0.010995574
726,7.26,0.24918245,0.60941094,0.7687803,0.020158553,0.01038471,0.010995574
727,7.27,0.24918245,0.60941094,0.7687803,0.020158553,0.01038471,0.010995574
728,7.28,0.24918245,0.60941094,0.7687803,0.020158553,0.01038471,0.010995574
729,7.29,0.24918245,0.60941094,0.7687803,0.020158553,0.01038471,0.010995574
730,7.3,0.24918245,0.60941094,0.7687803,0.020158553,0.01038471,0.010995574
731,7.31,0.24918245,0.60941094,0.7687803,0.020158553,0.01038471,0.010995574
732,7.32,0.24918245,0.60941094,0.7687803,0.020158553,0.01038471,0.010995574
733,7.33,0.24918245,0.60941094,0.7687803,0.020158553,0.01038471,0.010995574
734,7.34,0.24918245,0.60941094,0.7687803,0.020158553,0.01038471,0.010995574
735,7.35,0.24918245,0.60941094,0.7687803,0.020158553,0.01038471,0.010995574
736,7.36,0.24918245,0.60941094,0.7687803,0.020158553,0.01038471,0.010995574
737,7.37,0.24918245,0.60941094,0.7687803,0.020158553,0.01038471,0.010995574
738,7.38,0.24918245,0.60941094,0.7687803,0.020158553,0.01038471,0.010995574
739,7.39,0.24918245,0.60941094,0.7687803,0.020158553,0.01038471,0.010995574
740,7.4,0.24918245,0.60941094,0.7687803,0.020158553,0.01038471,0.010995574
741,7.41,0.24918245,0.60941094,0.7687803,0.020158553,0.01038471,0.010995574
742,7.42,0.24918245,0.60941094,0.7687803,0.020158553,0.01038471,0.010995574
743,7.43,0.24918245,0.60941094,0.7687803,0.020158553,0.01038471,0.010995574
744,7.44,0.24918245,0.60941094,0.7687803,0.020158553,0.01038471,0.010995574
745,7.45,0.24918245,0.60941094,0.7687803,0.020158553,0.01038471,0.010995574
746,7.46,0.24918245,0.60941094,0.7687803,0.020158553,0.01038471,0.010995574
747,7.47,0.24918245,0.60941094,0.7687803,0.020158553,0.01038471,0.010995574
748,7.48,0.24918245,0.60941094,0.7687803,0.020158553,0.01038471,0.010995574
749,7.49,0.24918245,0.60941094,0.7687803,0.020158553,0.01038471,0.010995574
750,7.5,0.24918245,0.60941094,0.7687803,0.020158553,0.01038471,0.010995574
751,7.51,0.24918245,0.60941094,0.7687803,0.020158553,0.01038471,0.010995574
752,7.52,0.24918245,0.60941094,0.7687803,0.020158553,0.01038471,0.010995574
753,7.53,0.248399656824783,0.6090038880107551,0.7658996214231134,0.020158553,0.01038471,0.010995574
754,7.54,0.2431389463337417,0.6062683216593676,0.7465402088853842,0.020158553,0.01038471,0.010995574
755,7.55,0.24308102,0.6062382,0.74632704,-0.0186570857038685,0.0214064338148188,0.0157876284805702
756,7.56,0.24308102,0.6062382,0.74632704,-0.029321533,0.02443461,0.017104227
757,7.57,0.24308102,0.6062382,0.74632704,-0.029321533,0.02443461,0.017104227
758,7.58,0.24308102,0.6062382,0.74632704,-0.029321533,0.02443461,0.017104227
759,7.59,0.24308102,0.6062382,0.74632704,-0.029321533,0.02443461,0.017104227
760,7.6,0.24308102,0.6062382,0.74632704,-0.029321533,0.02443461,0.017104227
761,7.61,0.24308102,0.6062382,0.74632704,-0.029321533,0.02443461,0.017104227
762,7.62,0.24308102,0.6062382,0.74632704,-0.029321533,0.02443461,0.017104227
763,7.63,0.24308102,0.6062382,0.74632704,-0.0410462283248616,-0.0003676287758189,0.0157513773974746
764,7.64,0.24308102,0.6062382,0.74632704,-0.04520403,-0.009162978,0.015271631
765,7.65,0.24308102,0.6062382,0.74632704,-0.04520403,-0.009162978,0.015271631
766,7.66,0.24308102,0.6062382,0.74632704,-0.0295103364228761,-0.0044695370199637,0.0142449407255915
767,7.67,0.24308102,0.6062382,0.74632704,0.020158553,0.01038471,0.010995574
768,7.68,0.24308102,0.6062382,0.74632704,0.020158553,0.01038471,0.010995574
769,7.69,0.24308102,0.6062382,0.74632704,0.020158553,0.01038471,0.010995574
770,7.7,0.238200601202024,0.6055283062266226,0.7489890852949617,0.020158553,0.01038471,0.010995574
771,7.71,0.2070968681894332,0.6125649829162326,0.7548216462101153,0.020158553,0.01038471,0.010995574
772,7.72,0.14985114,0.63357264,0.7577977,0.020158553,0.01038471,0.010995574
773,7.73,0.14985114,0.63357264,0.7577977,0.020158553,0.01038471,0.010995574
774,7.74,0.14985114,0.63357264,0.7577977,0.020158553,0.01038471,0.010995574
775,7.75,0.14985114,0.63357264,0.7577977,-0.0239624516909522,0.016063650050822,0.0131797825920016
776,7.76,0.14985114,0.63357264,0.7577977,-0.04153884,0.018325957,0.014049901
777,7.77,0.14985114,0.63357264,0.7577977,-0.04153884,0.018325957,0.014049901
778,7.78,0.14985114,0.63357264,0.7577977,-0.04153884,0.018325957,0.014049901
779,7.79,0.14985114,0.63357264,0.7577977,-0.04153884,0.018325957,0.014049901
780,7.8,0.14985114,0.63357264,0.7577977,-0.04153884,0.018325957,0.014049901
781,7.81,0.14985114,0.63357264,0.7577977,-0.04153884,0.018325957,0.014049901
782,7.82,0.14985114,0.63357264,0.7577977,-0.04153884,0.018325957,0.014049901
783,7.83,0.14985114,0.63357264,0.7577977,-0.04153884,0.018325957,0.014049901
784,7.84,0.14985114,0.63357264,0.7577977,-0.04153884,0.018325957,0.014049901
785,7.85,0.14985114,0.63357264,0.7577977,-0.04153884,0.018325957,0.014049901
786,7.86,0.14985114,0.63357264,0.7577977,-0.0651159477258097,0.0170850562369956,0.0264589059215343
787,7.87,0.14985114,0.63357264,0.7577977,-0.076358154,0.016493361,0.032375857
788,7.88,0.14985114,0.63357264,0.7577977,-0.076358154,0.016493361,0.032375857
789,7.89,0.14985114,0.63357264,0.7577977,-0.076358154,0.016493361,0.032375857
790,7.9,0.14985114,0.63357264,0.7577977,-0.076358154,0.016493361,0.032375857
791,7.91,0.14985114,0.63357264,0.7577977,-0.076358154,0.016493361,0.032375857
792,7.92,0.14985114,0.63357264,0.7577977,-0.076358154,0.016493361,0.032375857
793,7.93,0.14985114,0.63357264,0.7577977,-0.076358154,0.016493361,0.032375857
794,7.94,0.1848231795276307,0.6214701324183725,0.7625552345620922,-0.076358154,0.016493361,0.032375857
795,7.95,0.2499282223625793,0.5982666802685195,0.7655720964915153,-0.076358154,0.016493361,0.032375857
796,7.96,0.2393100702793776,0.5986673945258049,0.7357211048134886,-0.076358154,0.016493361,0.032375857
797,7.97,0.23917611,0.59867245,0.7353445,-0.076358154,0.016493361,0.032375857
798,7.98,0.23917611,0.59867245,0.7353445,-0.076358154,0.016493361,0.032375857
799,7.99,0.2403136749338743,0.5989252341513959,0.7426754475481543,-0.076358154,0.016493361,0.032375857
800,8.0,0.24137263,0.59916055,0.7494998,-0.076358154,0.016493361,0.032375857
801,8.01,0.24137263,0.59916055,0.7494998,-0.076358154,0.016493361,0.032375857
802,8.02,0.24137263,0.59916055,0.7494998,-0.0702521512057142,0.0159428198089076,0.0292728064267567
803,8.03,0.24137263,0.59916055,0.7494998,-0.0038708632487633,0.0099576221977527,-0.0044619461744394
804,8.04,0.24137263,0.59916055,0.7494998,-0.0018325958,0.009773844,-0.005497787
805,8.05,0.24137263,0.59916055,0.7494998,-0.0018325958,0.009773844,-0.005497787
806,8.06,0.24137263,0.59916055,0.7494998,-0.0018325958,0.009773844,-0.005497787
807,8.07,0.2428884726562626,0.5960341155445903,0.7497840319010978,-0.0018325958,0.009773844,-0.005497787
808,8.08,0.24527754,0.59110665,0.750232,-0.0018325958,0.009773844,-0.005497787
809,8.09,0.24527754,0.59110665,0.750232,-0.0072985210565161,0.0116144105631035,-0.0042149677778894
810,8.1,0.24527754,0.59110665,0.750232,-0.0569497333663837,0.0283336953879648,0.0074378680299653
811,8.11,0.24527754,0.59110665,0.750232,-0.06169739,0.029932396,0.008552114
812,8.12,0.24527754,0.59110665,0.750232,-0.0139109944317155,0.0095977603611486,-0.0016152045129309
813,8.13,0.24527754,0.59110665,0.750232,-0.0027837577052879,-0.0072143969238706,0.0008660633094202
814,8.14,0.24527754,0.59110665,0.750232,-0.042760566,-0.007941248,0.016493361
815,8.15,0.24527754,0.59110665,0.750232,-0.042760566,-0.007941248,0.016493361
816,8.16,0.24527754,0.59110665,0.750232,-0.042760566,-0.007941248,0.016493361
817,8.17,0.24527754,0.59110665,0.750232,-0.042760566,-0.007941248,0.016493361
818,8.18,0.24527754,0.59110665,0.750232,-0.042760566,-0.007941248,0.016493361
819,8.19,0.2638650801580208,0.5767057565702771,0.6603823184095623,-0.0311667630155337,-0.0120288071399257,0.0135949103451301
820,8.2,0.39805737,0.47273886,0.011714748,0.0548624653628733,-0.0405041497786434,-0.0069238976271912
821,8.21,0.39805737,0.47273886,0.011714748,0.0870696008527478,-0.0261898634332323,-0.0013004289778236
822,8.22,0.39805737,0.47273886,0.011714748,0.09101892,-0.02443461,-0.00061086525
823,8.23,0.39805737,0.47273886,0.011714748,0.09101892,-0.02443461,-0.00061086525
824,8.24,0.3599584161564601,0.5067466444578177,0.2015702663861878,0.09101892,-0.02443461,-0.00061086525
825,8.25,0.25259924,0.6025773,0.7365648,0.09101892,-0.02443461,-0.00061086525
826,8.26,0.25259924,0.6025773,0.7365648,0.09101892,-0.02443461,-0.00061086525
827,8.27,0.25259924,0.6025773,0.7365648,0.09101892,-0.02443461,-0.00061086525
828,8.28,0.2477964460236279,0.6012369995572034,0.7354478745740626,0.09101892,-0.02443461,-0.00061086525
829,8.29,0.2421048,0.59964865,0.73412424,0.09101892,-0.02443461,-0.00061086525
830,8.3,0.2421048,0.59964865,0.73412424,0.09101892,-0.02443461,-0.00061086525
831,8.31,0.2421048,0.59964865,0.73412424,0.09101892,-0.02443461,-0.00061086525
832,8.32,0.2421048,0.59964865,0.73412424,0.09101892,-0.02443461,-0.00061086525
833,8.33,0.2421048,0.59964865,0.73412424,0.09101892,-0.02443461,-0.00061086525
834,8.34,0.2421048,0.59964865,0.73412424,0.09101892,-0.02443461,-0.00061086525
835,8.35,0.2421048,0.59964865,0.73412424,0.09101892,-0.02443461,-0.00061086525
836,8.36,0.2390042191967664,0.5982921694709952,0.7198809701353597,0.09101892,-0.02443461,-0.00061086525
837,8.37,0.23429495,0.5962319,0.6982478,0.09101892,-0.02443461,-0.00061086525
838,8.38,0.23429495,0.5962319,0.6982478,0.09101892,-0.02443461,-0.00061086525
839,8.39,0.23429495,0.5962319,0.6982478,0.09101892,-0.02443461,-0.00061086525
840,8.4,0.2368786802335202,0.5924242952045577,0.7152459346045777,0.09101892,-0.02443461,-0.00061086525
841,8.41,0.23893206,0.58939826,0.72875494,0.09101892,-0.02443461,-0.00061086525
842,8.42,0.23893206,0.58939826,0.72875494,0.09101892,-0.02443461,-0.00061086525
843,8.43,0.23893206,0.58939826,0.72875494,0.09101892,-0.02443461,-0.00061086525
844,8.44,0.23893206,0.58939826,0.72875494,0.09101892,-0.02443461,-0.00061086525
845,8.45,0.23893206,0.58939826,0.72875494,0.09101892,-0.02443461,-0.00061086525
846,8.46,0.23893206,0.58939826,0.72875494,0.09101892,-0.02443461,-0.00061086525
847,8.47,0.23893206,0.58939826,0.72875494,0.09101892,-0.02443461,-0.00061086525
848,8.48,0.23893206,0.58939826,0.72875494,0.09101892,-0.02443461,-0.00061086525
849,8.49,0.23893206,0.58939826,0.72875494,0.09101892,-0.02443461,-0.00061086525
850,8.5,0.23893206,0.58939826,0.72875494,0.09101892,-0.02443461,-0.00061086525
851,8.51,0.23893206,0.58939826,0.72875494,0.09101892,-0.02443461,-0.00061086525
852,8.52,0.23893206,0.58939826,0.72875494,0.09101892,-0.02443461,-0.00061086525
853,8.53,0.23893206,0.58939826,0.72875494,0.09101892,-0.02443461,-0.00061086525
854,8.54,0.23893206,0.58939826,0.72875494,0.09101892,-0.02443461,-0.00061086525
855,8.55,0.2542322572007675,0.5870336918405852,0.761302636890055,0.09101892,-0.02443461,-0.00061086525
856,8.56,0.3853655609290573,0.4758823009392632,0.1990967618369989,0.09101892,-0.02443461,-0.00061086525
857,8.57,0.5427833,0.33191785,-0.57329047,0.09101892,-0.02443461,-0.00061086525
858,8.58,0.5427833,0.33191785,-0.57329047,0.09101892,-0.02443461,-0.00061086525
859,8.59,0.5427833,0.33191785,-0.57329047,0.09101892,-0.02443461,-0.00061086525
860,8.6,0.5427833,0.33191785,-0.57329047,0.09101892,-0.02443461,-0.00061086525
861,8.61,0.3091126175419391,0.5505130051110395,0.6294017254489477,0.09101892,-0.02443461,-0.00061086525
862,8.62,0.27041543,0.5867136,0.82857436,0.09101892,-0.02443461,-0.00061086525
863,8.63,0.27041543,0.5867136,0.82857436,0.09101892,-0.02443461,-0.00061086525
864,8.64,0.27041543,0.5867136,0.82857436,0.09101892,-0.02443461,-0.00061086525
865,8.65,0.271566698221785,0.5900996797407609,0.8148269189846707,0.09101892,-0.02443461,-0.00061086525
866,8.66,0.27456442,0.5989165,0.77903074,0.09101892,-0.02443461,-0.00061086525
867,8.67,0.27456442,0.5989165,0.77903074,0.09101892,-0.02443461,-0.00061086525
868,8.68,0.27456442,0.5989165,0.77903074,0.09101892,-0.02443461,-0.00061086525
869,8.69,0.2726037091835197,0.5931497090406515,0.8024438385183356,0.09101892,-0.02443461,-0.00061086525
870,8.7,0.27041543,0.5867136,0.82857436,0.09101892,-0.02443461,-0.00061086525
871,8.71,0.27041543,0.5867136,0.82857436,0.09101892,-0.02443461,-0.00061086525
872,8.72,0.27041543,0.5867136,0.82857436,0.09101892,-0.02443461,-0.00061086525
873,8.73,0.27041543,0.5867136,0.82857436,0.09101892,-0.02443461,-0.00061086525
874,8.74,0.27041543,0.5867136,0.82857436,0.09101892,-0.02443461,-0.00061086525
875,8.75,0.27041543,0.5867136,0.82857436,0.09101892,-0.02443461,-0.00061086525
876,8.76,0.2716217306281599,0.5902615396034632,0.8141697699847632,0.09101892,-0.02443461,-0.00061086525
877,8.77,0.2714529911096876,0.5980594628793071,0.7728637813216196,0.0860291495116724,-0.0195381062140992,-0.0008440321091256
878,8.78,0.238966013901471,0.5891109873113022,0.7084734792798961,0.033930076756629,0.031587152469391,-0.0032785683640638
879,8.79,0.23380683,0.5876899,0.6982478,0.02565634,0.03970624,-0.0036651916
880,8.8,0.23380683,0.5876899,0.6982478,0.02565634,0.03970624,-0.0036651916
881,8.81,0.23380683,0.5876899,0.6982478,0.02565634,0.03970624,-0.0036651916
882,8.82,0.243161250350144,0.5884405595057708,0.7268307234668604,0.02565634,0.03970624,-0.0036651916
883,8.83,0.2779415186108403,0.6116156387632522,0.7954540047952321,0.02565634,0.03970624,-0.0036651916
884,8.84,0.3067162158943617,0.7415071044263423,0.647730328973555,0.02565634,0.03970624,-0.0036651916
885,8.85,0.2508631575557515,0.6506525623711482,0.7164554231435156,0.02565634,0.03970624,-0.0036651916
886,8.86,0.2512310741693225,0.600658607541326,0.7657136647575182,0.02565634,0.03970624,-0.0036651916
887,8.87,0.26577836,0.5852493,0.78586435,0.02565634,0.03970624,-0.0036651916
888,8.88,0.26577836,0.5852493,0.78586435,0.02565634,0.03970624,-0.0036651916
889,8.89,0.26577836,0.5852493,0.78586435,0.02565634,0.03970624,-0.0036651916
890,8.9,0.26577836,0.5852493,0.78586435,0.02565634,0.03970624,-0.0036651916
891,8.91,0.26577836,0.5852493,0.78586435,0.02565634,0.03970624,-0.0036651916
892,8.92,0.26577836,0.5852493,0.78586435,0.02565634,0.03970624,-0.0036651916
893,8.93,0.26577836,0.5852493,0.78586435,0.02565634,0.03970624,-0.0036651916
894,8.94,0.26577836,0.5852493,0.78586435,0.02565634,0.03970624,-0.0036651916
895,8.95,0.26577836,0.5852493,0.78586435,0.02565634,0.03970624,-0.0036651916
896,8.96,0.26577836,0.5852493,0.78586435,0.02565634,0.03970624,-0.0036651916
897,8.97,0.26577836,0.5852493,0.78586435,-0.0259659527374923,0.0569136709124974,0.0048498255348231
898,8.98,0.264100157456918,0.5894221193559179,0.7792422636749983,-0.15210545,0.09896017,0.02565634
899,8.99,0.2568225004464614,0.6075178779186445,0.7505250667158689,-0.15210545,0.09896017,0.02565634
900,9.0,0.25674823,0.60770255,0.750232,-0.15210545,0.09896017,0.02565634
901,9.01,0.25674823,0.60770255,0.750232,-0.15210545,0.09896017,0.02565634
902,9.02,0.25674823,0.60770255,0.750232,-0.15210545,0.09896017,0.02565634
903,9.03,0.25674823,0.60770255,0.750232,-0.15210545,0.09896017,0.02565634
904,9.04,0.25674823,0.60770255,0.750232,-0.15210545,0.09896017,0.02565634
905,9.05,0.25674823,0.60770255,0.750232,-0.15210545,0.09896017,0.02565634
906,9.06,0.2263823978798658,0.5852093538226324,0.7329872021834577,-0.15210545,0.09896017,0.02565634
907,9.07,0.21721096,0.5784157,0.72777873,-0.1116680663059972,0.1685261794430407,0.0184598566514031
908,9.08,0.21721096,0.5784157,0.72777873,-0.0720148328353039,0.1664351205368025,-0.0001267819121171
909,9.09,0.21721096,0.5784157,0.72777873,-0.059253927,0.076358154,-0.02076942
910,9.1,0.2178778304344791,0.5788524525729207,0.7289293156517186,-0.059253927,0.076358154,-0.02076942
911,9.11,0.2349810304517234,0.5900538287720992,0.7584383409748822,-0.059253927,0.076358154,-0.02076942
912,9.12,0.2518671,0.601113,0.78757274,-0.059253927,0.076358154,-0.02076942
913,9.13,0.2518671,0.601113,0.78757274,-0.059253927,0.076358154,-0.02076942
914,9.14,0.2518671,0.601113,0.78757274,-0.059253927,0.076358154,-0.02076942
915,9.15,0.2518671,0.601113,0.78757274,-0.0342158494391797,0.031957295992461,-0.0064142543003379
916,9.16,0.2518671,0.601113,0.78757274,-0.013439035,-0.004886922,0.005497787
917,9.17,0.2518671,0.601113,0.78757274,-0.013439035,-0.004886922,0.005497787
918,9.18,0.2518671,0.601113,0.78757274,-0.013439035,-0.004886922,0.005497787
919,9.19,0.2518671,0.601113,0.78757274,-0.013439035,-0.004886922,0.005497787
920,9.2,0.2518671,0.601113,0.78757274,-0.013439035,-0.004886922,0.005497787
921,9.21,0.2518671,0.601113,0.78757274,-0.013439035,-0.004886922,0.005497787
922,9.22,0.2518671,0.601113,0.78757274,-0.013439035,-0.004886922,0.005497787
923,9.23,0.2518671,0.601113,0.78757274,-0.013439035,-0.004886922,0.005497787
924,9.24,0.2518671,0.601113,0.78757274,-0.013439035,-0.004886922,0.005497787
925,9.25,0.2518671,0.601113,0.78757274,-0.013439035,-0.004886922,0.005497787
926,9.26,0.2518671,0.601113,0.78757274,-0.013439035,-0.004886922,0.005497787
927,9.27,0.2518671,0.601113,0.78757274,-0.013439035,-0.004886922,0.005497787
928,9.28,0.2518671,0.601113,0.78757274,-0.013439035,-0.004886922,0.005497787
929,9.29,0.2518671,0.601113,0.78757274,-0.013439035,-0.004886922,0.005497787
930,9.3,0.2518671,0.601113,0.78757274,-0.013439035,-0.004886922,0.005497787
931,9.31,0.2518671,0.601113,0.78757274,-0.013439035,-0.004886922,0.005497787
932,9.32,0.2518671,0.601113,0.78757274,-0.013439035,-0.004886922,0.005497787
933,9.33,0.2518671,0.601113,0.78757274,0.0086462187000806,-0.0116823847197337,-0.0043556338045598
934,9.34,0.2518671,0.601113,0.78757274,0.026267206,-0.017104227,-0.012217305
935,9.35,0.2518671,0.601113,0.78757274,0.026267206,-0.017104227,-0.012217305
936,9.36,0.2536818417534594,0.6015510415549808,0.7838181002979177,0.026267206,-0.017104227,-0.012217305
937,9.37,0.2649692241510257,0.6042755848833458,0.7604648854387243,0.026267206,-0.017104227,-0.012217305
938,9.38,0.2660224,0.6045298,0.7582859,0.026267206,-0.017104227,-0.012217305
939,9.39,0.2660224,0.6045298,0.7582859,0.0037405929310564,0.0241945640920097,-0.0074389326459636
940,9.4,0.2660224,0.6045298,0.7582859,-0.014049901,0.05681047,-0.0036651916
941,9.41,0.2660224,0.6045298,0.7582859,-0.014049901,0.05681047,-0.0036651916
942,9.42,0.2660224,0.6045298,0.7582859,-0.014049901,0.05681047,-0.0036651916
943,9.43,0.2660224,0.6045298,0.7582859,-0.014049901,0.05681047,-0.0036651916
944,9.44,0.2660224,0.6045298,0.7582859,-0.014049901,0.05681047,-0.0036651916
945,9.45,0.2660224,0.6045298,0.7582859,-0.014049901,0.05681047,-0.0036651916
946,9.46,0.2660224,0.6045298,0.7582859,-0.014049901,0.05681047,-0.0036651916
947,9.47,0.2660224,0.6045298,0.7582859,-0.014049901,0.05681047,-0.0036651916
948,9.48,0.2660224,0.6045298,0.7582859,0.6851436889573838,-0.920303911939388,-0.3628292215221563
949,9.49,0.2660224,0.6045298,0.7582859,1.3475688,-1.8460348,-0.7031059
950,9.5,0.2660224,0.6045298,0.7582859,1.3475688,-1.8460348,-0.7031059
951,9.51,0.2660224,0.6045298,0.7582859,1.3475688,-1.8460348,-0.7031059
952,9.52,0.2660224,0.6045298,0.7582859,1.3475688,-1.8460348,-0.7031059
953,9.53,0.2660224,0.6045298,0.7582859,1.3475688,-1.8460348,-0.7031059
954,9.54,0.2488134619553558,0.6057700921212515,0.7378212038716562,1.3475688,-1.8460348,-0.7031059
955,9.55,0.23893206,0.60648227,0.72607034,1.3475688,-1.8460348,-0.7031059
956,9.56,0.23893206,0.60648227,0.72607034,1.3475688,-1.8460348,-0.7031059
957,9.57,0.23893206,0.60648227,0.72607034,1.3475688,-1.8460348,-0.7031059
958,9.58,0.23893206,0.60648227,0.72607034,1.3475688,-1.8460348,-0.7031059
959,9.59,0.23893206,0.60648227,0.72607034,0.3133352983869359,-0.4143090572734588,-0.1572604668207741
960,9.6,0.23893206,0.60648227,0.72607034,0.0061086523,0.010995574,0.004886922
961,9.61,0.23893206,0.60648227,0.72607034,0.0061086523,0.010995574,0.004886922
962,9.62,0.23893206,0.60648227,0.72607034,0.0061086523,0.010995574,0.004886922
963,9.63,0.2420401853405533,0.6068757034445714,0.7307521942826725,0.0061086523,0.010995574,0.004886922
964,9.64,0.257795084172605,0.6088699937119212,0.7544842296698877,0.0061086523,0.010995574,0.004886922
965,9.65,0.25821257,0.60892284,0.7551131,0.0050097624657088,0.0076989044071811,0.004886922
966,9.66,0.25821257,0.60892284,0.7551131,-0.0127882558278866,0.0409563296341491,0.0100601448305319
967,9.67,0.25821257,0.60892284,0.7551131,-0.020158553,0.05497787,0.012217305
968,9.68,0.25821257,0.60892284,0.7551131,-0.020158553,0.05497787,0.012217305
969,9.69,0.25821257,0.60892284,0.7551131,-0.0207425283904338,0.0524296136402245,0.0114740635197269
970,9.7,0.25821257,0.60892284,0.7551131,-0.0262843911069604,0.028246938918438,0.0044207829939142
971,9.71,0.25821257,0.60892284,0.7551131,-0.02687807,0.02565634,0.0036651916
972,9.72,0.25821257,0.60892284,0.7551131,-0.02687807,0.02565634,0.0036651916
973,9.73,0.25821257,0.60892284,0.7551131,-0.02687807,0.02565634,0.0036651916
974,9.74,0.2585739454332329,0.6090131699767651,0.749963528764953,-0.02687807,0.02565634,0.0036651916
975,9.75,0.2591888,0.60916686,0.7412019,-0.02687807,0.02565634,0.0036651916
976,9.76,0.2591888,0.60916686,0.7412019,-0.02687807,0.02565634,0.0036651916
977,9.77,0.2591888,0.60916686,0.7412019,-0.02687807,0.02565634,0.0036651916
978,9.78,0.2591888,0.60916686,0.7412019,-0.02687807,0.02565634,0.0036651916
979,9.79,0.2591888,0.60916686,0.7412019,-0.02687807,0.02565634,0.0036651916
980,9.8,0.2591888,0.60916686,0.7412019,-0.02687807,0.02565634,0.0036651916
981,9.81,0.2591888,0.60916686,0.7412019,-0.02687807,0.02565634,0.0036651916
982,9.82,0.2581902648539612,0.6088160286766594,0.7430100519314778,-0.02687807,0.02565634,0.0036651916
983,9.83,0.2502389883750766,0.6060223795393206,0.7574082591253307,-0.02687807,0.02565634,0.0036651916
984,9.84,0.25015867,0.60599416,0.7575537,-0.02687807,0.02565634,0.0036651916
985,9.85,0.25015867,0.60599416,0.7575537,-0.0337511179687535,0.0200719888330413,0.0028060604456839
986,9.86,0.25015867,0.60599416,0.7575537,-0.036651913,0.017715093,0.002443461
987,9.87,0.25015867,0.60599416,0.7575537,-0.036651913,0.017715093,0.002443461
988,9.88,0.25015867,0.60599416,0.7575537,-0.036651913,0.017715093,0.002443461
989,9.89,0.25015867,0.60599416,0.7575537,-0.0274583721173026,0.0159829763457609,0.0021769815398997
990,9.9,0.25015867,0.60599416,0.7575537,0.0038443980915959,0.0100853521012551,0.0012696548187438
991,9.91,0.2588389103753806,0.6113206610353544,0.7520299187534792,0.005497787,0.009773844,0.0012217305
992,9.92,0.2608972,0.6125837,0.7507201,-0.0249340385699776,0.0224858720753742,-0.0014747604395423
993,9.93,0.2608972,0.6125837,0.7507201,-0.042760566,0.029932396,-0.0030543262
994,9.94,0.2608972,0.6125837,0.7507201,-0.042760566,0.029932396,-0.0030543262
995,9.95,0.2608972,0.6125837,0.7507201,-0.042760566,0.029932396,-0.0030543262
996,9.96,0.2608972,0.6125837,0.7507201,-0.042760566,0.029932396,-0.0030543262
997,9.97,0.2608972,0.6125837,0.7507201,-0.042760566,0.029932396,-0.0030543262
998,9.98,0.257222822595668,0.6079610812856928,0.7462160156989424,-0.042760566,0.029932396,-0.0030543262
999,9.99,0.25333142,0.60306543,0.7414459,-0.042760566,0.029932396,-0.0030543262
