id,timestamp,acc_x,acc_y,acc_z,gyro_x,gyro_y,gyro_z
1,0.01,-0.21843125,0.7658516,0.5786598,-0.0072478181920831,0.0858555136800981,0.020945600835399
2,0.02,-0.21843125,0.7658516,0.5786598,0.0067195175,-0.016493361,0.007330383
3,0.03,-0.21843125,0.7658516,0.5786598,0.0067195175,-0.016493361,0.007330383
4,0.04,-0.21843125,0.7658516,0.5786598,0.0067195175,-0.016493361,0.007330383
5,0.05,-0.21843125,0.7658516,0.5786598,0.0067195175,-0.016493361,0.007330383
6,0.06,-0.21843125,0.7658516,0.5786598,0.0067195175,-0.016493361,0.007330383
7,0.07,-0.21843125,0.7658516,0.5786598,0.0067195175,-0.016493361,0.007330383
8,0.08,-0.21843125,0.7658516,0.5786598,0.0067195175,-0.016493361,0.007330383
9,0.09,-0.21843125,0.7658516,0.5786598,0.0067195175,-0.016493361,0.007330383
10,0.1,-0.21843125,0.7658516,0.5786598,0.0067195175,-0.016493361,0.007330383
11,0.11,-0.21843125,0.7658516,0.5786598,0.0067195175,-0.016493361,0.007330383
12,0.12,-0.21843125,0.7658516,0.5786598,0.0067195175,-0.016493361,0.007330383
13,0.13,-0.2188281285818105,0.7708787865224503,0.5830254264558585,0.0067195175,-0.016493361,0.007330383
14,0.14,-0.21916342,0.77512586,0.5867136,0.0067195175,-0.016493361,0.007330383
15,0.15,-0.21916342,0.77512586,0.5867136,0.0067195175,-0.016493361,0.007330383
16,0.16,-0.21916342,0.77512586,0.5867136,0.0067195175,-0.016493361,0.007330383
17,0.17,-0.21916342,0.77512586,0.5867136,0.0013268590920243,0.0050772726319024,-0.0079488159758597
18,0.18,-0.21916342,0.77512586,0.5867136,-0.00061086525,0.01282817,-0.013439035
19,0.19,-0.21916342,0.77512586,0.5867136,-0.00061086525,0.01282817,-0.013439035
20,0.2,-0.21916342,0.77512586,0.5867136,-0.00061086525,0.01282817,-0.013439035
21,0.21,-0.21916342,0.77512586,0.5867136,-0.00061086525,0.01282817,-0.013439035
22,0.22,-0.21916342,0.77512586,0.5867136,-0.00061086525,0.01282817,-0.013439035
23,0.23,-0.21916342,0.77512586,0.5867136,-0.00061086525,0.01282817,-0.013439035
24,0.24,-0.21916342,0.77512586,0.5867136,-0.00061086525,0.01282817,-0.013439035
25,0.25,-0.21916342,0.77512586,0.5867136,-0.00061086525,0.01282817,-0.013439035
26,0.26,-0.21916342,0.77512586,0.5867136,-0.00061086525,0.01282817,-0.013439035
27,0.27,-0.21916342,0.77512586,0.5867136,-0.00061086525,0.01282817,-0.013439035
28,0.28,-0.21916342,0.77512586,0.5867136,-0.00061086525,0.01282817,-0.013439035
29,0.29,-0.21916342,0.77512586,0.5867136,-0.00061086525,0.01282817,-0.013439035
30,0.3,-0.21916342,0.77512586,0.5867136,-0.00061086525,0.01282817,-0.013439035
31,0.31,-0.21916342,0.77512586,0.5867136,-0.00061086525,0.01282817,-0.013439035
32,0.32,-0.21916342,0.77512586,0.5867136,-0.1189061466392239,-0.1862541257649379,0.017817847421097
33,0.33,-0.2219612251774111,0.7676159009216066,0.5898059389304205,-0.15088372,-0.24007004,0.026267206
34,0.34,-0.2238005,0.76267886,0.59183884,-0.15088372,-0.24007004,0.026267206
35,0.35,-0.2238005,0.76267886,0.59183884,-0.15088372,-0.24007004,0.026267206
36,0.36,-0.2238005,0.76267886,0.59183884,-0.15088372,-0.24007004,0.026267206
37,0.37,-0.1793877394133717,0.8009392304087931,0.6483641000395087,-0.15088372,-0.24007004,0.026267206
38,0.38,-0.16742326,0.8112463,0.6635916,-0.15088372,-0.24007004,0.026267206
39,0.39,-0.198939736647347,0.7876699991129663,0.6252343818010524,-0.15088372,-0.24007004,0.026267206
40,0.4,-0.23039004,0.7641432,0.5869577,-0.15088372,-0.24007004,0.026267206
41,0.41,-0.23039004,0.7641432,0.5869577,-0.163221870081827,-0.2615149229383824,0.0524123366344023
42,0.42,-0.23039004,0.7641432,0.5869577,-0.20219639,-0.32925636,0.13500121
43,0.43,-0.23039004,0.7641432,0.5869577,-0.20219639,-0.32925636,0.13500121
44,0.44,-0.23039004,0.7641432,0.5869577,-0.20219639,-0.32925636,0.13500121
45,0.45,-0.23039004,0.7641432,0.5869577,-0.0262030123139856,-0.0449337245955258,0.0323384090780928
46,0.46,-0.23039004,0.7641432,0.5869577,0.12034045,0.19181168,-0.053145275
47,0.47,-0.23039004,0.7641432,0.5869577,0.12034045,0.19181168,-0.053145275
48,0.48,-0.23039004,0.7641432,0.5869577,0.12034045,0.19181168,-0.053145275
49,0.49,-0.23039004,0.7641432,0.5869577,0.12034045,0.19181168,-0.053145275
50,0.5,-0.23039004,0.7641432,0.5869577,0.12034045,0.19181168,-0.053145275
51,0.51,-0.23039004,0.7641432,0.5869577,0.12034045,0.19181168,-0.053145275
52,0.52,-0.23039004,0.7641432,0.5869577,0.12034045,0.19181168,-0.053145275
53,0.53,-0.23039004,0.7641432,0.5869577,0.12034045,0.19181168,-0.053145275
54,0.54,-0.2328557813722046,0.7633977457467109,0.5840905574124351,0.12034045,0.19181168,-0.053145275
55,0.55,-0.2615704783758901,0.754765204360888,0.5504166986044171,0.12034045,0.19181168,-0.053145275
56,0.56,-0.2380490184393777,0.7656511671837293,0.5556652935118783,0.12034045,0.19181168,-0.053145275
57,0.57,-0.2323425,0.7682922,0.55693865,0.12034045,0.19181168,-0.053145275
58,0.58,-0.2341658120651111,0.766742369989706,0.5594912749377787,0.12034045,0.19181168,-0.053145275
59,0.59,-0.2362546220954354,0.7637218965686128,0.5630138489899431,0.12034045,0.19181168,-0.053145275
60,0.6,-0.2317786831126785,0.7617758562491967,0.5595109540883253,0.12034045,0.19181168,-0.053145275
61,0.61,-0.23161033,0.76170266,0.5593792,0.12034045,0.19181168,-0.053145275
62,0.62,-0.23161033,0.76170266,0.5593792,0.12034045,0.19181168,-0.053145275
63,0.63,-0.23161033,0.76170266,0.5593792,0.12034045,0.19181168,-0.053145275
64,0.64,-0.2318528663760366,0.7620260396263361,0.5683934956953439,0.12034045,0.19181168,-0.053145275
65,0.65,-0.2330205921245318,0.7635829966584406,0.6117940995965551,0.12034045,0.19181168,-0.053145275
66,0.66,-0.23307467,0.7636551,0.613804,0.12034045,0.19181168,-0.053145275
67,0.67,-0.23307467,0.7636551,0.613804,0.12034045,0.19181168,-0.053145275
68,0.68,-0.23307467,0.7636551,0.613804,0.1356013284976805,0.0761502910678317,-0.0236944581383767
69,0.69,-0.23307467,0.7636551,0.613804,0.15515977,-0.0720821,0.014049901
70,0.7,-0.23307467,0.7636551,0.613804,0.15515977,-0.0720821,0.014049901
71,0.71,-0.2320567757009948,0.765146844124713,0.611645360701454,0.15515977,-0.0720821,0.014049901
72,0.72,-0.220407268137514,0.7822194266911017,0.5869403546317513,0.15515977,-0.0720821,0.014049901
73,0.73,-0.21891935,0.7844,0.58378494,0.15515977,-0.0720821,0.014049901
74,0.74,-0.21891935,0.7844,0.58378494,0.15515977,-0.0720821,0.014049901
75,0.75,-0.21891935,0.7844,0.58378494,0.15515977,-0.0720821,0.014049901
76,0.76,-0.21891935,0.7844,0.58378494,0.15515977,-0.0720821,0.014049901
77,0.77,-0.21891935,0.7844,0.58378494,0.15515977,-0.0720821,0.014049901
78,0.78,-0.2223426724346104,0.7754341615716498,0.5622669571612308,0.15515977,-0.0720821,0.014049901
79,0.79,-0.2291701905154936,0.7698862804109261,0.5743620896026435,0.15515977,-0.0720821,0.014049901
80,0.8,-0.23551524,0.76853627,0.6025773,0.15515977,-0.0720821,0.014049901
81,0.81,-0.23551524,0.76853627,0.6025773,0.15515977,-0.0720821,0.014049901
82,0.82,-0.23551524,0.76853627,0.6025773,0.15515977,-0.0720821,0.014049901
83,0.83,-0.2521574598408531,0.7544201108437161,0.5605260143783106,0.15515977,-0.0720821,0.014049901
84,0.84,-0.26284966,0.74535084,0.53350914,0.15515977,-0.0720821,0.014049901
85,0.85,-0.26284966,0.74535084,0.53350914,0.15515977,-0.0720821,0.014049901
86,0.86,-0.26284966,0.74535084,0.53350914,0.15515977,-0.0720821,0.014049901
87,0.87,-0.26284966,0.74535084,0.53350914,0.0737838912972296,0.1069448421380483,-0.0174832528715412
88,0.88,-0.26284966,0.74535084,0.53350914,0.057421334,0.14294247,-0.023823744
89,0.89,-0.26284966,0.74535084,0.53350914,0.0025732615159851,0.0798154419854441,-0.000711663387015
90,0.9,-0.26284966,0.74535084,0.53350914,-0.03970624,0.031154128,0.017104227
91,0.91,-0.26284966,0.74535084,0.53350914,-0.03970624,0.031154128,0.017104227
92,0.92,-0.26284966,0.74535084,0.53350914,-0.03970624,0.031154128,0.017104227
93,0.93,-0.26284966,0.74535084,0.53350914,-0.03970624,0.031154128,0.017104227
94,0.94,-0.26284966,0.74535084,0.53350914,-0.03970624,0.031154128,0.017104227
95,0.95,-0.2433297832676294,0.7555626027135015,0.5441727751973547,0.035615639513148,0.0352255799859274,0.0250209407171254
96,0.96,-0.21013328,0.77292925,0.5623079,0.16371189,0.0421497,0.03848451
97,0.97,-0.21013328,0.77292925,0.5623079,0.16371189,0.0421497,0.03848451
98,0.98,-0.21013328,0.77292925,0.5623079,0.16371189,0.0421497,0.03848451
99,0.99,-0.21013328,0.77292925,0.5623079,0.16371189,0.0421497,0.03848451
100,1.0,-0.21013328,0.77292925,0.5623079,0.16371189,0.0421497,0.03848451
101,1.01,-0.21013328,0.77292925,0.5623079,0.16371189,0.0421497,0.03848451
102,1.02,-0.21013328,0.77292925,0.5623079,0.16371189,0.0421497,0.03848451
103,1.03,-0.21013328,0.77292925,0.5623079,0.16371189,0.0421497,0.03848451
104,1.04,-0.21013328,0.77292925,0.5623079,0.16371189,0.0421497,0.03848451
105,1.05,-0.21013328,0.77292925,0.5623079,0.16371189,0.0421497,0.03848451
106,1.06,-0.21013328,0.77292925,0.5623079,0.16371189,0.0421497,0.03848451
107,1.07,-0.21013328,0.77292925,0.5623079,0.16371189,0.0421497,0.03848451
108,1.08,-0.21013328,0.77292925,0.5623079,0.16371189,0.0421497,0.03848451
109,1.09,-0.21013328,0.77292925,0.5623079,0.03421533365281,0.0067963477442777,0.0126646454121507
110,1.1,-0.2168840368397312,0.7799555904455907,0.5838001019928134,-0.035430185,-0.012217305,-0.0012217305
111,1.11,-0.22209209,0.78537625,0.60038084,-0.035430185,-0.012217305,-0.0012217305
112,1.12,-0.22209209,0.78537625,0.60038084,-0.035430185,-0.012217305,-0.0012217305
113,1.13,-0.22209209,0.78537625,0.60038084,-0.035430185,-0.012217305,-0.0012217305
114,1.14,-0.22209209,0.78537625,0.60038084,-0.035430185,-0.012217305,-0.0012217305
115,1.15,-0.22209209,0.78537625,0.60038084,-0.035430185,-0.012217305,-0.0012217305
116,1.16,-0.22209209,0.78537625,0.60038084,-0.035430185,-0.012217305,-0.0012217305
117,1.17,-0.22209209,0.78537625,0.60038084,-0.035430185,-0.012217305,-0.0012217305
118,1.18,-0.22209209,0.78537625,0.60038084,-0.0228036380560593,-0.0182355652307258,0.0027904433413083
119,1.19,-0.22209209,0.78537625,0.60038084,0.029932396,-0.04337143,0.019547688
120,1.2,-0.22209209,0.78537625,0.60038084,0.029932396,-0.04337143,0.019547688
121,1.21,-0.22209209,0.78537625,0.60038084,0.029932396,-0.04337143,0.019547688
122,1.22,-0.22209209,0.78537625,0.60038084,0.029932396,-0.04337143,0.019547688
123,1.23,-0.22209209,0.78537625,0.60038084,0.029932396,-0.04337143,0.019547688
124,1.24,-0.22209209,0.78537625,0.60038084,0.029932396,-0.04337143,0.019547688
125,1.25,-0.221175613287659,0.7832377912245442,0.5995516354589265,0.029932396,-0.04337143,0.019547688
126,1.26,-0.2169669,0.7734174,0.5957437,0.029932396,-0.04337143,0.019547688
127,1.27,-0.2169669,0.7734174,0.5957437,0.029932396,-0.04337143,0.019547688
128,1.28,-0.2205945025631421,0.7706433525240762,0.5978776095764985,0.029932396,-0.04337143,0.019547688
129,1.29,-0.22111587,0.77024466,0.5981843,0.029932396,-0.04337143,0.019547688
130,1.3,-0.22111587,0.77024466,0.5981843,0.029932396,-0.04337143,0.019547688
131,1.31,-0.22111587,0.77024466,0.5981843,0.0247703557673532,-0.0286794692861825,0.0162386877591967
132,1.32,-0.22111587,0.77024466,0.5981843,0.0061086523,0.02443461,0.004276057
133,1.33,-0.22111587,0.77024466,0.5981843,0.0061086523,0.02443461,0.004276057
134,1.34,-0.22111587,0.77024466,0.5981843,0.0061086523,0.02443461,0.004276057
135,1.35,-0.22111587,0.77024466,0.5981843,0.0430395709313286,0.0235264725473426,-0.0020809046730546
136,1.36,-0.22111587,0.77024466,0.5981843,0.080634214,0.022602014,-0.008552114
137,1.37,-0.22111587,0.77024466,0.5981843,0.080634214,0.022602014,-0.008552114
138,1.38,-0.22111587,0.77024466,0.5981843,0.080634214,0.022602014,-0.008552114
139,1.39,-0.22111587,0.77024466,0.5981843,0.080634214,0.022602014,-0.008552114
140,1.4,-0.2301540485331994,0.7675776363944565,0.5820341232759422,0.080634214,0.022602014,-0.008552114
141,1.41,-0.2338131975885721,0.7672453556021767,0.5687946173491072,0.080634214,0.022602014,-0.008552114
142,1.42,-0.2306341,0.76926845,0.56474847,0.080634214,0.022602014,-0.008552114
143,1.43,-0.2306341,0.76926845,0.56474847,0.080634214,0.022602014,-0.008552114
144,1.44,-0.2306341,0.76926845,0.56474847,0.0452660408972879,-0.011228411461032,0.0078505163231407
145,1.45,-0.2306341,0.76926845,0.56474847,0.03848451,-0.017715093,0.010995574
146,1.46,-0.2306341,0.76926845,0.56474847,0.03848451,-0.017715093,0.010995574
147,1.47,-0.2306341,0.76926845,0.56474847,0.0287813033054055,-0.0153484570034954,0.0081556112691027
148,1.48,-0.229201751876158,0.7691623423298662,0.5655972618036506,0.013439035,-0.01160644,0.0036651916
149,1.49,-0.222113214417372,0.7687113254917327,0.56934311627951,0.0067921837811362,-0.0048732660747385,0.0098804286368392
150,1.5,-0.2109490810668588,0.7683126186963211,0.573330306761836,-0.0316299059970397,0.0340478116702046,0.0458075748236469
151,1.51,-0.2223797583960801,0.7752410175875466,0.578377650583991,-0.03359759,0.03604105,0.047647487
152,1.52,-0.22428861,0.77634615,0.5791479,-0.03359759,0.03604105,0.047647487
153,1.53,-0.22428861,0.77634615,0.5791479,-0.03359759,0.03604105,0.047647487
154,1.54,-0.22428861,0.77634615,0.5791479,-0.03359759,0.03604105,0.047647487
155,1.55,-0.22428861,0.77634615,0.5791479,-0.03359759,0.03604105,0.047647487
156,1.56,-0.22428861,0.77634615,0.5791479,-0.0248251008694648,0.0353764673434044,0.0408687459480452
157,1.57,-0.22428861,0.77634615,0.5791479,0.0067195175,0.032986723,0.016493361
158,1.58,-0.22428861,0.77634615,0.5791479,0.0067195175,0.032986723,0.016493361
159,1.59,-0.2262813781632543,0.7738551807902371,0.5786203944222373,0.0067195175,0.032986723,0.016493361
160,1.6,-0.24088451,0.7556012,0.5747548,0.0067195175,0.032986723,0.016493361
161,1.61,-0.24088451,0.7556012,0.5747548,0.0067195175,0.032986723,0.016493361
162,1.62,-0.24088451,0.7556012,0.5747548,0.0067195175,0.032986723,0.016493361
163,1.63,-0.24088451,0.7556012,0.5747548,0.0067195175,0.032986723,0.016493361
164,1.64,-0.24088451,0.7556012,0.5747548,0.0067195175,0.032986723,0.016493361
165,1.65,-0.24088451,0.7556012,0.5747548,0.0067195175,0.032986723,0.016493361
166,1.66,-0.24088451,0.7556012,0.5747548,0.0067195175,0.032986723,0.016493361
167,1.67,-0.24088451,0.7556012,0.5747548,0.0067195175,0.032986723,0.016493361
168,1.68,-0.2220648488550313,0.7693674903383952,0.5801567798362572,-0.0185775275385315,0.0120512378792686,0.016493361
169,1.69,-0.21452633,0.7748818,0.58232063,-0.028710667,0.0036651916,0.016493361
170,1.7,-0.21452633,0.7748818,0.58232063,-0.0228719556044578,-0.0019965891015522,0.0055236611007311
171,1.71,-0.213719859933824,0.775285030250368,0.5819598363890576,-0.008552114,-0.015882496,-0.021380283
172,1.72,-0.2059184174810533,0.77918570521079,0.5784696751156937,-0.008552114,-0.015882496,-0.021380283
173,1.73,-0.20525214,0.77951884,0.5781716,-0.0014327598499745,0.0050306051995427,-0.0013571011693666
174,1.74,-0.20525214,0.77951884,0.5781716,0.0012217305,0.01282817,0.0061086523
175,1.75,-0.20525214,0.77951884,0.5781716,0.0012217305,0.01282817,0.0061086523
176,1.76,-0.20525214,0.77951884,0.5781716,0.0138852286509749,-0.0078333280570173,-0.0092208457396435
177,1.77,-0.20525214,0.77951884,0.5781716,0.0582729801114637,-0.0802554526249946,-0.0629533879555053
178,1.78,-0.20525214,0.77951884,0.5781716,0.059253927,-0.081855945,-0.06414085
179,1.79,-0.20525214,0.77951884,0.5781716,0.059253927,-0.081855945,-0.06414085
180,1.8,-0.20525214,0.77951884,0.5781716,0.0225528423338434,-0.0340411494784188,-0.0313166402690427
181,1.81,-0.2116816500854526,0.7780095392917482,0.5766459542353027,-0.027488936,0.031154128,0.013439035
182,1.82,-0.4413392998797794,0.7240983627194765,0.5221509435607268,-0.027488936,0.031154128,0.013439035
183,1.83,-0.3209809738787091,0.7523583341169642,0.5429392022707631,-0.027488936,0.031154128,0.013439035
184,1.84,-0.21257387,0.77781045,0.5637722,-0.027488936,0.031154128,0.013439035
185,1.85,-0.21257387,0.77781045,0.5637722,-0.027488936,0.031154128,0.013439035
186,1.86,-0.2137498545467197,0.777297834888768,0.5650688048090452,-0.027488936,0.031154128,0.013439035
187,1.87,-0.2221543900417657,0.7736520848980096,0.5745221299797886,-0.027488936,0.031154128,0.013439035
188,1.88,-0.225868856897654,0.7730949091622621,0.589751432674202,-0.027488936,0.031154128,0.013439035
189,1.89,-0.22697324,0.77292925,0.5942794,-0.027488936,0.031154128,0.013439035
190,1.9,-0.22697324,0.77292925,0.5942794,-0.027488936,0.031154128,0.013439035
191,1.91,-0.22697324,0.77292925,0.5942794,-0.027488936,0.031154128,0.013439035
192,1.92,-0.22697324,0.77292925,0.5942794,-0.027488936,0.031154128,0.013439035
193,1.93,-0.22697324,0.77292925,0.5942794,-0.027488936,0.031154128,0.013439035
194,1.94,-0.2268080463128034,0.7716077478824083,0.5767690451399498,-0.027488936,0.031154128,0.013439035
195,1.95,-0.22672918,0.77097684,0.5684093,-0.027488936,0.031154128,0.013439035
196,1.96,-0.22672918,0.77097684,0.5684093,-0.027488936,0.031154128,0.013439035
197,1.97,-0.22672918,0.77097684,0.5684093,-0.027488936,0.031154128,0.013439035
198,1.98,-0.22672918,0.77097684,0.5684093,-0.027488936,0.031154128,0.013439035
199,1.99,-0.2266565645681636,0.7710494542416926,0.5705151582345487,-0.027488936,0.031154128,0.013439035
200,2.0,-0.2257083236305024,0.7719976796379873,0.5980142852990218,-0.027488936,0.031154128,0.013439035
201,2.01,-0.2255089,0.7721971,0.6037976,-0.027488936,0.031154128,0.013439035
202,2.02,-0.2255089,0.7721971,0.6037976,-0.027488936,0.031154128,0.013439035
203,2.03,-0.2255089,0.7721971,0.6037976,-0.027488936,0.031154128,0.013439035
204,2.04,-0.2255089,0.7721971,0.6037976,-0.027488936,0.031154128,0.013439035
205,2.05,-0.2227980929301997,0.7739092268279201,0.600516115165748,-0.027488936,0.031154128,0.013439035
206,2.06,-0.2208718,0.77512586,0.5981843,-0.027488936,0.031154128,0.013439035
207,2.07,-0.2208718,0.77512586,0.5981843,-0.027488936,0.031154128,0.013439035
208,2.08,-0.2208718,0.77512586,0.5981843,-0.027488936,0.031154128,0.013439035
209,2.09,-0.2208718,0.77512586,0.5981843,-0.027488936,0.031154128,0.013439035
210,2.1,-0.2208718,0.77512586,0.5981843,-0.027488936,0.031154128,0.013439035
211,2.11,-0.2208718,0.77512586,0.5981843,-0.0247246403660279,0.0283421720372884,0.0105794187865698
212,2.12,-0.2208718,0.77512586,0.5981843,0.0034891703594071,-0.00035808430476,-0.0186072823757706
213,2.13,-0.2158892840368725,0.7769053341532447,0.5709582878546899,-0.0695575669900287,-0.0146856228883378,-0.0147503650993065
214,2.14,-0.21403822,0.77756643,0.5608435,-0.0983493,-0.018325957,-0.01160644
215,2.15,-0.2159734187625543,0.7760519035372689,0.5637042453933993,-0.0983493,-0.018325957,-0.01160644
216,2.16,-0.21965154,0.77317333,0.5691415,-0.0983493,-0.018325957,-0.01160644
217,2.17,-0.21965154,0.77317333,0.5691415,-0.0983493,-0.018325957,-0.01160644
218,2.18,-0.21965154,0.77317333,0.5691415,-0.0983493,-0.018325957,-0.01160644
219,2.19,-0.21965154,0.77317333,0.5691415,-0.0983493,-0.018325957,-0.01160644
220,2.2,-0.21965154,0.77317333,0.5691415,-0.0983493,-0.018325957,-0.01160644
221,2.21,-0.21965154,0.77317333,0.5691415,-0.0983493,-0.018325957,-0.01160644
222,2.22,-0.21965154,0.77317333,0.5691415,-0.0983493,-0.018325957,-0.01160644
223,2.23,-0.21965154,0.77317333,0.5691415,-0.0942015344933152,-0.0173721927183282,-0.0115398982949524
224,2.24,-0.21965154,0.77317333,0.5691415,-0.0003625907646154,0.0042057466839833,-0.010034460413879
225,2.25,-0.21965154,0.77317333,0.5691415,0.015882496,0.007941248,-0.009773844
226,2.26,-0.2259811594963577,0.7749621835558792,0.569554278964412,0.015882496,0.007941248,-0.009773844
227,2.27,-0.2326987784873384,0.7708842108019962,0.5704529474918821,0.015882496,0.007941248,-0.009773844
228,2.28,-0.2362474,0.7602383,0.5715821,0.0154740971588616,0.00779653974912,-0.0096001940947326
229,2.29,-0.2362474,0.7602383,0.5715821,-0.0602798782961254,-0.0190454200731425,0.0226101584731537
230,2.3,-0.2362474,0.7602383,0.5715821,-0.06169739,-0.019547688,0.02321288
231,2.31,-0.2362474,0.7602383,0.5715821,-0.06169739,-0.019547688,0.02321288
232,2.32,-0.2362474,0.7602383,0.5715821,-0.06169739,-0.019547688,0.02321288
233,2.33,-0.2362474,0.7602383,0.5715821,-0.06169739,-0.019547688,0.02321288
234,2.34,-0.2340146879210103,0.7645442820638346,0.5803534408766933,-0.06169739,-0.019547688,0.02321288
235,2.35,-0.2328306,0.7668279,0.5850052,-0.06169739,-0.019547688,0.02321288
236,2.36,-0.2328306,0.7668279,0.5850052,-0.06169739,-0.019547688,0.02321288
237,2.37,-0.2328306,0.7668279,0.5850052,-0.06169739,-0.019547688,0.02321288
238,2.38,-0.2328306,0.7668279,0.5850052,-0.06169739,-0.019547688,0.02321288
239,2.39,-0.2328306,0.7668279,0.5850052,-0.06169739,-0.019547688,0.02321288
240,2.4,-0.2328306,0.7668279,0.5850052,-0.06169739,-0.019547688,0.02321288
241,2.41,-0.2328306,0.7668279,0.5850052,-0.06169739,-0.019547688,0.02321288
242,2.42,-0.2328306,0.7668279,0.5850052,-0.0563313829811413,-0.0131084794719583,0.0221396784908169
243,2.43,-0.2328306,0.7668279,0.5850052,-0.0321272328187224,0.0159365011984171,0.0172988479828604
244,2.44,-0.2328306,0.7668279,0.5850052,-0.031154128,0.017104227,0.017104227
245,2.45,-0.2328306,0.7668279,0.5850052,-0.004799702943312,0.0136365392087069,0.008435008259736
246,2.46,-0.2328306,0.7668279,0.5850052,-0.0082946228711357,-0.0098619156343119,-0.000334416121576
247,2.47,-0.2328306,0.7668279,0.5850052,-0.037873644,-0.03604105,-0.0030543262
248,2.48,-0.2328306,0.7668279,0.5850052,-0.037873644,-0.03604105,-0.0030543262
249,2.49,-0.2328306,0.7668279,0.5850052,-0.037873644,-0.03604105,-0.0030543262
250,2.5,-0.2328306,0.7668279,0.5850052,-0.037873644,-0.03604105,-0.0030543262
251,2.51,-0.2328306,0.7668279,0.5850052,-0.037873644,-0.03604105,-0.0030543262
252,2.52,-0.2359842540628636,0.7611963798322825,0.5866946698950247,-0.037873644,-0.03604105,-0.0030543262
253,2.53,-0.23966423,0.754625,0.5886661,-0.0433210738520253,-0.0229031323953764,-1.0174472263987853e-05
254,2.54,-0.23966423,0.754625,0.5886661,-0.058643065,0.014049901,0.008552114
255,2.55,-0.23966423,0.754625,0.5886661,-0.058643065,0.014049901,0.008552114
256,2.56,-0.23966423,0.754625,0.5886661,-0.058643065,0.014049901,0.008552114
257,2.57,-0.23966423,0.754625,0.5886661,-0.058643065,0.014049901,0.008552114
258,2.58,-0.23966423,0.754625,0.5886661,-0.058643065,0.014049901,0.008552114
259,2.59,-0.23966423,0.754625,0.5886661,-0.058643065,0.014049901,0.008552114
260,2.6,-0.23966423,0.754625,0.5886661,-0.058643065,0.014049901,0.008552114
261,2.61,-0.23966423,0.754625,0.5886661,-0.058643065,0.014049901,0.008552114
262,2.62,-0.2324892163049308,0.7613606931028423,0.5975982460699201,-0.058643065,0.014049901,0.008552114
263,2.63,-0.2277054,0.7658516,0.6035536,-0.058643065,0.014049901,0.008552114
264,2.64,-0.2277054,0.7658516,0.6035536,-0.058643065,0.014049901,0.008552114
265,2.65,-0.2277054,0.7658516,0.6035536,-0.058643065,0.014049901,0.008552114
266,2.66,-0.2277054,0.7658516,0.6035536,-0.058643065,0.014049901,0.008552114
267,2.67,-0.2144413689303732,0.7689725823369417,0.5852180205869681,-0.058643065,0.014049901,0.008552114
268,2.68,-0.2111095,0.76975656,0.5806122,-0.058643065,0.014049901,0.008552114
269,2.69,-0.2111095,0.76975656,0.5806122,-0.0495130686377531,0.0286008325417781,0.0128317996926332
270,2.7,-0.2111095,0.76975656,0.5806122,-0.039095376,0.04520403,0.017715093
271,2.71,-0.2111095,0.76975656,0.5806122,-0.039095376,0.04520403,0.017715093
272,2.72,-0.2111095,0.76975656,0.5806122,-0.039095376,0.04520403,0.017715093
273,2.73,-0.2111095,0.76975656,0.5806122,-0.039095376,0.04520403,0.017715093
274,2.74,-0.2152477696643903,0.7690041263138153,0.5732761526814458,-0.039095376,0.04520403,0.017715093
275,2.75,-0.21647878,0.7687803,0.5710939,-0.039095376,0.04520403,0.017715093
276,2.76,-0.21647878,0.7687803,0.5710939,-0.039095376,0.04520403,0.017715093
277,2.77,-0.21647878,0.7687803,0.5710939,-0.039095376,0.04520403,0.017715093
278,2.78,-0.21647878,0.7687803,0.5710939,-0.039095376,0.04520403,0.017715093
279,2.79,-0.21647878,0.7687803,0.5710939,-0.039095376,0.04520403,0.017715093
280,2.8,-0.21647878,0.7687803,0.5710939,-0.039095376,0.04520403,0.017715093
281,2.81,-0.21647878,0.7687803,0.5710939,-0.039095376,0.04520403,0.017715093
282,2.82,-0.21647878,0.7687803,0.5710939,-0.039095376,0.04520403,0.017715093
283,2.83,-0.21647878,0.7687803,0.5710939,-0.039095376,0.04520403,0.017715093
284,2.84,-0.21647878,0.7687803,0.5710939,-0.039095376,0.04520403,0.017715093
285,2.85,-0.21647878,0.7687803,0.5710939,-0.039095376,0.04520403,0.017715093
286,2.86,-0.21647878,0.7687803,0.5710939,-0.039095376,0.04520403,0.017715093
287,2.87,-0.2570949451762765,0.7269543062211922,0.6329687885870708,-0.039095376,0.04520403,0.017715093
288,2.88,-0.2512457587597264,0.7363122195193244,0.6213080641263921,-0.039095376,0.04520403,0.017715093
289,2.89,-0.22843759,0.763167,0.58378494,-0.039095376,0.04520403,0.017715093
290,2.9,-0.22843759,0.763167,0.58378494,-0.039095376,0.04520403,0.017715093
291,2.91,-0.22843759,0.763167,0.58378494,-0.039095376,0.04520403,0.017715093
292,2.92,-0.22843759,0.763167,0.58378494,-0.045525674715325,0.0167753408348837,0.0011316909916324
293,2.93,-0.22843759,0.763167,0.58378494,-0.050701816,-0.0061086523,-0.012217305
294,2.94,-0.22843759,0.763167,0.58378494,-0.050701816,-0.0061086523,-0.012217305
295,2.95,-0.22843759,0.763167,0.58378494,-0.050701816,-0.0061086523,-0.012217305
296,2.96,-0.22843759,0.763167,0.58378494,-0.050701816,-0.0061086523,-0.012217305
297,2.97,-0.22843759,0.763167,0.58378494,-0.050701816,-0.0061086523,-0.012217305
298,2.98,-0.22843759,0.763167,0.58378494,-0.050701816,-0.0061086523,-0.012217305
299,2.99,-0.22843759,0.763167,0.58378494,-0.050701816,-0.0061086523,-0.012217305
300,3.0,-0.22843759,0.763167,0.58378494,-0.050701816,-0.0061086523,-0.012217305
301,3.01,-0.22843759,0.763167,0.58378494,-0.050701816,-0.0061086523,-0.012217305
302,3.02,-0.22843759,0.763167,0.58378494,-0.0477681069057854,-0.003174942965658,-0.0112394014349787
303,3.03,-0.2263644517836865,0.7660374648899585,0.5944695120912638,-0.047036625,-0.002443461,-0.010995574
304,3.04,-0.22526483,0.76756,0.60013676,-0.047036625,-0.002443461,-0.010995574
305,3.05,-0.22526483,0.76756,0.60013676,-0.047036625,-0.002443461,-0.010995574
306,3.06,-0.22526483,0.76756,0.60013676,-0.044193912554597,-0.0014669567367931,-0.0111474746734278
307,3.07,-0.22526483,0.76756,0.60013676,0.0204571099836926,0.0207414095126369,-0.0146021096567331
308,3.08,-0.22526483,0.76756,0.60013676,0.032986723,0.025045475,-0.015271631
309,3.09,-0.2323170549645399,0.7646750227589221,0.5846432610621949,0.032986723,0.025045475,-0.015271631
310,3.1,-0.24137263,0.7609705,0.56474847,0.032986723,0.025045475,-0.015271631
311,3.11,-0.24137263,0.7609705,0.56474847,0.032986723,0.025045475,-0.015271631
312,3.12,-0.24137263,0.7609705,0.56474847,0.032986723,0.025045475,-0.015271631
313,3.13,-0.24137263,0.7609705,0.56474847,0.032986723,0.025045475,-0.015271631
314,3.14,-0.24137263,0.7609705,0.56474847,0.032986723,0.025045475,-0.015271631
315,3.15,-0.24137263,0.7609705,0.56474847,0.032986723,0.025045475,-0.015271631
316,3.16,-0.24137263,0.7609705,0.56474847,0.032986723,0.025045475,-0.015271631
317,3.17,-0.24137263,0.7609705,0.56474847,0.032986723,0.025045475,-0.015271631
318,3.18,-0.24137263,0.7609705,0.56474847,0.032986723,0.025045475,-0.015271631
319,3.19,-0.24137263,0.7609705,0.56474847,0.032986723,0.025045475,-0.015271631
320,3.2,-0.24137263,0.7609705,0.56474847,0.032986723,0.025045475,-0.015271631
321,3.21,-0.24137263,0.7609705,0.56474847,0.032986723,0.025045475,-0.015271631
322,3.22,-0.24137263,0.7609705,0.56474847,0.032986723,0.025045475,-0.015271631
323,3.23,-0.24137263,0.7609705,0.56474847,0.032986723,0.025045475,-0.015271631
324,3.24,-0.24137263,0.7609705,0.56474847,0.032986723,0.025045475,-0.015271631
325,3.25,-0.24137263,0.7609705,0.56474847,0.0209630983927763,0.0254748899888031,0.0109226938614252
326,3.26,-0.2355212091670057,0.7618944039035805,0.5572032589936613,0.015882496,0.02565634,0.021991149
327,3.27,-0.23209843,0.76243484,0.5527897,0.015882496,0.02565634,0.021991149
328,3.28,-0.23209843,0.76243484,0.5527897,-0.0180861782446861,0.0026362471735766,0.018060888980133
329,3.29,-0.23209843,0.76243484,0.5527897,-0.0580322,-0.02443461,0.013439035
330,3.3,-0.23209843,0.76243484,0.5527897,-0.0580322,-0.02443461,0.013439035
331,3.31,-0.23209843,0.76243484,0.5527897,-0.0580322,-0.02443461,0.013439035
332,3.32,-0.23209843,0.76243484,0.5527897,-0.0580322,-0.02443461,0.013439035
333,3.33,-0.23209843,0.76243484,0.5527897,-0.0580322,-0.02443461,0.013439035
334,3.34,-0.23209843,0.76243484,0.5527897,-0.0580322,-0.02443461,0.013439035
335,3.35,-0.23209843,0.76243484,0.5527897,-0.0580322,-0.02443461,0.013439035
336,3.36,-0.23209843,0.76243484,0.5527897,-0.0580322,-0.02443461,0.013439035
337,3.37,-0.23209843,0.76243484,0.5527897,-0.0580322,-0.02443461,0.013439035
338,3.38,-0.23209843,0.76243484,0.5527897,-0.0580322,-0.02443461,0.013439035
339,3.39,-0.2343919592954948,0.7605235695027107,0.5839434161539357,-0.0580322,-0.02443461,0.013439035
340,3.4,-0.23502712,0.75999427,0.592571,-0.0135859425386119,0.0056859936237436,0.0185815774340937
341,3.41,-0.2268601576635885,0.7648502929819975,0.5884875233538668,0.015882496,0.02565634,0.021991149
342,3.42,-0.2169669,0.77073276,0.5835409,0.015882496,0.02565634,0.021991149
343,3.43,-0.2169669,0.77073276,0.5835409,0.015882496,0.02565634,0.021991149
344,3.44,-0.2169669,0.77073276,0.5835409,0.015882496,0.02565634,0.021991149
345,3.45,-0.2169669,0.77073276,0.5835409,-0.0010731072174232,0.0096172559058231,0.021991149
346,3.46,-0.2169669,0.77073276,0.5835409,-0.0067195175,0.004276057,0.021991149
347,3.47,-0.2165924872235521,0.7689542935588746,0.5883146993353643,-0.0067195175,0.004276057,0.021991149
348,3.48,-0.2167701229365657,0.7649494569616361,0.5959878,-0.0067195175,0.004276057,0.021991149
349,3.49,-0.219846917370477,0.7602665699064236,0.5954227791376354,-0.0067195175,0.004276057,0.021991149
350,3.5,-0.2115284826168383,0.7680046426638949,0.5793663191854862,-0.0067195175,0.004276057,0.021991149
351,3.51,-0.20964517,0.76975656,0.5757311,-0.0067195175,0.004276057,0.021991149
352,3.52,-0.20964517,0.76975656,0.5757311,-0.0067195175,0.004276057,0.021991149
353,3.53,-0.20964517,0.76975656,0.5757311,-0.0067195175,0.004276057,0.021991149
354,3.54,-0.20964517,0.76975656,0.5757311,-0.0067195175,0.004276057,0.021991149
355,3.55,-0.20964517,0.76975656,0.5757311,-0.0067195175,0.004276057,0.021991149
356,3.56,-0.20964517,0.76975656,0.5757311,-0.0067195175,0.004276057,0.021991149
357,3.57,-0.20964517,0.76975656,0.5757311,-0.0067195175,0.004276057,0.021991149
358,3.58,-0.20964517,0.76975656,0.5757311,-0.0067195175,0.004276057,0.021991149
359,3.59,-0.20964517,0.76975656,0.5757311,-0.0067195175,0.004276057,0.021991149
360,3.6,-0.2108753200339345,0.7701665960102185,0.5822918567775958,-0.0087721851952949,0.0099208927945324,0.0086488103456893
361,3.61,-0.21257387,0.77073276,0.59135073,-0.01160644,0.017715093,-0.009773844
362,3.62,-0.21257387,0.77073276,0.59135073,-0.01160644,0.017715093,-0.009773844
363,3.63,-0.21257387,0.77073276,0.59135073,-0.01160644,0.017715093,-0.009773844
364,3.64,-0.21257387,0.77073276,0.59135073,-0.01160644,0.017715093,-0.009773844
365,3.65,-0.21257387,0.77073276,0.59135073,-0.01160644,0.017715093,-0.009773844
366,3.66,-0.21257387,0.77073276,0.59135073,-0.0072042048394852,0.012854291730105,-0.0069307340017332
367,3.67,-0.21257387,0.77073276,0.59135073,0.017715093,-0.014660766,0.009162978
368,3.68,-0.21257387,0.77073276,0.59135073,0.017715093,-0.014660766,0.009162978
369,3.69,-0.21257387,0.77073276,0.59135073,0.017715093,-0.014660766,0.009162978
370,3.7,-0.21257387,0.77073276,0.59135073,0.017715093,-0.014660766,0.009162978
371,3.71,-0.21257387,0.77073276,0.59135073,0.017715093,-0.014660766,0.009162978
372,3.72,-0.21257387,0.77073276,0.59135073,0.017715093,-0.014660766,0.009162978
373,3.73,-0.21257387,0.77073276,0.59135073,0.017715093,-0.014660766,0.009162978
374,3.74,-0.21257387,0.77073276,0.59135073,0.017715093,-0.014660766,0.009162978
375,3.75,-0.21257387,0.77073276,0.59135073,0.017715093,-0.014660766,0.009162978
376,3.76,-0.2174014354863808,0.7684051777281056,0.5881610935639658,0.017715093,-0.014660766,0.009162978
377,3.77,-0.2266580985118834,0.7634481595999051,0.5798532045409646,0.0158014520259714,-0.014486798574,0.0085540923649856
378,3.78,-0.2289014310870354,0.7597093102739012,0.5665801170870284,0.0055073521938143,-0.0135509709683562,0.0052786976601947
379,3.79,-0.22916976,0.7592621,0.5649925,0.004276057,-0.013439035,0.004886922
380,3.8,-0.2180640767705417,0.7673600127841493,0.5680002941455229,0.004276057,-0.013439035,0.004886922
381,3.81,-0.2112797234174346,0.7731318772935549,0.5805704296885679,0.004276057,-0.013439035,0.004886922
382,3.82,-0.2255089,0.7648754,0.6042857,0.004276057,-0.013439035,0.004886922
383,3.83,-0.2255089,0.7648754,0.6042857,0.004276057,-0.013439035,0.004886922
384,3.84,-0.2255089,0.7648754,0.6042857,0.004276057,-0.013439035,0.004886922
385,3.85,-0.2255089,0.7648754,0.6042857,0.004276057,-0.013439035,0.004886922
386,3.86,-0.2255089,0.7648754,0.6042857,0.004276057,-0.013439035,0.004886922
387,3.87,-0.2267991854641506,0.7635205994696188,0.6015115997334675,0.004276057,-0.013439035,0.004886922
388,3.88,-0.23039004,0.7597502,0.5937913,0.004276057,-0.013439035,0.004886922
389,3.89,-0.23039004,0.7597502,0.5937913,0.004276057,-0.013439035,0.004886922
390,3.9,-0.23039004,0.7597502,0.5937913,0.004276057,-0.013439035,0.004886922
391,3.91,-0.23039004,0.7597502,0.5937913,0.004276057,-0.013439035,0.004886922
392,3.92,-0.23039004,0.7597502,0.5937913,0.0075128672851015,-0.0004318537878872,-0.0005677024853109
393,3.93,-0.23039004,0.7597502,0.5937913,0.0578755450734312,0.2019514861734452,-0.0854381370222028
394,3.94,-0.23039004,0.7597502,0.5937913,0.070249505,0.25167647,-0.10629055
395,3.95,-0.23039004,0.7597502,0.5937913,0.070249505,0.25167647,-0.10629055
396,3.96,-0.23039004,0.7597502,0.5937913,0.0393288095187706,0.1822889606169369,-0.0737133897288931
397,3.97,-0.23039004,0.7597502,0.5937913,-0.0311103352172191,0.0140402549610868,0.0023388046788473
398,3.98,-0.23039004,0.7597502,0.5937913,-0.0232294629520132,-0.0110121579520132,0.0026403491264631
399,3.99,-0.23039004,0.7597502,0.5937913,-0.002443461,0.009773844,-0.008552114
400,4.0,-0.23039004,0.7597502,0.5937913,-0.002443461,0.009773844,-0.008552114
401,4.01,-0.23039004,0.7597502,0.5937913,-0.002443461,0.009773844,-0.008552114
402,4.02,-0.23039004,0.7597502,0.5937913,-0.002443461,0.009773844,-0.008552114
403,4.03,-0.2303327081411907,0.7602088501722966,0.5932753132707168,-0.002443461,0.009773844,-0.008552114
404,4.04,-0.23014598,0.76170266,0.59159476,-0.002443461,0.009773844,-0.008552114
405,4.05,-0.23014598,0.76170266,0.59159476,-0.002443461,0.009773844,-0.008552114
406,4.06,-0.23014598,0.76170266,0.59159476,-0.002443461,0.009773844,-0.008552114
407,4.07,-0.23014598,0.76170266,0.59159476,-0.002443461,0.009773844,-0.008552114
408,4.08,-0.2262022760799556,0.7622170550943674,0.6029972208908666,-0.002443461,0.009773844,-0.008552114
409,4.09,-0.21891935,0.763167,0.6240544,-0.0116167443206564,0.0102249891580222,-0.0034391361168306
410,4.1,-0.21891935,0.763167,0.6240544,-0.03970624,0.01160644,0.012217305
411,4.11,-0.21891935,0.763167,0.6240544,-0.03970624,0.01160644,0.012217305
412,4.12,-0.21891935,0.763167,0.6240544,-0.011543123680442,-0.0272854821967662,0.0638496840044346
413,4.13,-0.21891935,0.763167,0.6240544,0.0377139266361322,-0.0012176918136281,0.0803594669551947
414,4.14,-0.21891935,0.763167,0.6240544,0.1020145,0.14172074,0.016493361
415,4.15,-0.21891935,0.763167,0.6240544,0.1020145,0.14172074,0.016493361
416,4.16,-0.21891935,0.763167,0.6240544,0.1020145,0.14172074,0.016493361
417,4.17,-0.21891935,0.763167,0.6240544,0.1020145,0.14172074,0.016493361
418,4.18,-0.21891935,0.763167,0.6240544,0.1020145,0.14172074,0.016493361
419,4.19,-0.2201028574336223,0.7643504912693525,0.5905218240829494,0.1020145,0.14172074,0.016493361
420,4.2,-0.2203837,0.76463133,0.58256465,0.1020145,0.14172074,0.016493361
421,4.21,-0.2203837,0.76463133,0.58256465,0.1020145,0.14172074,0.016493361
422,4.22,-0.2203837,0.76463133,0.58256465,0.0732552979241042,0.088589335493503,0.0169808056710183
423,4.23,-0.2203837,0.76463133,0.58256465,0.029932396,0.008552114,0.017715093
424,4.24,-0.2203837,0.76463133,0.58256465,0.029932396,0.008552114,0.017715093
425,4.25,-0.2203837,0.76463133,0.58256465,0.029932396,0.008552114,0.017715093
426,4.26,-0.2203837,0.76463133,0.58256465,0.029932396,0.008552114,0.017715093
427,4.27,-0.2054634788992798,0.77886084320703,0.5739993139864571,0.029932396,0.008552114,0.017715093
428,4.28,-0.19402552,0.7897693,0.56743306,0.029932396,0.008552114,0.017715093
429,4.29,-0.19402552,0.7897693,0.56743306,0.029932396,0.008552114,0.017715093
430,4.3,-0.19402552,0.7897693,0.56743306,0.029932396,0.008552114,0.017715093
431,4.31,-0.19402552,0.7897693,0.56743306,0.029932396,0.008552114,0.017715093
432,4.32,-0.19402552,0.7897693,0.56743306,0.029932396,0.008552114,0.017715093
433,4.33,-0.19402552,0.7897693,0.56743306,-0.0030713932450854,-0.0061162371090993,0.0057970571985851
434,4.34,-0.19402552,0.7897693,0.56743306,-0.014049901,-0.010995574,0.0018325958
435,4.35,-0.19402552,0.7897693,0.56743306,-0.014049901,-0.010995574,0.0018325958
436,4.36,-0.19402552,0.7897693,0.56743306,-0.014049901,-0.010995574,0.0018325958
437,4.37,-0.19402552,0.7897693,0.56743306,-0.014049901,-0.010995574,0.0018325958
438,4.38,-0.19402552,0.7897693,0.56743306,-0.014049901,-0.010995574,0.0018325958
439,4.39,-0.19402552,0.7897693,0.56743306,-0.014049901,-0.010995574,0.0018325958
440,4.4,-0.19402552,0.7897693,0.56743306,-0.014049901,-0.010995574,0.0018325958
441,4.41,-0.1971064928300178,0.7877648056238897,0.5693262002527667,-0.014049901,-0.010995574,0.0018325958
442,4.42,-0.2142323253171674,0.7766226642287316,0.5798493708979863,-0.014049901,-0.010995574,0.0018325958
443,4.43,-0.21428227,0.77659017,0.57988006,0.0068995230815645,-0.0060076163908188,-0.0161240528995159
444,4.44,-0.21428227,0.77659017,0.57988006,0.01160644,-0.004886922,-0.020158553
445,4.45,-0.21428227,0.77659017,0.57988006,0.01160644,-0.004886922,-0.020158553
446,4.46,-0.215243797405859,0.773577372221477,0.5854569063467492,0.01160644,-0.004886922,-0.020158553
447,4.47,-0.21794313,0.76511943,0.601113,0.0054039354601579,-0.0055890923831,-0.015009304322175
448,4.48,-0.21794313,0.76511943,0.601113,-0.02076942,-0.008552114,0.0067195175
449,4.49,-0.21794313,0.76511943,0.601113,-0.02076942,-0.008552114,0.0067195175
450,4.5,-0.2190700973960375,0.7660210390107512,0.5950274370139969,-0.02076942,-0.008552114,0.0067195175
451,4.51,-0.21916342,0.7660957,0.5945235,-0.02076942,-0.008552114,0.0067195175
452,4.52,-0.21916342,0.7660957,0.5945235,-0.02076942,-0.008552114,0.0067195175
453,4.53,-0.21916342,0.7660957,0.5945235,-0.02076942,-0.008552114,0.0067195175
454,4.54,-0.21916342,0.7660957,0.5945235,-0.02076942,-0.008552114,0.0067195175
455,4.55,-0.21916342,0.7660957,0.5945235,-0.02076942,-0.008552114,0.0067195175
456,4.56,-0.21916342,0.7660957,0.5945235,-0.02076942,-0.008552114,0.0067195175
457,4.57,-0.21916342,0.7660957,0.5945235,-0.02076942,-0.008552114,0.0067195175
458,4.58,-0.21916342,0.7660957,0.5945235,-0.02076942,-0.008552114,0.0067195175
459,4.59,-0.2214748573553931,0.7645547369062023,0.5950569056316329,-0.02076942,-0.008552114,0.0067195175
460,4.6,-0.22868164,0.7597502,0.59672,-0.02076942,-0.008552114,0.0067195175
461,4.61,-0.22868164,0.7597502,0.59672,-0.02076942,-0.008552114,0.0067195175
462,4.62,-0.22868164,0.7597502,0.59672,-0.02076942,-0.008552114,0.0067195175
463,4.63,-0.22868164,0.7597502,0.59672,-0.02076942,-0.008552114,0.0067195175
464,4.64,-0.22868164,0.7597502,0.59672,-0.02076942,-0.008552114,0.0067195175
465,4.65,-0.22868164,0.7597502,0.59672,-0.02076942,-0.008552114,0.0067195175
466,4.66,-0.22868164,0.7597502,0.59672,-0.0166548197285855,-0.0061629913360552,0.0073831627085713
467,4.67,-0.22868164,0.7597502,0.59672,-0.0043940029012202,0.0009561924068321,0.0093607138202022
468,4.68,-0.22868164,0.7597502,0.59672,-0.0018325958,0.002443461,0.009773844
469,4.69,-0.22868164,0.7597502,0.59672,-0.0018325958,0.002443461,0.009773844
470,4.7,-0.22659766649805,0.7600792616935933,0.5878356938050135,-0.0018325958,0.002443461,0.009773844
471,4.71,-0.218771994437842,0.7676158593432975,0.5750904680945584,-0.0018325958,0.002443461,0.009773844
472,4.72,-0.21159762,0.77732235,0.5725583,-0.0018325958,0.002443461,0.009773844
473,4.73,-0.21159762,0.77732235,0.5725583,-0.0018325958,0.002443461,0.009773844
474,4.74,-0.21159762,0.77732235,0.5725583,-0.0018325958,0.002443461,0.009773844
475,4.75,-0.21159762,0.77732235,0.5725583,-0.0018325958,0.002443461,0.009773844
476,4.76,-0.21159762,0.77732235,0.5725583,-0.0018325958,0.002443461,0.009773844
477,4.77,-0.21159762,0.77732235,0.5725583,-0.0018325958,0.002443461,0.009773844
478,4.78,-0.21159762,0.77732235,0.5725583,-0.0018325958,0.002443461,0.009773844
479,4.79,-0.21159762,0.77732235,0.5725583,-0.0018325958,0.002443461,0.009773844
480,4.8,-0.21159762,0.77732235,0.5725583,-0.0018325958,0.002443461,0.009773844
481,4.81,-0.21159762,0.77732235,0.5725583,-0.0018325958,0.002443461,0.009773844
482,4.82,-0.21159762,0.77732235,0.5725583,-0.0018325958,0.002443461,0.009773844
483,4.83,-0.215172692396555,0.7730322531631689,0.5782069113396734,-0.0018325958,0.002443461,0.009773844
484,4.84,-0.2238005,0.76267886,0.59183884,-0.0018325958,0.002443461,0.009773844
485,4.85,-0.2238005,0.76267886,0.59183884,-0.0018325958,0.002443461,0.009773844
486,4.86,-0.2238005,0.76267886,0.59183884,-0.0018325958,0.002443461,0.009773844
487,4.87,-0.2165661893218935,0.7689266887721284,0.5920032581421909,-0.0018325958,0.002443461,0.009773844
488,4.88,-0.21306199,0.77195305,0.5920829,-0.0018325958,0.002443461,0.009773844
489,4.89,-0.21306199,0.77195305,0.5920829,-0.0018325958,0.002443461,0.009773844
490,4.9,-0.2147368886931371,0.7718648981976169,0.5875430325127576,-0.0018325958,0.002443461,0.009773844
491,4.91,-0.2221055996608915,0.7714770746500141,0.5675699013123641,-0.0018325958,0.002443461,0.009773844
492,4.92,-0.22233616,0.77146494,0.56694496,-0.0018325958,0.002443461,0.009773844
493,4.93,-0.22233616,0.77146494,0.56694496,-0.0018325958,0.002443461,0.009773844
494,4.94,-0.22233616,0.77146494,0.56694496,0.0046672580291037,0.0019619903474519,0.0078479613898076
495,4.95,-0.22233616,0.77146494,0.56694496,0.014660766,0.0012217305,0.004886922
496,4.96,-0.2206485624654006,0.7724933216383995,0.5676041780570605,0.014660766,0.0012217305,0.004886922
497,4.97,-0.2082192455930034,0.7800674505330928,0.5724593819497086,0.014660766,0.0012217305,0.004886922
498,4.98,-0.20671648,0.7809832,0.5730464,0.014660766,0.0012217305,0.004886922
499,4.99,-0.20671648,0.7809832,0.5730464,0.014660766,0.0012217305,0.004886922
500,5.0,-0.20671648,0.7809832,0.5730464,0.014660766,0.0012217305,0.004886922
501,5.01,-0.20671648,0.7809832,0.5730464,0.014660766,0.0012217305,0.004886922
502,5.02,-0.20671648,0.7809832,0.5730464,0.014660766,0.0012217305,0.004886922
503,5.03,-0.2144087097678563,0.7729063650473761,0.5788155828319342,0.014660766,0.0012217305,0.004886922
504,5.04,-0.22135992,0.7656076,0.584029,0.0009343431791058,0.0016574899631237,0.0088087569897771
505,5.05,-0.22135992,0.7656076,0.584029,-0.023823744,0.002443461,0.015882496
506,5.06,-0.22135992,0.7656076,0.584029,-0.023823744,0.002443461,0.015882496
507,5.07,-0.22135992,0.7656076,0.584029,-0.0190459618072451,0.0013286451506786,0.0146880504518112
508,5.08,-0.22135992,0.7656076,0.584029,0.01282817,-0.0061086523,0.0067195175
509,5.09,-0.22135992,0.7656076,0.584029,0.01282817,-0.0061086523,0.0067195175
510,5.1,-0.22135992,0.7656076,0.584029,0.0174303772804183,0.0095388535835099,-0.0043257805003782
511,5.11,-0.22135992,0.7656076,0.584029,0.018936822,0.014660766,-0.007941248
512,5.12,-0.2221622454702268,0.7657680598341451,0.5896452585669618,0.018936822,0.014660766,-0.007941248
513,5.13,-0.2238005,0.7660957,0.601113,0.018936822,0.014660766,-0.007941248
514,5.14,-0.2238005,0.7660957,0.601113,0.018936822,0.014660766,-0.007941248
515,5.15,-0.2238005,0.7660957,0.601113,0.018936822,0.014660766,-0.007941248
516,5.16,-0.2238005,0.7660957,0.601113,0.0374972153966994,0.0030065664580428,0.0002598552505255
517,5.17,-0.2238005,0.7660957,0.601113,0.04520403,-0.0018325958,0.0036651916
518,5.18,-0.2238005,0.7660957,0.601113,0.0233966113849553,0.0060104231788825,-0.0005432575470782
519,5.19,-0.2238005,0.7660957,0.601113,-0.02443461,0.02321288,-0.009773844
520,5.2,-0.2238005,0.7660957,0.601113,-0.02443461,0.02321288,-0.009773844
521,5.21,-0.2238005,0.7660957,0.601113,-0.02443461,0.02321288,-0.009773844
522,5.22,-0.2187856071165607,0.7671281783020928,0.5882807886679713,-0.02443461,0.02321288,-0.009773844
523,5.23,-0.2184718761550917,0.7658245504892857,0.5780984589515732,-0.02443461,0.02321288,-0.009773844
524,5.24,-0.22282428,0.76292294,0.575487,-0.02443461,0.02321288,-0.009773844
525,5.25,-0.22282428,0.76292294,0.575487,-0.02443461,0.02321288,-0.009773844
526,5.26,-0.22282428,0.76292294,0.575487,-0.02443461,0.02321288,-0.009773844
527,5.27,-0.22282428,0.76292294,0.575487,0.0003806924463359,0.0125082392448642,-0.0015020764515102
528,5.28,-0.2135391753122134,0.7719308915370996,0.5725767471206106,-0.006114630410008,0.0014489910253737,0.0019983407173794
529,5.29,-0.20647243,0.7787867,0.5703618,-0.015882496,-0.004886922,0.0030543262
530,5.3,-0.20647243,0.7787867,0.5703618,-0.015882496,-0.004886922,0.0030543262
531,5.31,-0.20647243,0.7787867,0.5703618,-0.015882496,-0.004886922,0.0030543262
532,5.32,-0.20647243,0.7787867,0.5703618,-0.015882496,-0.004886922,0.0030543262
533,5.33,-0.20647243,0.7787867,0.5703618,-0.015882496,-0.004886922,0.0030543262
534,5.34,-0.20647243,0.7787867,0.5703618,-0.015882496,-0.004886922,0.0030543262
535,5.35,-0.20647243,0.7787867,0.5703618,-0.015882496,-0.004886922,0.0030543262
536,5.36,-0.20647243,0.7787867,0.5703618,-0.015882496,-0.004886922,0.0030543262
537,5.37,-0.20647243,0.7787867,0.5703618,-0.0086364901034405,-0.0038000210324829,0.0099380321694495
538,5.38,-0.20647243,0.7787867,0.5703618,-0.0036651916,-0.0030543262,0.014660766
539,5.39,-0.20647243,0.7787867,0.5703618,-0.0036651916,-0.0030543262,0.014660766
540,5.4,-0.20647243,0.7787867,0.5703618,-0.0036651916,-0.0030543262,0.014660766
541,5.41,-0.20647243,0.7787867,0.5703618,-0.0036651916,-0.0030543262,0.014660766
542,5.42,-0.223607216264859,0.7629329945986446,0.5620346169111676,-0.0036651916,-0.0030543262,0.014660766
543,5.43,-0.23258655,0.754625,0.55767083,-0.0036651916,-0.0030543262,0.014660766
544,5.44,-0.23258655,0.754625,0.55767083,-0.0009439000570031,-0.0068961498199498,0.0111390945405477
545,5.45,-0.23258655,0.754625,0.55767083,0.0067195175,-0.017715093,0.0012217305
546,5.46,-0.23258655,0.754625,0.55767083,0.0067195175,-0.017715093,0.0012217305
547,5.47,-0.23258655,0.754625,0.55767083,0.0067195175,-0.017715093,0.0012217305
548,5.48,-0.23258655,0.754625,0.55767083,0.0067195175,-0.017715093,0.0012217305
549,5.49,-0.23258655,0.754625,0.55767083,0.0067195175,-0.017715093,0.0012217305
550,5.5,-0.2276447760281653,0.7584795743837478,0.5660718558763398,0.0067195175,-0.017715093,0.0012217305
551,5.51,-0.2203837,0.7641432,0.5784157,0.0067195175,-0.017715093,0.0012217305
552,5.52,-0.2203837,0.7641432,0.5784157,0.0064682482691382,-0.0177079138703039,0.0013689024795452
553,5.53,-0.2203837,0.7641432,0.5784157,-0.0315676814294031,-0.0166211716875099,0.0236470900967825
554,5.54,-0.2203837,0.7641432,0.5784157,-0.03604105,-0.016493361,0.026267206
555,5.55,-0.2203837,0.7641432,0.5784157,-0.03604105,-0.016493361,0.026267206
556,5.56,-0.2203837,0.7641432,0.5784157,-0.0300822896520957,-0.0082427702108129,0.0264199944126178
557,5.57,-0.2203837,0.7641432,0.5784157,-0.012217305,0.016493361,0.02687807
558,5.58,-0.2203837,0.7641432,0.5784157,-0.012217305,0.016493361,0.02687807
559,5.59,-0.2203837,0.7641432,0.5784157,-0.012217305,0.016493361,0.02687807
560,5.6,-0.2203837,0.7641432,0.5784157,-0.012217305,0.016493361,0.02687807
561,5.61,-0.2203837,0.7641432,0.5784157,-0.012217305,0.016493361,0.02687807
562,5.62,-0.2092689353363479,0.7703308266483355,0.583572025022702,-0.012217305,0.016493361,0.02687807
563,5.63,-0.19671014,0.77732235,0.58939826,-0.012217305,0.016493361,0.02687807
564,5.64,-0.19671014,0.77732235,0.58939826,-0.012217305,0.016493361,0.02687807
565,5.65,-0.19671014,0.77732235,0.58939826,-0.012217305,0.016493361,0.02687807
566,5.66,-0.19671014,0.77732235,0.58939826,0.0062350554788983,0.0232033109515749,0.0243618400553862
567,5.67,-0.19671014,0.77732235,0.58939826,0.014660766,0.026267206,0.02321288
568,5.68,-0.19671014,0.77732235,0.58939826,0.014660766,0.026267206,0.02321288
569,5.69,-0.19671014,0.77732235,0.58939826,0.014660766,0.026267206,0.02321288
570,5.7,-0.19671014,0.77732235,0.58939826,0.014660766,0.026267206,0.02321288
571,5.71,-0.19671014,0.77732235,0.58939826,0.014660766,0.026267206,0.02321288
572,5.72,-0.19671014,0.77732235,0.58939826,0.014660766,0.026267206,0.02321288
573,5.73,-0.19671014,0.77732235,0.58939826,0.014660766,0.026267206,0.02321288
574,5.74,-0.19671014,0.77732235,0.58939826,0.014660766,0.026267206,0.02321288
575,5.75,-0.19671014,0.77732235,0.58939826,0.014660766,0.026267206,0.02321288
576,5.76,-0.19671014,0.77732235,0.58939826,0.014660766,0.026267206,0.02321288
577,5.77,-0.19671014,0.77732235,0.58939826,0.014660766,0.026267206,0.02321288
578,5.78,-0.2054259125257481,0.7768469385591671,0.5752945301033827,0.014660766,0.026267206,0.02321288
579,5.79,-0.21013328,0.77659017,0.56767714,0.014660766,0.026267206,0.02321288
580,5.8,-0.21013328,0.77659017,0.56767714,0.014660766,0.026267206,0.02321288
581,5.81,-0.21013328,0.77659017,0.56767714,0.014660766,0.026267206,0.02321288
582,5.82,-0.21013328,0.77659017,0.56767714,0.014660766,0.026267206,0.02321288
583,5.83,-0.21013328,0.77659017,0.56767714,0.014660766,0.026267206,0.02321288
584,5.84,-0.21013328,0.77659017,0.56767714,0.0038651273884348,0.0239203282330586,0.0091316118615954
585,5.85,-0.21013328,0.77659017,0.56767714,0.0177442626558984,0.0709676681937125,-0.0304734919452483
586,5.86,-0.2322657099078056,0.7612236133969137,0.6104512164021021,0.029321533,0.10323623,-0.054367006
587,5.87,-0.2402440139261378,0.7539147471195145,0.636796908024451,0.029321533,0.10323623,-0.054367006
588,5.88,-0.21257387,0.77024466,0.601113,0.0265060451988679,0.1236149965052016,-0.04739532309155
589,5.89,-0.21257387,0.77024466,0.601113,0.016493361,0.19608775,-0.022602014
590,5.9,-0.21257387,0.77024466,0.601113,0.016493361,0.19608775,-0.022602014
591,5.91,-0.21257387,0.77024466,0.601113,0.016493361,0.19608775,-0.022602014
592,5.92,-0.21257387,0.77024466,0.601113,0.016493361,0.19608775,-0.022602014
593,5.93,-0.21257387,0.77024466,0.601113,0.016493361,0.19608775,-0.022602014
594,5.94,-0.21257387,0.77024466,0.601113,0.016493361,0.19608775,-0.022602014
595,5.95,-0.21257387,0.77024466,0.601113,0.016493361,0.19608775,-0.022602014
596,5.96,-0.21257387,0.77024466,0.601113,0.016493361,0.19608775,-0.022602014
597,5.97,-0.21257387,0.77024466,0.601113,0.016493361,0.19608775,-0.022602014
598,5.98,-0.21257387,0.77024466,0.601113,0.016493361,0.19608775,-0.022602014
599,5.99,-0.2179373108356878,0.766884432899768,0.5973004236380006,0.016493361,0.19608775,-0.022602014
600,6.0,-0.2328306,0.7575537,0.5867136,0.016493361,0.19608775,-0.022602014
601,6.01,-0.2328306,0.7575537,0.5867136,0.016493361,0.19608775,-0.022602014
602,6.02,-0.2328306,0.7575537,0.5867136,0.016493361,0.19608775,-0.022602014
603,6.03,-0.2412771445489052,0.7073641325322803,0.61756183504571,0.016493361,0.19608775,-0.022602014
604,6.04,-0.2346585633623593,0.6969335070644767,0.6300397630419672,0.016493361,0.19608775,-0.022602014
605,6.05,-0.19988288,0.7883049,0.5879339,0.016493361,0.19608775,-0.022602014
606,6.06,-0.19988288,0.7883049,0.5879339,0.016493361,0.19608775,-0.022602014
607,6.07,-0.19988288,0.7883049,0.5879339,0.016493361,0.19608775,-0.022602014
608,6.08,-0.2181287330406218,0.7520229358255794,0.5501838799684158,0.016493361,0.19608775,-0.022602014
609,6.09,-0.2107307777561065,0.7697739950057433,0.5584453572663994,0.0136503299007678,0.1010492608347015,0.1146757904596379
610,6.1,-0.20549619,0.7817154,0.5657247,0.012217305,0.053145275,0.18387043
611,6.11,-0.20549619,0.7817154,0.5657247,0.012217305,0.053145275,0.18387043
612,6.12,-0.2065775801710483,0.7812336886574304,0.5641714330375833,0.012217305,0.053145275,0.18387043
613,6.13,-0.2291602253554046,0.7711741221644379,0.5317345960587224,0.012217305,0.053145275,0.18387043
614,6.14,-0.2323425,0.76975656,0.5271637,0.0957755162334936,-0.1763010325068964,0.056048961563599
615,6.15,-0.2323425,0.76975656,0.5271637,0.12522738,-0.25717425,0.010995574
616,6.16,-0.2323425,0.76975656,0.5271637,0.12522738,-0.25717425,0.010995574
617,6.17,-0.2323425,0.76975656,0.5271637,0.12522738,-0.25717425,0.010995574
618,6.18,-0.2323425,0.76975656,0.5271637,0.1318166185907543,-0.2457738213787447,0.0206702512183548
619,6.19,-0.2323425,0.76975656,0.5271637,0.1958552257713982,-0.1349768665997925,0.1146952050051357
620,6.2,-0.2323425,0.76975656,0.5271637,0.20219639,-0.124005646,0.124005646
621,6.21,-0.2323425,0.76975656,0.5271637,0.20219639,-0.124005646,0.124005646
622,6.22,-0.2323425,0.76975656,0.5271637,0.20219639,-0.124005646,0.124005646
623,6.23,-0.2323425,0.76975656,0.5271637,0.20219639,-0.124005646,0.124005646
624,6.24,-0.2323425,0.76975656,0.5271637,0.20219639,-0.124005646,0.124005646
625,6.25,-0.2323425,0.76975656,0.5271637,0.20219639,-0.124005646,0.124005646
626,6.26,-0.2129714786377156,0.7822093731143511,0.5814716917940487,0.20219639,-0.124005646,0.124005646
627,6.27,-0.20500809,0.7873287,0.6037976,0.20219639,-0.124005646,0.124005646
628,6.28,-0.20500809,0.7873287,0.6037976,0.0696429938986576,-0.0844806332439005,0.0974949675687964
629,6.29,-0.20500809,0.7873287,0.6037976,-0.1337795,-0.023823744,0.05681047
630,6.3,-0.20500809,0.7873287,0.6037976,-0.1337795,-0.023823744,0.05681047
631,6.31,-0.20500809,0.7873287,0.6037976,-0.1337795,-0.023823744,0.05681047
632,6.32,-0.20500809,0.7873287,0.6037976,-0.1337795,-0.023823744,0.05681047
633,6.33,-0.20500809,0.7873287,0.6037976,-0.1337795,-0.023823744,0.05681047
634,6.34,-0.20500809,0.7873287,0.6037976,-0.1337795,-0.023823744,0.05681047
635,6.35,-0.20500809,0.7873287,0.6037976,-0.1337795,-0.023823744,0.05681047
636,6.36,-0.20500809,0.7873287,0.6037976,-0.1337795,-0.023823744,0.05681047
637,6.37,-0.20500809,0.7873287,0.6037976,-0.1337795,-0.023823744,0.05681047
638,6.38,-0.20500809,0.7873287,0.6037976,-0.1337795,-0.023823744,0.05681047
639,6.39,-0.2163625922433653,0.7750146518346079,0.6388206723101151,-0.1337795,-0.023823744,0.05681047
640,6.4,-0.22233616,0.76853627,0.6572462,-0.1337795,-0.023823744,0.05681047
641,6.41,-0.22233616,0.76853627,0.6572462,-0.0778695546223108,-0.010122493786126,0.0311758717637082
642,6.42,-0.22233616,0.76853627,0.6572462,0.02076942,0.014049901,-0.014049901
643,6.43,-0.22233616,0.76853627,0.6572462,0.02076942,0.014049901,-0.014049901
644,6.44,-0.22233616,0.76853627,0.6572462,0.02076942,0.014049901,-0.014049901
645,6.45,-0.22233616,0.76853627,0.6572462,0.02076942,0.014049901,-0.014049901
646,6.46,-0.2182658830385014,0.7715291224382191,0.610916813059515,0.02076942,0.014049901,-0.014049901
647,6.47,-0.21403822,0.7746377,0.562796,0.02076942,0.014049901,-0.014049901
648,6.48,-0.21403822,0.7746377,0.562796,0.02076942,0.014049901,-0.014049901
649,6.49,-0.21403822,0.7746377,0.562796,0.02076942,0.014049901,-0.014049901
650,6.5,-0.21403822,0.7746377,0.562796,0.02076942,0.014049901,-0.014049901
651,6.51,-0.21403822,0.7746377,0.562796,0.02076942,0.014049901,-0.014049901
652,6.52,-0.21403822,0.7746377,0.562796,0.02076942,0.014049901,-0.014049901
653,6.53,-0.21403822,0.7746377,0.562796,0.02076942,0.014049901,-0.014049901
654,6.54,-0.21403822,0.7746377,0.562796,0.02076942,0.014049901,-0.014049901
655,6.55,-0.21403822,0.7746377,0.562796,0.02076942,0.014049901,-0.014049901
656,6.56,-0.21403822,0.7746377,0.562796,0.02076942,0.014049901,-0.014049901
657,6.57,-0.21403822,0.7746377,0.562796,0.02076942,0.014049901,-0.014049901
658,6.58,-0.21403822,0.7746377,0.562796,0.02076942,0.014049901,-0.014049901
659,6.59,-0.21403822,0.7746377,0.562796,0.02076942,0.014049901,-0.014049901
660,6.6,-0.2208062687560657,0.7696507105605843,0.586306134772951,-0.0273763448138339,0.044363898959731,0.0064566278901414
661,6.61,-0.22331238,0.7678041,0.5950116,-0.04520403,0.055588737,0.014049901
662,6.62,-0.2173595869838701,0.7728474417269876,0.5890588137591403,0.0773037661051728,-0.3007599634738907,-0.2344836591146842
663,6.63,-0.20574026,0.7826916,0.5774395,0.31642818,-0.9963212,-0.71959925
664,6.64,-0.20574026,0.7826916,0.5774395,0.3318267138389856,-0.973558155266488,-0.7097575790443631
665,6.65,-0.20571113895447,0.7827416284291006,0.5773233889853624,0.59742624,-0.58093286,-0.54000485
666,6.66,-0.1886521280958356,0.8120481145025022,0.5093059458110022,0.59742624,-0.58093286,-0.54000485
667,6.67,-0.1867038,0.81539524,0.5015376,0.59742624,-0.58093286,-0.54000485
668,6.68,-0.1867038,0.81539524,0.5015376,0.59742624,-0.58093286,-0.54000485
669,6.69,-0.1867038,0.81539524,0.5015376,0.5135367569644982,-0.7049433713237268,-0.5936211681057945
670,6.7,-0.1881358656400965,0.8120103597601727,0.5113016863344365,0.3235155201308526,-1.0451179339871897,-0.6968708963413712
671,6.71,-0.1973274532059262,0.79028480315641,0.573971617118648,0.3690049904439327,-1.358315486397942,-0.5509909540879153
672,6.72,-0.19744232,0.7900133,0.5747548,0.2214637734335505,-1.4125580765201369,-0.5985377439295255
673,6.73,-0.19744232,0.7900133,0.5747548,0.18081611,-1.4263704,-0.61208695
674,6.74,-0.19744232,0.7900133,0.5747548,0.18081611,-1.4263704,-0.61208695
675,6.75,-0.19744232,0.7900133,0.5747548,0.18081611,-1.4263704,-0.61208695
676,6.76,-0.19744232,0.7900133,0.5747548,0.18081611,-1.4263704,-0.61208695
677,6.77,-0.19744232,0.7900133,0.5747548,0.18081611,-1.4263704,-0.61208695
678,6.78,-0.19744232,0.7900133,0.5747548,0.18081611,-1.4263704,-0.61208695
679,6.79,-0.19744232,0.7900133,0.5747548,0.18081611,-1.4263704,-0.61208695
680,6.8,-0.19744232,0.7900133,0.5747548,0.1041105101927658,-0.7151002527879744,-0.3116314254905681
681,6.81,-0.19744232,0.7900133,0.5747548,0.0891238222286085,-0.5761327747775681,-0.2529286292899523
682,6.82,-0.19744232,0.7900133,0.5747548,0.2248039224133863,-0.8101300330906087,-0.5514495670038612
683,6.83,-0.19744232,0.7900133,0.5747548,0.3115413,0.40500367,-0.43188173
684,6.84,-0.19744232,0.7900133,0.5747548,0.291671800984605,0.3760825122310788,-0.4010619321603012
685,6.85,-0.19744232,0.7900133,0.5747548,0.0578606281561609,0.0357573831340322,-0.0383948576833718
686,6.86,-0.19744232,0.7900133,0.5747548,0.036651913,0.004886922,-0.005497787
687,6.87,-0.1812880440534156,0.8004203754997501,0.6067527147712124,0.036651913,0.004886922,-0.005497787
688,6.88,-0.17206036,0.80636513,0.62503064,0.036651913,0.004886922,-0.005497787
689,6.89,-0.17206036,0.80636513,0.62503064,0.036651913,0.004886922,-0.005497787
690,6.9,-0.17206036,0.80636513,0.62503064,0.036651913,0.004886922,-0.005497787
691,6.91,-0.17206036,0.80636513,0.62503064,0.036651913,0.004886922,-0.005497787
692,6.92,-0.17206036,0.80636513,0.62503064,0.036651913,0.004886922,-0.005497787
693,6.93,-0.17206036,0.80636513,0.62503064,0.036651913,0.004886922,-0.005497787
694,6.94,-0.1963977286788308,0.7891324784377304,0.5887512949898465,-0.0583156414316874,0.1028813295125111,0.0062312730238411
695,6.95,-0.21135357,0.77854264,0.56645685,-0.116675265,0.16310102,0.013439035
696,6.96,-0.21135357,0.77854264,0.56645685,-0.116675265,0.16310102,0.013439035
697,6.97,-0.21135357,0.77854264,0.56645685,-0.116675265,0.16310102,0.013439035
698,6.98,-0.21135357,0.77854264,0.56645685,-0.116675265,0.16310102,0.013439035
699,6.99,-0.21135357,0.77854264,0.56645685,-0.116675265,0.16310102,0.013439035
700,7.0,-0.21135357,0.77854264,0.56645685,-0.116675265,0.16310102,0.013439035
701,7.01,-0.21135357,0.77854264,0.56645685,-0.116675265,0.16310102,0.013439035
702,7.02,-0.21135357,0.77854264,0.56645685,-0.116675265,0.16310102,0.013439035
703,7.03,-0.21135357,0.77854264,0.56645685,-0.1190288973230765,0.1341289210593007,0.0236381105405256
704,7.04,-0.21135357,0.77854264,0.56645685,-0.1412321879837123,-0.1391830688900022,0.1198523902628856
705,7.05,-0.21135357,0.77854264,0.56645685,-0.1423316,-0.15271631,0.12461651
706,7.06,-0.21135357,0.77854264,0.56645685,-0.1423316,-0.15271631,0.12461651
707,7.07,-0.21135357,0.77854264,0.56645685,-0.0527724523256664,-0.0650626753759064,0.0255297918755188
708,7.08,-0.21135357,0.77854264,0.56645685,0.029932396,0.015882496,-0.065973446
709,7.09,-0.21135357,0.77854264,0.56645685,0.029932396,0.015882496,-0.065973446
710,7.1,-0.21135357,0.77854264,0.56645685,0.029932396,0.015882496,-0.065973446
711,7.11,-0.2459614640861328,0.7787359824475095,0.5797973600493116,0.029932396,0.015882496,-0.065973446
712,7.12,-0.2550398,0.7787867,0.58329684,0.029932396,0.015882496,-0.065973446
713,7.13,-0.2261562687843581,0.7856064108339451,0.59001626374855,-0.0411068027264896,-0.0408484539322361,0.0203780887228713
714,7.14,-0.2073849187803396,0.7786732088466433,0.5888635198760721,-0.14294247,-0.12217305,0.1441642
715,7.15,-0.29384494,0.7148437,0.54766446,-0.14294247,-0.12217305,0.1441642
716,7.16,-0.29384494,0.7148437,0.54766446,-0.14294247,-0.12217305,0.1441642
717,7.17,-0.29384494,0.7148437,0.54766446,-0.14294247,-0.12217305,0.1441642
718,7.18,-0.2350280242875979,0.7533063125349003,0.5691417428324457,-0.14294247,-0.12217305,0.1441642
719,7.19,-0.19158493,0.7817154,0.5850052,-0.14294247,-0.12217305,0.1441642
720,7.2,-0.19158493,0.7817154,0.5850052,-0.14294247,-0.12217305,0.1441642
721,7.21,-0.19158493,0.7817154,0.5850052,-0.14294247,-0.12217305,0.1441642
722,7.22,-0.19158493,0.7817154,0.5850052,-0.14294247,-0.12217305,0.1441642
723,7.23,-0.19158493,0.7817154,0.5850052,-0.14294247,-0.12217305,0.1441642
724,7.24,-0.19158493,0.7817154,0.5850052,-0.14294247,-0.12217305,0.1441642
725,7.25,-0.19158493,0.7817154,0.5850052,-0.14294247,-0.12217305,0.1441642
726,7.26,-0.19158493,0.7817154,0.5850052,-0.14294247,-0.12217305,0.1441642
727,7.27,-0.1846361861357373,0.7921698142491382,0.5625939329088326,-0.14294247,-0.12217305,0.1441642
728,7.28,-0.1662764271108927,0.8207525355108984,0.4999763372482184,-0.14294247,-0.12217305,0.1441642
729,7.29,-0.2058794545895982,0.782515128842469,0.5520650190097693,-0.14294247,-0.12217305,0.1441642
730,7.3,-0.2214949045965326,0.7758804903139204,0.5536304954305321,-0.14294247,-0.12217305,0.1441642
731,7.31,-0.22575295,0.77659017,0.54839665,-0.0914228226802692,-0.0940948418944762,0.0980541155434175
732,7.32,-0.22575295,0.77659017,0.54839665,-0.02076942,-0.055588737,0.03481932
733,7.33,-0.22575295,0.77659017,0.54839665,-0.02076942,-0.055588737,0.03481932
734,7.34,-0.22575295,0.77659017,0.54839665,-0.02076942,-0.055588737,0.03481932
735,7.35,-0.22575295,0.77659017,0.54839665,-0.02076942,-0.055588737,0.03481932
736,7.36,-0.22575295,0.77659017,0.54839665,-0.02076942,-0.055588737,0.03481932
737,7.37,-0.22575295,0.77659017,0.54839665,-0.02076942,-0.055588737,0.03481932
738,7.38,-0.22575295,0.77659017,0.54839665,-0.02076942,-0.055588737,0.03481932
739,7.39,-0.22575295,0.77659017,0.54839665,-0.02076942,-0.055588737,0.03481932
740,7.4,-0.22575295,0.77659017,0.54839665,-0.0076079937643054,-0.0024729864296708,0.000975655306927
741,7.41,-0.2128357899786322,0.7785203117471591,0.5896721648553692,0.0505916290546781,0.0264458085498007,0.0071883935066224
742,7.42,-0.20451997,0.7797629,0.61624455,0.08552113,0.03481932,0.017715093
743,7.43,-0.20451997,0.7797629,0.61624455,0.08552113,0.03481932,0.017715093
744,7.44,-0.2051976251025558,0.7794607009838116,0.6147793504374267,0.08552113,0.03481932,0.017715093
745,7.45,-0.2222811678447038,0.7718423272857174,0.5778419773421883,0.08552113,0.03481932,0.017715093
746,7.46,-0.206861220668357,0.7810967618606638,0.6149645940250937,0.08552113,0.03481932,0.017715093
747,7.47,-0.20500809,0.7822035,0.61941725,0.08552113,0.03481932,0.017715093
748,7.48,-0.20500809,0.7822035,0.61941725,0.08552113,0.03481932,0.017715093
749,7.49,-0.2070568491405197,0.7737523442797237,0.6057161919388694,0.08552113,0.03481932,0.017715093
750,7.5,-0.208913,0.7660957,0.5933032,0.08552113,0.03481932,0.017715093
751,7.51,-0.208913,0.7660957,0.5933032,0.08552113,0.03481932,0.017715093
752,7.52,-0.2090436935756283,0.7661283722224999,0.5935319109125033,0.0840899861142954,0.0143539606003351,0.0189213428532162
753,7.53,-0.2126333456372938,0.7670257530638438,0.599813723883385,0.0447819438087596,-0.5477510947442312,0.0520524072660196
754,7.54,-0.2287103624143572,0.7624520260514988,0.5698302082027366,0.042760566,-0.5766568,0.05375614
755,7.55,-0.23380683,0.7609705,0.56011134,0.042760566,-0.5766568,0.05375614
756,7.56,-0.23380683,0.7609705,0.56011134,0.042760566,-0.5766568,0.05375614
757,7.57,-0.23380683,0.7609705,0.56011134,0.042760566,-0.5766568,0.05375614
758,7.58,-0.23380683,0.7609705,0.56011134,0.042760566,-0.5766568,0.05375614
759,7.59,-0.23380683,0.7609705,0.56011134,0.042760566,-0.5766568,0.05375614
760,7.6,-0.23380683,0.7609705,0.56011134,0.042760566,-0.5766568,0.05375614
761,7.61,-0.23380683,0.7609705,0.56011134,0.042760566,-0.5766568,0.05375614
762,7.62,-0.23380683,0.7609705,0.56011134,0.042760566,-0.5766568,0.05375614
763,7.63,-0.23380683,0.7609705,0.56011134,0.042760566,-0.5766568,0.05375614
764,7.64,-0.23380683,0.7609705,0.56011134,0.042760566,-0.5766568,0.05375614
765,7.65,-0.23380683,0.7609705,0.56011134,0.042760566,-0.5766568,0.05375614
766,7.66,-0.23380683,0.7609705,0.56011134,0.042760566,-0.5766568,0.05375614
767,7.67,-0.23380683,0.7609705,0.56011134,0.042760566,-0.5766568,0.05375614
768,7.68,-0.23380683,0.7609705,0.56011134,0.042760566,-0.5766568,0.05375614
769,7.69,-0.23380683,0.7609705,0.56011134,0.042760566,-0.5766568,0.05375614
770,7.7,-0.23380683,0.7609705,0.56011134,0.042760566,-0.5766568,0.05375614
771,7.71,-0.23380683,0.7609705,0.56011134,0.042760566,-0.5766568,0.05375614
772,7.72,-0.23380683,0.7609705,0.56011134,0.042760566,-0.5766568,0.05375614
773,7.73,-0.23380683,0.7609705,0.56011134,0.042760566,-0.5766568,0.05375614
774,7.74,-0.23380683,0.7609705,0.56011134,0.042760566,-0.5766568,0.05375614
775,7.75,-0.23380683,0.7609705,0.56011134,0.042760566,-0.5766568,0.05375614
776,7.76,-0.23380683,0.7609705,0.56011134,0.042760566,-0.5766568,0.05375614
777,7.77,-0.23380683,0.7609705,0.56011134,0.042760566,-0.5766568,0.05375614
778,7.78,-0.23380683,0.7609705,0.56011134,0.042760566,-0.5766568,0.05375614
779,7.79,-0.23380683,0.7609705,0.56011134,0.042760566,-0.5766568,0.05375614
780,7.8,-0.23380683,0.7609705,0.56011134,0.042760566,-0.5766568,0.05375614
781,7.81,-0.23380683,0.7609705,0.56011134,0.042760566,-0.5766568,0.05375614
782,7.82,-0.23380683,0.7609705,0.56011134,0.042760566,-0.5766568,0.05375614
783,7.83,-0.23380683,0.7609705,0.56011134,0.042760566,-0.5766568,0.05375614
784,7.84,-0.23380683,0.7609705,0.56011134,0.042760566,-0.5766568,0.05375614
785,7.85,-0.23380683,0.7609705,0.56011134,0.042760566,-0.5766568,0.05375614
786,7.86,-0.23380683,0.7609705,0.56011134,0.042760566,-0.5766568,0.05375614
787,7.87,-0.23380683,0.7609705,0.56011134,0.042760566,-0.5766568,0.05375614
788,7.88,-0.23380683,0.7609705,0.56011134,0.042760566,-0.5766568,0.05375614
789,7.89,-0.23380683,0.7609705,0.56011134,0.042760566,-0.5766568,0.05375614
790,7.9,-0.23380683,0.7609705,0.56011134,0.042760566,-0.5766568,0.05375614
791,7.91,-0.23380683,0.7609705,0.56011134,0.042760566,-0.5766568,0.05375614
792,7.92,-0.23380683,0.7609705,0.56011134,0.042760566,-0.5766568,0.05375614
793,7.93,-0.23380683,0.7609705,0.56011134,0.042760566,-0.5766568,0.05375614
794,7.94,-0.23380683,0.7609705,0.56011134,0.042760566,-0.5766568,0.05375614
795,7.95,-0.23380683,0.7609705,0.56011134,0.042760566,-0.5766568,0.05375614
796,7.96,-0.23380683,0.7609705,0.56011134,0.042760566,-0.5766568,0.05375614
797,7.97,-0.23380683,0.7609705,0.56011134,0.042760566,-0.5766568,0.05375614
798,7.98,-0.23380683,0.7609705,0.56011134,0.042760566,-0.5766568,0.05375614
799,7.99,-0.23380683,0.7609705,0.56011134,0.042760566,-0.5766568,0.05375614
800,8.0,-0.23380683,0.7609705,0.56011134,0.042760566,-0.5766568,0.05375614
801,8.01,-0.23380683,0.7609705,0.56011134,0.042760566,-0.5766568,0.05375614
802,8.02,-0.23380683,0.7609705,0.56011134,0.042760566,-0.5766568,0.05375614
803,8.03,-0.23380683,0.7609705,0.56011134,0.042760566,-0.5766568,0.05375614
804,8.04,-0.23380683,0.7609705,0.56011134,0.042760566,-0.5766568,0.05375614
805,8.05,-0.23380683,0.7609705,0.56011134,0.042760566,-0.5766568,0.05375614
806,8.06,-0.23380683,0.7609705,0.56011134,0.042760566,-0.5766568,0.05375614
807,8.07,-0.23380683,0.7609705,0.56011134,0.042760566,-0.5766568,0.05375614
808,8.08,-0.23380683,0.7609705,0.56011134,0.042760566,-0.5766568,0.05375614
809,8.09,-0.23380683,0.7609705,0.56011134,0.042760566,-0.5766568,0.05375614
810,8.1,-0.23380683,0.7609705,0.56011134,0.042760566,-0.5766568,0.05375614
811,8.11,-0.23380683,0.7609705,0.56011134,0.042760566,-0.5766568,0.05375614
812,8.12,-0.23380683,0.7609705,0.56011134,0.042760566,-0.5766568,0.05375614
813,8.13,-0.23380683,0.7609705,0.56011134,0.042760566,-0.5766568,0.05375614
814,8.14,-0.23380683,0.7609705,0.56011134,0.042760566,-0.5766568,0.05375614
815,8.15,-0.23380683,0.7609705,0.56011134,0.042760566,-0.5766568,0.05375614
816,8.16,-0.23380683,0.7609705,0.56011134,0.042760566,-0.5766568,0.05375614
817,8.17,-0.23380683,0.7609705,0.56011134,0.042760566,-0.5766568,0.05375614
818,8.18,-0.23380683,0.7609705,0.56011134,0.042760566,-0.5766568,0.05375614
819,8.19,-0.23380683,0.7609705,0.56011134,0.042760566,-0.5766568,0.05375614
820,8.2,-0.23380683,0.7609705,0.56011134,0.042760566,-0.5766568,0.05375614
821,8.21,-0.23380683,0.7609705,0.56011134,0.042760566,-0.5766568,0.05375614
822,8.22,-0.23380683,0.7609705,0.56011134,0.042760566,-0.5766568,0.05375614
823,8.23,-0.23380683,0.7609705,0.56011134,0.042760566,-0.5766568,0.05375614
824,8.24,-0.23380683,0.7609705,0.56011134,0.042760566,-0.5766568,0.05375614
825,8.25,-0.23380683,0.7609705,0.56011134,0.042760566,-0.5766568,0.05375614
826,8.26,-0.23380683,0.7609705,0.56011134,0.042760566,-0.5766568,0.05375614
827,8.27,-0.23380683,0.7609705,0.56011134,0.042760566,-0.5766568,0.05375614
828,8.28,-0.23380683,0.7609705,0.56011134,0.042760566,-0.5766568,0.05375614
829,8.29,-0.23380683,0.7609705,0.56011134,0.042760566,-0.5766568,0.05375614
830,8.3,-0.23380683,0.7609705,0.56011134,0.042760566,-0.5766568,0.05375614
831,8.31,-0.23380683,0.7609705,0.56011134,0.042760566,-0.5766568,0.05375614
832,8.32,-0.23380683,0.7609705,0.56011134,0.042760566,-0.5766568,0.05375614
833,8.33,-0.23380683,0.7609705,0.56011134,0.042760566,-0.5766568,0.05375614
834,8.34,-0.23380683,0.7609705,0.56011134,0.042760566,-0.5766568,0.05375614
835,8.35,-0.23380683,0.7609705,0.56011134,0.042760566,-0.5766568,0.05375614
836,8.36,-0.23380683,0.7609705,0.56011134,0.042760566,-0.5766568,0.05375614
837,8.37,-0.23380683,0.7609705,0.56011134,0.042760566,-0.5766568,0.05375614
838,8.38,-0.23380683,0.7609705,0.56011134,0.042760566,-0.5766568,0.05375614
839,8.39,-0.23380683,0.7609705,0.56011134,0.042760566,-0.5766568,0.05375614
840,8.4,-0.23380683,0.7609705,0.56011134,0.042760566,-0.5766568,0.05375614
841,8.41,-0.23380683,0.7609705,0.56011134,0.042760566,-0.5766568,0.05375614
842,8.42,-0.23380683,0.7609705,0.56011134,0.042760566,-0.5766568,0.05375614
843,8.43,-0.23380683,0.7609705,0.56011134,0.042760566,-0.5766568,0.05375614
844,8.44,-0.23380683,0.7609705,0.56011134,0.042760566,-0.5766568,0.05375614
845,8.45,-0.23380683,0.7609705,0.56011134,0.042760566,-0.5766568,0.05375614
846,8.46,-0.23380683,0.7609705,0.56011134,0.042760566,-0.5766568,0.05375614
847,8.47,-0.23380683,0.7609705,0.56011134,0.042760566,-0.5766568,0.05375614
848,8.48,-0.23380683,0.7609705,0.56011134,0.042760566,-0.5766568,0.05375614
849,8.49,-0.23380683,0.7609705,0.56011134,0.042760566,-0.5766568,0.05375614
850,8.5,-0.23380683,0.7609705,0.56011134,0.042760566,-0.5766568,0.05375614
851,8.51,-0.23380683,0.7609705,0.56011134,0.042760566,-0.5766568,0.05375614
852,8.52,-0.23380683,0.7609705,0.56011134,0.042760566,-0.5766568,0.05375614
853,8.53,-0.23380683,0.7609705,0.56011134,0.042760566,-0.5766568,0.05375614
854,8.54,-0.23380683,0.7609705,0.56011134,0.042760566,-0.5766568,0.05375614
855,8.55,-0.23380683,0.7609705,0.56011134,0.042760566,-0.5766568,0.05375614
856,8.56,-0.23380683,0.7609705,0.56011134,0.042760566,-0.5766568,0.05375614
857,8.57,-0.23380683,0.7609705,0.56011134,0.042760566,-0.5766568,0.05375614
858,8.58,-0.23380683,0.7609705,0.56011134,0.042760566,-0.5766568,0.05375614
859,8.59,-0.23380683,0.7609705,0.56011134,0.042760566,-0.5766568,0.05375614
860,8.6,-0.23380683,0.7609705,0.56011134,0.042760566,-0.5766568,0.05375614
861,8.61,-0.23380683,0.7609705,0.56011134,0.042760566,-0.5766568,0.05375614
862,8.62,-0.23380683,0.7609705,0.56011134,0.042760566,-0.5766568,0.05375614
863,8.63,-0.23380683,0.7609705,0.56011134,0.042760566,-0.5766568,0.05375614
864,8.64,-0.23380683,0.7609705,0.56011134,0.042760566,-0.5766568,0.05375614
865,8.65,-0.23380683,0.7609705,0.56011134,0.042760566,-0.5766568,0.05375614
866,8.66,-0.23380683,0.7609705,0.56011134,0.042760566,-0.5766568,0.05375614
867,8.67,-0.23380683,0.7609705,0.56011134,0.042760566,-0.5766568,0.05375614
868,8.68,-0.23380683,0.7609705,0.56011134,0.042760566,-0.5766568,0.05375614
869,8.69,-0.23380683,0.7609705,0.56011134,0.042760566,-0.5766568,0.05375614
870,8.7,-0.23380683,0.7609705,0.56011134,0.042760566,-0.5766568,0.05375614
871,8.71,-0.23380683,0.7609705,0.56011134,0.042760566,-0.5766568,0.05375614
872,8.72,-0.23380683,0.7609705,0.56011134,0.042760566,-0.5766568,0.05375614
873,8.73,-0.23380683,0.7609705,0.56011134,0.042760566,-0.5766568,0.05375614
874,8.74,-0.23380683,0.7609705,0.56011134,0.042760566,-0.5766568,0.05375614
875,8.75,-0.23380683,0.7609705,0.56011134,0.042760566,-0.5766568,0.05375614
876,8.76,-0.23380683,0.7609705,0.56011134,0.042760566,-0.5766568,0.05375614
877,8.77,-0.23380683,0.7609705,0.56011134,0.042760566,-0.5766568,0.05375614
878,8.78,-0.23380683,0.7609705,0.56011134,0.042760566,-0.5766568,0.05375614
879,8.79,-0.23380683,0.7609705,0.56011134,0.042760566,-0.5766568,0.05375614
880,8.8,-0.23380683,0.7609705,0.56011134,0.042760566,-0.5766568,0.05375614
881,8.81,-0.23380683,0.7609705,0.56011134,0.042760566,-0.5766568,0.05375614
882,8.82,-0.23380683,0.7609705,0.56011134,0.042760566,-0.5766568,0.05375614
883,8.83,-0.23380683,0.7609705,0.56011134,0.042760566,-0.5766568,0.05375614
884,8.84,-0.23380683,0.7609705,0.56011134,0.042760566,-0.5766568,0.05375614
885,8.85,-0.23380683,0.7609705,0.56011134,0.042760566,-0.5766568,0.05375614
886,8.86,-0.23380683,0.7609705,0.56011134,0.042760566,-0.5766568,0.05375614
887,8.87,-0.23380683,0.7609705,0.56011134,0.042760566,-0.5766568,0.05375614
888,8.88,-0.23380683,0.7609705,0.56011134,0.042760566,-0.5766568,0.05375614
889,8.89,-0.23380683,0.7609705,0.56011134,0.042760566,-0.5766568,0.05375614
890,8.9,-0.23380683,0.7609705,0.56011134,0.042760566,-0.5766568,0.05375614
891,8.91,-0.23380683,0.7609705,0.56011134,0.042760566,-0.5766568,0.05375614
892,8.92,-0.23380683,0.7609705,0.56011134,0.042760566,-0.5766568,0.05375614
893,8.93,-0.23380683,0.7609705,0.56011134,0.042760566,-0.5766568,0.05375614
894,8.94,-0.23380683,0.7609705,0.56011134,0.042760566,-0.5766568,0.05375614
895,8.95,-0.23380683,0.7609705,0.56011134,0.042760566,-0.5766568,0.05375614
896,8.96,-0.23380683,0.7609705,0.56011134,0.042760566,-0.5766568,0.05375614
897,8.97,-0.23380683,0.7609705,0.56011134,0.042760566,-0.5766568,0.05375614
898,8.98,-0.23380683,0.7609705,0.56011134,0.042760566,-0.5766568,0.05375614
899,8.99,-0.23380683,0.7609705,0.56011134,0.042760566,-0.5766568,0.05375614
900,9.0,-0.23380683,0.7609705,0.56011134,0.042760566,-0.5766568,0.05375614
901,9.01,-0.23380683,0.7609705,0.56011134,0.042760566,-0.5766568,0.05375614
902,9.02,-0.23380683,0.7609705,0.56011134,0.042760566,-0.5766568,0.05375614
903,9.03,-0.23380683,0.7609705,0.56011134,0.042760566,-0.5766568,0.05375614
904,9.04,-0.23380683,0.7609705,0.56011134,0.042760566,-0.5766568,0.05375614
905,9.05,-0.23380683,0.7609705,0.56011134,0.042760566,-0.5766568,0.05375614
906,9.06,-0.23380683,0.7609705,0.56011134,0.042760566,-0.5766568,0.05375614
907,9.07,-0.23380683,0.7609705,0.56011134,0.042760566,-0.5766568,0.05375614
908,9.08,-0.23380683,0.7609705,0.56011134,0.042760566,-0.5766568,0.05375614
909,9.09,-0.23380683,0.7609705,0.56011134,0.042760566,-0.5766568,0.05375614
910,9.1,-0.23380683,0.7609705,0.56011134,0.042760566,-0.5766568,0.05375614
911,9.11,-0.23380683,0.7609705,0.56011134,0.042760566,-0.5766568,0.05375614
912,9.12,-0.23380683,0.7609705,0.56011134,0.042760566,-0.5766568,0.05375614
913,9.13,-0.23380683,0.7609705,0.56011134,0.042760566,-0.5766568,0.05375614
914,9.14,-0.23380683,0.7609705,0.56011134,0.042760566,-0.5766568,0.05375614
915,9.15,-0.23380683,0.7609705,0.56011134,0.042760566,-0.5766568,0.05375614
916,9.16,-0.23380683,0.7609705,0.56011134,0.042760566,-0.5766568,0.05375614
917,9.17,-0.23380683,0.7609705,0.56011134,0.042760566,-0.5766568,0.05375614
918,9.18,-0.23380683,0.7609705,0.56011134,0.042760566,-0.5766568,0.05375614
919,9.19,-0.23380683,0.7609705,0.56011134,0.042760566,-0.5766568,0.05375614
920,9.2,-0.23380683,0.7609705,0.56011134,0.042760566,-0.5766568,0.05375614
921,9.21,-0.23380683,0.7609705,0.56011134,0.042760566,-0.5766568,0.05375614
922,9.22,-0.23380683,0.7609705,0.56011134,0.042760566,-0.5766568,0.05375614
923,9.23,-0.23380683,0.7609705,0.56011134,0.042760566,-0.5766568,0.05375614
924,9.24,-0.23380683,0.7609705,0.56011134,0.042760566,-0.5766568,0.05375614
925,9.25,-0.23380683,0.7609705,0.56011134,0.042760566,-0.5766568,0.05375614
926,9.26,-0.23380683,0.7609705,0.56011134,0.042760566,-0.5766568,0.05375614
927,9.27,-0.23380683,0.7609705,0.56011134,0.042760566,-0.5766568,0.05375614
928,9.28,-0.23380683,0.7609705,0.56011134,0.042760566,-0.5766568,0.05375614
929,9.29,-0.23380683,0.7609705,0.56011134,0.042760566,-0.5766568,0.05375614
930,9.3,-0.23380683,0.7609705,0.56011134,0.042760566,-0.5766568,0.05375614
931,9.31,-0.23380683,0.7609705,0.56011134,0.042760566,-0.5766568,0.05375614
932,9.32,-0.23380683,0.7609705,0.56011134,0.042760566,-0.5766568,0.05375614
933,9.33,-0.23380683,0.7609705,0.56011134,0.042760566,-0.5766568,0.05375614
934,9.34,-0.23380683,0.7609705,0.56011134,0.042760566,-0.5766568,0.05375614
935,9.35,-0.23380683,0.7609705,0.56011134,0.042760566,-0.5766568,0.05375614
936,9.36,-0.23380683,0.7609705,0.56011134,0.042760566,-0.5766568,0.05375614
937,9.37,-0.23380683,0.7609705,0.56011134,0.042760566,-0.5766568,0.05375614
938,9.38,-0.23380683,0.7609705,0.56011134,0.042760566,-0.5766568,0.05375614
939,9.39,-0.23380683,0.7609705,0.56011134,0.042760566,-0.5766568,0.05375614
940,9.4,-0.23380683,0.7609705,0.56011134,0.042760566,-0.5766568,0.05375614
941,9.41,-0.23380683,0.7609705,0.56011134,0.042760566,-0.5766568,0.05375614
942,9.42,-0.23380683,0.7609705,0.56011134,0.042760566,-0.5766568,0.05375614
943,9.43,-0.23380683,0.7609705,0.56011134,0.042760566,-0.5766568,0.05375614
944,9.44,-0.23380683,0.7609705,0.56011134,0.042760566,-0.5766568,0.05375614
945,9.45,-0.23380683,0.7609705,0.56011134,0.042760566,-0.5766568,0.05375614
946,9.46,-0.23380683,0.7609705,0.56011134,0.042760566,-0.5766568,0.05375614
947,9.47,-0.23380683,0.7609705,0.56011134,0.042760566,-0.5766568,0.05375614
948,9.48,-0.23380683,0.7609705,0.56011134,0.042760566,-0.5766568,0.05375614
949,9.49,-0.23380683,0.7609705,0.56011134,0.042760566,-0.5766568,0.05375614
950,9.5,-0.23380683,0.7609705,0.56011134,0.042760566,-0.5766568,0.05375614
951,9.51,-0.23380683,0.7609705,0.56011134,0.042760566,-0.5766568,0.05375614
952,9.52,-0.23380683,0.7609705,0.56011134,0.042760566,-0.5766568,0.05375614
953,9.53,-0.23380683,0.7609705,0.56011134,0.042760566,-0.5766568,0.05375614
954,9.54,-0.23380683,0.7609705,0.56011134,0.042760566,-0.5766568,0.05375614
955,9.55,-0.23380683,0.7609705,0.56011134,0.042760566,-0.5766568,0.05375614
956,9.56,-0.23380683,0.7609705,0.56011134,0.042760566,-0.5766568,0.05375614
957,9.57,-0.23380683,0.7609705,0.56011134,0.042760566,-0.5766568,0.05375614
958,9.58,-0.23380683,0.7609705,0.56011134,0.042760566,-0.5766568,0.05375614
959,9.59,-0.23380683,0.7609705,0.56011134,0.042760566,-0.5766568,0.05375614
960,9.6,-0.23380683,0.7609705,0.56011134,0.042760566,-0.5766568,0.05375614
961,9.61,-0.23380683,0.7609705,0.56011134,0.042760566,-0.5766568,0.05375614
962,9.62,-0.23380683,0.7609705,0.56011134,0.042760566,-0.5766568,0.05375614
963,9.63,-0.23380683,0.7609705,0.56011134,0.042760566,-0.5766568,0.05375614
964,9.64,-0.23380683,0.7609705,0.56011134,0.042760566,-0.5766568,0.05375614
965,9.65,-0.23380683,0.7609705,0.56011134,0.042760566,-0.5766568,0.05375614
966,9.66,-0.23380683,0.7609705,0.56011134,0.042760566,-0.5766568,0.05375614
967,9.67,-0.23380683,0.7609705,0.56011134,0.042760566,-0.5766568,0.05375614
968,9.68,-0.23380683,0.7609705,0.56011134,0.042760566,-0.5766568,0.05375614
969,9.69,-0.23380683,0.7609705,0.56011134,0.042760566,-0.5766568,0.05375614
970,9.7,-0.23380683,0.7609705,0.56011134,0.042760566,-0.5766568,0.05375614
971,9.71,-0.23380683,0.7609705,0.56011134,0.042760566,-0.5766568,0.05375614
972,9.72,-0.23380683,0.7609705,0.56011134,0.042760566,-0.5766568,0.05375614
973,9.73,-0.23380683,0.7609705,0.56011134,0.042760566,-0.5766568,0.05375614
974,9.74,-0.23380683,0.7609705,0.56011134,0.042760566,-0.5766568,0.05375614
975,9.75,-0.23380683,0.7609705,0.56011134,0.042760566,-0.5766568,0.05375614
976,9.76,-0.23380683,0.7609705,0.56011134,0.042760566,-0.5766568,0.05375614
977,9.77,-0.23380683,0.7609705,0.56011134,0.042760566,-0.5766568,0.05375614
978,9.78,-0.23380683,0.7609705,0.56011134,0.042760566,-0.5766568,0.05375614
979,9.79,-0.23380683,0.7609705,0.56011134,0.042760566,-0.5766568,0.05375614
980,9.8,-0.23380683,0.7609705,0.56011134,0.042760566,-0.5766568,0.05375614
981,9.81,-0.2265731909340112,0.7676208072153767,0.5693284259146524,0.042760566,-0.5766568,0.05375614
982,9.82,-0.2186753,0.7748818,0.5793919,0.042760566,-0.5766568,0.05375614
983,9.83,-0.2187329649503995,0.7740167808501707,0.5734522328963342,0.042760566,-0.5766568,0.05375614
984,9.84,-0.21891935,0.77122086,0.554254,0.042760566,-0.5766568,0.05375614
985,9.85,-0.21891935,0.77122086,0.554254,0.042760566,-0.5766568,0.05375614
986,9.86,-0.2267042939064218,0.7689502793267713,0.5782575709531653,-0.0181312792521342,-0.0006199409642436,0.042795608838138
987,9.87,-0.2306341,0.7678041,0.59037447,-0.04886922,0.29016098,0.03726278
988,9.88,-0.2306341,0.7678041,0.59037447,-0.04886922,0.29016098,0.03726278
989,9.89,-0.2306341,0.7678041,0.59037447,-0.04886922,0.29016098,0.03726278
990,9.9,-0.2306341,0.7678041,0.59037447,-0.04886922,0.29016098,0.03726278
991,9.91,-0.2306341,0.7678041,0.59037447,-0.04886922,0.29016098,0.03726278
992,9.92,-0.2306341,0.7678041,0.59037447,-0.04886922,0.29016098,0.03726278
993,9.93,-0.2306341,0.7678041,0.59037447,-0.04886922,0.29016098,0.03726278
994,9.94,-0.2306341,0.7678041,0.59037447,-0.04886922,0.29016098,0.03726278
995,9.95,-0.2306341,0.7678041,0.59037447,-0.047665783023982,0.2806913123741407,0.0362171708251743
996,9.96,-0.2306341,0.7678041,0.59037447,-0.0193372359240301,0.057778163862046,0.0116038430419453
997,9.97,-0.2306341,0.7678041,0.59037447,-0.4306557776941581,-0.0118950295259039,0.0257509831875434
998,9.98,-0.2306341,0.7678041,0.59037447,-0.4904667656496283,-0.0131568647146984,0.02872891442413
