id,timestamp,acc_x,acc_y,acc_z,gyro_x,gyro_y,gyro_z
1,0.01,-0.23258655,0.117879644,1.0330943,0.0443510223578277,-0.0127737334908493,-0.2411506055761815
2,0.02,-0.23258655,0.117879644,1.0330943,0.0972830230775597,-0.0673101574235113,-0.6396626599537046
3,0.03,-0.23258655,0.117879644,1.0330943,0.10567969,-0.099571034,-0.91874135
4,0.04,-0.23258655,0.117879644,1.0330943,-0.6895883792524788,0.1103315351281477,0.0512447358590211
5,0.05,-0.228259723757302,0.0927522962125349,1.0165412079412397,-3.9260309,0.9645562,3.998724
6,0.06,-0.20598431,-0.036608588,0.9313224,-3.9260309,0.9645562,3.998724
7,0.07,-0.20598431,-0.036608588,0.9313224,-3.9260309,0.9645562,3.998724
8,0.08,-0.20598431,-0.036608588,0.9313224,-3.9260309,0.9645562,3.998724
9,0.09,-0.2268439795403359,0.0114235357328845,0.9517703722321204,-3.9260309,0.9645562,3.998724
10,0.1,-0.2032961760130482,0.2070403961842629,0.94747590761825,-3.9260309,0.9645562,3.998724
11,0.11,-0.136428,0.4729829,0.9135063,-3.9260309,0.9645562,3.998724
12,0.12,-0.136428,0.4729829,0.9135063,-3.5368084452521535,0.8594619202989868,3.5729836785869664
13,0.13,-0.136428,0.4729829,0.9135063,-0.2850928745522994,-0.0185365135700458,0.0161836653133735
14,0.14,-0.136428,0.4729829,0.9135063,0.019547688,-0.100792766,-0.31703907
15,0.15,-0.1355033248204734,0.1406556982976332,0.9878499449848268,0.019547688,-0.100792766,-0.31703907
16,0.16,-0.13520771,0.03441207,1.0116173,0.019547688,-0.100792766,-0.31703907
17,0.17,-0.13520771,0.03441207,1.0116173,0.019547688,-0.100792766,-0.31703907
18,0.18,-0.13520771,0.03441207,1.0116173,0.0244188861431618,-0.0809832253959465,-0.3301913046675665
19,0.19,-0.13520771,0.03441207,1.0116173,0.037873644,-0.026267206,-0.36651915
20,0.2,-0.13520771,0.03441207,1.0116173,0.037873644,-0.026267206,-0.36651915
21,0.21,-0.13520771,0.03441207,1.0116173,0.037873644,-0.026267206,-0.36651915
22,0.22,-0.13520771,0.03441207,1.0116173,0.037873644,-0.026267206,-0.36651915
23,0.23,-0.13520771,0.03441207,1.0116173,0.037873644,-0.026267206,-0.36651915
24,0.24,-0.125441685228926,0.0200940776551733,0.9903471882343076,0.037873644,-0.026267206,-0.36651915
25,0.25,-0.10640897,-0.0078098318,0.9488945,0.0537434719646508,-0.0358976144647452,-0.3342369365291043
26,0.26,-0.10640897,-0.0078098318,0.9488945,0.10934488,-0.06963864,-0.22113322
27,0.27,-0.10640897,-0.0078098318,0.9488945,0.10934488,-0.06963864,-0.22113322
28,0.28,-0.10640897,-0.0078098318,0.9488945,0.10934488,-0.06963864,-0.22113322
29,0.29,-0.10640897,-0.0078098318,0.9488945,0.10934488,-0.06963864,-0.22113322
30,0.3,-0.10640897,-0.0078098318,0.9488945,0.0892857306654385,-0.0654679260491019,-0.2338439688271251
31,0.31,-0.0442923293492045,0.0526708422320212,0.9189436165022692,0.047647487,-0.05681047,-0.2602286
32,0.32,0.3381605412898136,0.4250510475906159,0.7345356824628546,0.047647487,-0.05681047,-0.2602286
33,0.33,0.49592432,0.5786598,0.65846646,0.0595757517201543,-0.073447256602922,-0.2665066305473276
34,0.34,0.49592432,0.5786598,0.65846646,0.07086037,-0.089186326,-0.2724459
35,0.35,0.49592432,0.5786598,0.65846646,0.07086037,-0.089186326,-0.2724459
36,0.36,0.49592432,0.5786598,0.65846646,0.07086037,-0.089186326,-0.2724459
37,0.37,0.0117650785525273,0.1202046797978981,0.9176182018635451,0.07086037,-0.089186326,-0.2724459
38,0.38,-0.12007617,-0.0046370877,0.98818773,0.07086037,-0.089186326,-0.2724459
39,0.39,0.4582653594980935,0.0892361101197142,0.5884660940128312,0.07086037,-0.089186326,-0.2724459
40,0.4,0.8396093987845459,0.1620902256405807,0.3281001649687807,0.07086037,-0.089186326,-0.2724459
41,0.41,-0.12349297,0.036852647,1.0028312,0.07086037,-0.089186326,-0.2724459
42,0.42,-0.12349297,0.036852647,1.0028312,0.07086037,-0.089186326,-0.2724459
43,0.43,-0.12349297,0.036852647,1.0028312,0.2027466917323556,-0.0095162238801766,-0.215384886326587
44,0.44,-0.12349297,0.036852647,1.0028312,0.22052236,0.0012217305,-0.20769419
45,0.45,-0.12349297,0.036852647,1.0028312,0.22052236,0.0012217305,-0.20769419
46,0.46,-0.12349297,0.036852647,1.0028312,0.22052236,0.0012217305,-0.20769419
47,0.47,-0.12349297,0.036852647,1.0028312,0.151695412028813,0.0159128624352069,-0.256597544821308
48,0.48,-0.12349297,0.036852647,1.0028312,0.01160644,0.045814894,-0.35613444
49,0.49,-0.12349297,0.036852647,1.0028312,0.01160644,0.045814894,-0.35613444
50,0.5,-0.12349297,0.036852647,1.0028312,0.01160644,0.045814894,-0.35613444
51,0.51,-0.12349297,0.036852647,1.0028312,0.0873908359353887,0.0131564247538994,-0.2749069646917164
52,0.52,-0.12349297,0.036852647,1.0028312,0.12217305,-0.0018325958,-0.23762658
53,0.53,-0.12349297,0.036852647,1.0028312,0.12217305,-0.0018325958,-0.23762658
54,0.54,-0.12349297,0.036852647,1.0028312,0.12217305,-0.0018325958,-0.23762658
55,0.55,-0.12349297,0.036852647,1.0028312,0.12217305,-0.0018325958,-0.23762658
56,0.56,-0.12349297,0.036852647,1.0028312,0.12217305,-0.0018325958,-0.23762658
57,0.57,-0.12349297,0.036852647,1.0028312,0.12217305,-0.0018325958,-0.23762658
58,0.58,-0.12349297,0.036852647,1.0028312,0.12217305,-0.0018325958,-0.23762658
59,0.59,-0.12349297,0.036852647,1.0028312,0.12217305,-0.0018325958,-0.23762658
60,0.6,-0.12349297,0.036852647,1.0028312,0.12217305,-0.0018325958,-0.23762658
61,0.61,-0.12349297,0.036852647,1.0028312,0.12217305,-0.0018325958,-0.23762658
62,0.62,-0.150224030800099,0.05217618380298,1.008620200480343,0.12217305,-0.0018325958,-0.23762658
63,0.63,-0.16180995,0.058817793,1.0111293,-0.0273866090096042,0.0200856291468353,-0.0203782844888775
64,0.64,-0.16180995,0.058817793,1.0111293,-0.16126843,0.03970624,0.1740966
65,0.65,-0.16180995,0.058817793,1.0111293,-0.16126843,0.03970624,0.1740966
66,0.66,-0.16180995,0.058817793,1.0111293,-0.16126843,0.03970624,0.1740966
67,0.67,-0.16180995,0.058817793,1.0111293,-0.16126843,0.03970624,0.1740966
68,0.68,-0.16180995,0.058817793,1.0111293,-0.16126843,0.03970624,0.1740966
69,0.69,-0.16180995,0.058817793,1.0111293,-0.16126843,0.03970624,0.1740966
70,0.7,-0.1494426679903263,0.0529539948552133,0.9953502792725532,-0.16126843,0.03970624,0.1740966
71,0.71,-0.13349932,0.045394648,0.97500867,-0.16126843,0.03970624,0.1740966
72,0.72,-0.13349932,0.045394648,0.97500867,-0.16126843,0.03970624,0.1740966
73,0.73,-0.13349932,0.045394648,0.97500867,-0.16126843,0.03970624,0.1740966
74,0.74,-0.13349932,0.045394648,0.97500867,-0.16126843,0.03970624,0.1740966
75,0.75,-0.13349932,0.045394648,0.97500867,-0.16126843,0.03970624,0.1740966
76,0.76,-0.13349932,0.045394648,0.97500867,-0.16126843,0.03970624,0.1740966
77,0.77,-0.13349932,0.045394648,0.97500867,-0.16126843,0.03970624,0.1740966
78,0.78,-0.13349932,0.045394648,0.97500867,-0.16126843,0.03970624,0.1740966
79,0.79,-0.13349932,0.045394648,0.97500867,-0.16126843,0.03970624,0.1740966
80,0.8,-0.1354225222078449,0.0455822773543099,0.975974963046707,-0.16126843,0.03970624,0.1740966
81,0.81,-0.1729900273921411,0.0492473972839843,0.994850367252067,-0.16126843,0.03970624,0.1740966
82,0.82,-0.18353106,0.05027579,1.0001466,-0.16126843,0.03970624,0.1740966
83,0.83,-0.1685565822047187,0.051861323898406,0.9901049051606912,-0.16126843,0.03970624,0.1740966
84,0.84,-0.14204131,0.054668825,0.9723241,-0.1297963975838635,0.0208422696491719,0.1256854929384903
85,0.85,-0.14204131,0.054668825,0.9723241,0.03848451,-0.08002335,-0.13316862
86,0.86,-0.14204131,0.054668825,0.9723241,0.03848451,-0.08002335,-0.13316862
87,0.87,-0.14204131,0.054668825,0.9723241,0.03848451,-0.08002335,-0.13316862
88,0.88,-0.14204131,0.054668825,0.9723241,0.03848451,-0.08002335,-0.13316862
89,0.89,-0.1462247924684476,0.056760563377327,0.9745552935067356,0.03848451,-0.08002335,-0.13316862
90,0.9,-0.15668476,0.06199054,0.98013395,0.0345177641559254,-0.0667202387849677,-0.1307498727079345
91,0.91,-0.15668476,0.06199054,0.98013395,-0.0042233012769081,0.0632040675105047,-0.1071272735319945
92,0.92,-0.15668476,0.06199054,0.98013395,-0.01160644,0.087964594,-0.10262536
93,0.93,-0.15668476,0.06199054,0.98013395,-0.01160644,0.087964594,-0.10262536
94,0.94,-0.15668476,0.06199054,0.98013395,-0.01160644,0.087964594,-0.10262536
95,0.95,-0.15668476,0.06199054,0.98013395,-0.01160644,0.087964594,-0.10262536
96,0.96,-0.15668476,0.06199054,0.98013395,-0.0128160465145396,0.0856165340650869,-0.1017572893438418
97,0.97,-0.15668476,0.06199054,0.98013395,-0.0602829961268323,-0.0065252006870449,-0.0676927686914758
98,0.98,-0.1513675713454156,0.0632666624884091,0.9820480814446552,-0.06352998,-0.01282817,-0.06536258
99,0.99,-0.16184807200598,0.0592306008462694,0.973529785375167,-0.06352998,-0.01282817,-0.06536258
100,1.0,-0.16620298,0.05759751,0.9701275,-0.06352998,-0.01282817,-0.06536258
101,1.01,-0.16620298,0.05759751,0.9701275,-0.06352998,-0.01282817,-0.06536258
102,1.02,-0.16620298,0.05759751,0.9701275,-0.06352998,-0.01282817,-0.06536258
103,1.03,-0.16620298,0.05759751,0.9701275,-0.06352998,-0.01282817,-0.06536258
104,1.04,-0.16620298,0.05759751,0.9701275,-0.06352998,-0.01282817,-0.06536258
105,1.05,-0.16620298,0.05759751,0.9701275,-0.06352998,-0.01282817,-0.06536258
106,1.06,-0.1627404553197456,0.0560739984596942,0.9752520923682736,-0.06352998,-0.01282817,-0.06536258
107,1.07,-0.16010156,0.054912884,0.9791577,-0.0537461971387466,-0.0304389834212624,-0.0481866023612299
108,1.08,-0.16010156,0.054912884,0.9791577,-0.03604105,-0.062308256,-0.017104227
109,1.09,-0.16010156,0.054912884,0.9791577,-0.03604105,-0.062308256,-0.017104227
110,1.1,-0.16010156,0.054912884,0.9791577,-0.03604105,-0.062308256,-0.017104227
111,1.11,-0.16010156,0.054912884,0.9791577,-0.03604105,-0.062308256,-0.017104227
112,1.12,-0.16010156,0.054912884,0.9791577,-0.0266425048560098,-0.0302944628804106,-0.0558732237356561
113,1.13,-0.16010156,0.054912884,0.9791577,-0.016493361,0.004276057,-0.09773844
114,1.14,-0.1592785644980822,0.1339202847014537,0.9426716422668936,-0.016493361,0.004276057,-0.09773844
115,1.15,-0.1557764366505616,0.4701238453673701,0.7874109652211444,-0.016493361,0.004276057,-0.09773844
116,1.16,-0.15570852,0.47664383,0.7844,-0.016493361,0.004276057,-0.09773844
117,1.17,0.4193020319784967,0.420819545157712,0.430539500639987,-0.0001152368926677,0.0101619451874289,-0.1010652472775194
118,1.18,1.2168695,0.34338856,-0.06028214,0.022602014,0.018325957,-0.10567969
119,1.19,1.2168695,0.34338856,-0.06028214,0.022602014,0.018325957,-0.10567969
120,1.2,1.2168695,0.34338856,-0.06028214,0.022602014,0.018325957,-0.10567969
121,1.21,1.2168695,0.34338856,-0.06028214,0.022602014,0.018325957,-0.10567969
122,1.22,1.2168695,0.34338856,-0.06028214,0.022602014,0.018325957,-0.10567969
123,1.23,1.2168695,0.34338856,-0.06028214,0.022602014,0.018325957,-0.10567969
124,1.24,1.2168695,0.34338856,-0.06028214,0.022602014,0.018325957,-0.10567969
125,1.25,1.2168695,0.34338856,-0.06028214,0.022602014,0.018325957,-0.10567969
126,1.26,1.2168695,0.34338856,-0.06028214,0.022602014,0.018325957,-0.10567969
127,1.27,1.2168695,0.34338856,-0.06028214,0.022602014,0.018325957,-0.10567969
128,1.28,1.2168695,0.34338856,-0.06028214,-0.2069383417520394,-0.0860313673823781,0.9088291774508268
129,1.29,1.2168695,0.34338856,-0.06028214,-1.1836557118278748,-0.5300823103416822,5.225666753522162
130,1.3,1.2168695,0.34338856,-0.06028214,0.1811961495213676,0.1194794260320018,2.4425206488572013
131,1.31,1.2168695,0.34338856,-0.06028214,0.5516113,0.29565877,1.6749926
132,1.32,0.5160668491015107,0.206554778917436,0.4463792347101019,0.5516113,0.29565877,1.6749926
133,1.33,-0.191829,0.06833603,0.9581688,0.5516113,0.29565877,1.6749926
134,1.34,-0.191829,0.06833603,0.9581688,0.5516113,0.29565877,1.6749926
135,1.35,-0.191829,0.06833603,0.9581688,0.5516113,0.29565877,1.6749926
136,1.36,-0.191829,0.06833603,0.9581688,0.5516113,0.29565877,1.6749926
137,1.37,-0.191829,0.06833603,0.9581688,0.1948179318313966,0.1344774618367327,0.5803973705429918
138,1.38,-0.191829,0.06833603,0.9581688,-0.02443461,0.035430185,-0.092240654
139,1.39,-0.1899431158888022,0.07406911856349,0.9564337605305974,-0.02443461,0.035430185,-0.092240654
140,1.4,-0.1398061300504991,0.0817756904819173,0.9676544312852468,-0.0362269154532109,0.0513426956005591,-0.0635413045945967
141,1.41,-0.0319088204656742,0.0666270849028999,1.0027871089164972,-0.07513642,0.103847094,0.031154128
142,1.42,-0.20647243,0.073461235,0.9440134,-0.07513642,0.103847094,0.031154128
143,1.43,-0.20647243,0.073461235,0.9440134,-0.07513642,0.103847094,0.031154128
144,1.44,-0.20647243,0.073461235,0.9440134,-0.07513642,0.103847094,0.031154128
145,1.45,-0.2018038736914436,0.0765736052081712,0.9433325687056188,-0.07513642,0.103847094,0.031154128
146,1.46,-0.19475769,0.08127106,0.942305,-0.07513642,0.103847094,0.031154128
147,1.47,-0.1283444041923174,0.0945337364256185,0.8888296955488326,-0.07513642,0.103847094,0.031154128
148,1.48,1.063661647964061,0.3325763264716631,-0.0709614933900949,-0.07513642,0.103847094,0.031154128
149,1.49,0.0879973470891898,0.1333341739118557,0.7086508564065424,-0.07513642,0.103847094,0.031154128
150,1.5,-0.21501444,0.07150877,0.9508471,-0.07513642,0.103847094,0.031154128
151,1.51,-0.21501444,0.07150877,0.9508471,-0.07513642,0.103847094,0.031154128
152,1.52,-0.21501444,0.07150877,0.9508471,-0.07513642,0.103847094,0.031154128
153,1.53,-0.21501444,0.07150877,0.9508471,-0.07513642,0.103847094,0.031154128
154,1.54,-0.21501444,0.07150877,0.9508471,-0.07513642,0.103847094,0.031154128
155,1.55,-0.21501444,0.07150877,0.9508471,-0.07513642,0.103847094,0.031154128
156,1.56,-0.1969133252406164,0.065683123478589,1.0205467629168656,-0.0490982821378758,0.0809335259977278,0.0295918400863227
157,1.57,-0.19378147,0.06467517,1.0326062,-0.044593163,0.07696902,0.029321533
158,1.58,-0.19378147,0.06467517,1.0326062,-0.044593163,0.07696902,0.029321533
159,1.59,-0.19378147,0.06467517,1.0326062,-0.044593163,0.07696902,0.029321533
160,1.6,-0.1904628174128881,0.0698522591157212,1.0174067957358957,-0.044593163,0.07696902,0.029321533
161,1.61,-0.18157859,0.08371163,0.9767171,-0.044593163,0.07696902,0.029321533
162,1.62,-0.18157859,0.08371163,0.9767171,-0.044593163,0.07696902,0.029321533
163,1.63,-0.18157859,0.08371163,0.9767171,-0.0817587591345347,0.0937139623194408,0.0391234472591371
164,1.64,-0.18157859,0.08371163,0.9767171,-0.1001819,0.1020145,0.043982297
165,1.65,-0.18157859,0.08371163,0.9767171,-0.1001819,0.1020145,0.043982297
166,1.66,-0.18157859,0.08371163,0.9767171,-0.1001819,0.1020145,0.043982297
167,1.67,-0.18157859,0.08371163,0.9767171,-0.1001819,0.1020145,0.043982297
168,1.68,-0.18157859,0.08371163,0.9767171,-0.1001819,0.1020145,0.043982297
169,1.69,-0.18157859,0.08371163,0.9767171,-0.1001819,0.1020145,0.043982297
170,1.7,-0.18157859,0.08371163,0.9767171,-0.1001819,0.1020145,0.043982297
171,1.71,-0.18157859,0.08371163,0.9767171,-0.1001819,0.1020145,0.043982297
172,1.72,-0.18157859,0.08371163,0.9767171,-0.1001819,0.1020145,0.043982297
173,1.73,-0.18157859,0.08371163,0.9767171,-0.1001819,0.1020145,0.043982297
174,1.74,-0.18157859,0.08371163,0.9767171,-0.1001819,0.1020145,0.043982297
175,1.75,-0.18157859,0.08371163,0.9767171,-0.1001819,0.1020145,0.043982297
176,1.76,-0.18157859,0.08371163,0.9767171,-0.1001819,0.1020145,0.043982297
177,1.77,-0.1844246738625826,0.0742440339633756,0.9678884209091332,-0.1001819,0.1020145,0.043982297
178,1.78,-0.19353738,0.043930303,0.9396204,-0.1001819,0.1020145,0.043982297
179,1.79,-0.19353738,0.043930303,0.9396204,-0.1001819,0.1020145,0.043982297
180,1.8,-0.19353738,0.043930303,0.9396204,-0.1001819,0.1020145,0.043982297
181,1.81,-0.19353738,0.043930303,0.9396204,-0.1001819,0.1020145,0.043982297
182,1.82,-0.1960055544310742,0.0401086209353045,0.9385057237419278,-0.1001819,0.1020145,0.043982297
183,1.83,0.1973441848269163,0.0186780148093341,0.8239500388734288,-0.1117850025393457,0.09389944651226,0.0637716359251066
184,1.84,3.090551857081691,-0.0796208238588206,0.0088544264607539,-0.1960375013503285,0.0349743847015573,0.2074660701166442
185,1.85,3.218139,-0.08395569,-0.027090356,-0.164945839557349,0.0820339811402274,0.2156592076772971
186,1.86,1.0800762286146754,-0.0037210309034723,0.5713838224050207,-0.15393804,0.09773844,0.21624629
187,1.87,-0.19622204,0.044174362,0.92863786,-0.15393804,0.09773844,0.21624629
188,1.88,-0.19622204,0.044174362,0.92863786,-0.15393804,0.09773844,0.21624629
189,1.89,-0.19622204,0.044174362,0.92863786,-0.1542983554083573,0.0948859456796606,0.2141744789825121
190,1.9,-0.19622204,0.044174362,0.92863786,-0.1601276220734869,0.0487376276550891,0.1806562374070228
191,1.91,-0.19622204,0.044174362,0.92863786,-0.16126843,0.03970624,0.1740966
192,1.92,-0.19622204,0.044174362,0.92863786,-0.16126843,0.03970624,0.1740966
193,1.93,-0.19622204,0.044174362,0.92863786,-0.16126843,0.03970624,0.1740966
194,1.94,-0.19622204,0.044174362,0.92863786,-0.16126843,0.03970624,0.1740966
195,1.95,-0.19622204,0.044174362,0.92863786,-0.1620635949405363,0.0393881738750193,0.1747327321011952
196,1.96,-0.19622204,0.044174362,0.92863786,-0.1789436611959867,0.0326361442147749,0.1882367882636197
197,1.97,-0.19622204,0.044174362,0.92863786,-0.1826487,0.031154128,0.19120082
198,1.98,-0.158509483511358,0.2350688224875413,0.9047126728264446,-0.1826487,0.031154128,0.19120082
199,1.99,-0.1228259972926139,0.3938403620015748,0.8982031778365361,-0.1826487,0.031154128,0.19120082
200,2.0,-0.18060236,0.028798755,0.9884319,-0.1826487,0.031154128,0.19120082
201,2.01,-0.18060236,0.028798755,0.9884319,-0.1826487,0.031154128,0.19120082
202,2.02,-0.18060236,0.028798755,0.9884319,-0.1826487,0.031154128,0.19120082
203,2.03,-0.18060236,0.028798755,0.9884319,-0.1826487,0.031154128,0.19120082
204,2.04,-0.18060236,0.028798755,0.9884319,-0.1826487,0.031154128,0.19120082
205,2.05,-0.18060236,0.028798755,0.9884319,-0.1826487,0.031154128,0.19120082
206,2.06,-0.18060236,0.028798755,0.9884319,-0.1826487,0.031154128,0.19120082
207,2.07,-0.18060236,0.028798755,0.9884319,-0.1826487,0.031154128,0.19120082
208,2.08,-0.18060236,0.028798755,0.9884319,-0.173422326360829,0.0588332690558988,0.1925676961771323
209,2.09,-0.18060236,0.028798755,0.9884319,-0.16615535,0.080634214,0.19364429
210,2.1,-0.1815166728871855,0.071742899212578,0.9760886649011492,-0.16615535,0.080634214,0.19364429
211,2.11,-0.1877316771008081,0.3636539517332867,0.8921860324169555,-0.16615535,0.080634214,0.19364429
212,2.12,-0.18841219,0.3956168,0.8829991,-0.16615535,0.080634214,0.19364429
213,2.13,-0.18841219,0.3956168,0.8829991,-0.16615535,0.080634214,0.19364429
214,2.14,-0.18841219,0.3956168,0.8829991,-0.1768758260562098,0.0913546929021008,0.2098698717929596
215,2.15,0.067914889244111,0.4902652646372973,0.7714426879843443,-0.18875736,0.10323623,0.22785273
216,2.16,0.85127175,0.77951884,0.43051702,-0.18875736,0.10323623,0.22785273
217,2.17,0.85127175,0.77951884,0.43051702,-0.18875736,0.10323623,0.22785273
218,2.18,0.85127175,0.77951884,0.43051702,-0.18875736,0.10323623,0.22785273
219,2.19,0.85127175,0.77951884,0.43051702,-0.1561538409873175,0.110646119655475,0.2397085683284203
220,2.2,0.85127175,0.77951884,0.43051702,-0.14844026,0.112399206,0.24251351
221,2.21,0.85127175,0.77951884,0.43051702,-0.14844026,0.112399206,0.24251351
222,2.22,0.85127175,0.77951884,0.43051702,-0.14844026,0.112399206,0.24251351
223,2.23,0.85127175,0.77951884,0.43051702,-0.1438588251718374,0.112164981244838,0.2390282466352025
224,2.24,0.85127175,0.77951884,0.43051702,0.0984850484283229,0.0997752089162928,0.0546684868608862
225,2.25,0.85127175,0.77951884,0.43051702,0.0379714651792363,-0.1359088978211823,-0.1578411795840879
226,2.26,0.85127175,0.77951884,0.43051702,-0.004276057,-0.22357668,-0.22296582
227,2.27,0.85127175,0.77951884,0.43051702,-0.004276057,-0.22357668,-0.22296582
228,2.28,0.85127175,0.77951884,0.43051702,-0.004276057,-0.22357668,-0.22296582
229,2.29,0.8998562570768279,0.7112228973860603,0.4762789986757879,-0.004276057,-0.22357668,-0.22296582
230,2.3,1.5813522050205944,-0.2467657898059219,1.1181832787402612,-0.004276057,-0.22357668,-0.22296582
231,2.31,1.620052,-0.30116665,1.1546348,-0.004276057,-0.22357668,-0.22296582
232,2.32,1.620052,-0.30116665,1.1546348,-0.004276057,-0.22357668,-0.22296582
233,2.33,0.9804294922817132,-0.1886549453099476,1.0556766685363794,-0.004276057,-0.22357668,-0.22296582
234,2.34,-0.17669745,0.014887493,0.8766537,-0.004276057,-0.22357668,-0.22296582
235,2.35,-0.17669745,0.014887493,0.8766537,-0.004276057,-0.22357668,-0.22296582
236,2.36,-0.17669745,0.014887493,0.8766537,-0.004276057,-0.22357668,-0.22296582
237,2.37,-0.17669745,0.014887493,0.8766537,-0.004276057,-0.22357668,-0.22296582
238,2.38,-0.17669745,0.014887493,0.8766537,-0.004276057,-0.22357668,-0.22296582
239,2.39,-0.17669745,0.014887493,0.8766537,-0.004276057,-0.22357668,-0.22296582
240,2.4,-0.17669745,0.014887493,0.8766537,-0.0881814076156879,-0.1226250903259644,-0.0947402568862515
241,2.41,-0.1711252038141786,0.0134494940834101,0.8854100760412911,-0.27488935,0.1020145,0.19058995
242,2.42,-0.1288819086310972,0.0025479993036166,0.9517923150004256,-0.27488935,0.1020145,0.19058995
243,2.43,-0.1308016217828993,0.0074233438410346,1.0263876663071023,-0.27488935,0.1020145,0.19058995
244,2.44,-0.0878401290605425,0.2020505412167979,0.9585295336201924,-0.27488935,0.1020145,0.19058995
245,2.45,-0.03807293,0.41026023,0.85493255,-0.27488935,0.1020145,0.19058995
246,2.46,-0.0456141893346518,0.3743157076481015,0.866276664770072,-0.27488935,0.1020145,0.19058995
247,2.47,-0.12373702,0.0019524579,0.98379475,-0.27488935,0.1020145,0.19058995
248,2.48,-0.12373702,0.0019524579,0.98379475,-0.27488935,0.1020145,0.19058995
249,2.49,-0.12373702,0.0019524579,0.98379475,-0.27488935,0.1020145,0.19058995
250,2.5,-0.12373702,0.0019524579,0.98379475,-0.27488935,0.1020145,0.19058995
251,2.51,-0.12373702,0.0019524579,0.98379475,-0.2936038993409854,0.1060247573218877,0.2197311629509228
252,2.52,-0.12373702,0.0019524579,0.98379475,-0.31764993,0.111177474,0.25717425
253,2.53,-0.1172831292515597,0.003733682955229,0.9799028957404886,-0.303206152024531,0.1069328966237866,0.2598920031749335
254,2.54,-0.0143616664218983,0.0321392286111309,0.9178387317932488,-0.0728683889656532,0.0392437878859069,0.3032325466202533
255,2.55,0.0053692595,0.037584815,0.9059405,-0.028710667,0.026267206,0.3115413
256,2.56,-0.0656734967005528,0.0179775513710737,0.948781022733264,-0.028710667,0.026267206,0.3115413
257,2.57,-0.12373702,0.0019524579,0.98379475,-0.028710667,0.026267206,0.3115413
258,2.58,-0.12373702,0.0019524579,0.98379475,-0.0453197024271386,0.0346114588836083,0.2835681833880631
259,2.59,-0.12373702,0.0019524579,0.98379475,-0.1457379384724487,0.0850608157631062,0.1144427071264728
260,2.6,-0.12373702,0.0019524579,0.98379475,-0.1563815,0.09040806,0.096516706
261,2.61,-0.12373702,0.0019524579,0.98379475,-0.1563815,0.09040806,0.096516706
262,2.62,-0.12373702,0.0019524579,0.98379475,-0.1563815,0.09040806,0.096516706
263,2.63,-0.12373702,0.0019524579,0.98379475,-0.1563815,0.09040806,0.096516706
264,2.64,-0.12373702,0.0019524579,0.98379475,-0.1563815,0.09040806,0.096516706
265,2.65,-0.12373702,0.0019524579,0.98379475,-0.1563815,0.09040806,0.096516706
266,2.66,-0.1357180863854301,0.01318470339839,1.041828019929664,-0.1563815,0.09040806,0.096516706
267,2.67,-0.13935669,0.016595893,1.0594525,-0.1563815,0.09040806,0.096516706
268,2.68,-0.13935669,0.016595893,1.0594525,-0.1563815,0.09040806,0.096516706
269,2.69,-0.13935669,0.016595893,1.0594525,-0.1563815,0.09040806,0.096516706
270,2.7,-0.13935669,0.016595893,1.0594525,-0.1563815,0.09040806,0.096516706
271,2.71,-0.13935669,0.016595893,1.0594525,-0.1563815,0.09040806,0.096516706
272,2.72,-0.13935669,0.016595893,1.0594525,-0.1563815,0.09040806,0.096516706
273,2.73,-0.2835342914674987,-0.5516066605616922,0.3669746656897676,-0.1563815,0.09040806,0.096516706
274,2.74,-0.37096703,-0.89617825,-0.05296042,-0.1563815,0.09040806,0.096516706
275,2.75,-0.37096703,-0.89617825,-0.05296042,-0.1563815,0.09040806,0.096516706
276,2.76,-0.37096703,-0.89617825,-0.05296042,-0.1563815,0.09040806,0.096516706
277,2.77,-0.37096703,-0.89617825,-0.05296042,-0.1563815,0.09040806,0.096516706
278,2.78,-0.37096703,-0.89617825,-0.05296042,-0.1563815,0.09040806,0.096516706
279,2.79,-0.37096703,-0.89617825,-0.05296042,-0.1563815,0.09040806,0.096516706
280,2.8,-0.37096703,-0.89617825,-0.05296042,-0.0631699815632614,0.0154791838567107,0.1408746030947057
281,2.81,-0.37096703,-0.89617825,-0.05296042,0.03359759,-0.062308256,0.18692477
282,2.82,-0.37096703,-0.89617825,-0.05296042,0.03359759,-0.062308256,0.18692477
283,2.83,-0.37096703,-0.89617825,-0.05296042,0.03359759,-0.062308256,0.18692477
284,2.84,-0.37096703,-0.89617825,-0.05296042,0.03359759,-0.062308256,0.18692477
285,2.85,-0.1979955217820265,-0.1372674346912589,0.4369276006334606,0.03359759,-0.062308256,0.18692477
286,2.86,-0.051007964,0.50763905,0.85322416,0.03359759,-0.062308256,0.18692477
287,2.87,-0.0904875545648166,0.3860759994046208,0.877991208011935,0.03359759,-0.062308256,0.18692477
288,2.88,-0.22062775,-0.014643434,0.9596331,0.03359759,-0.062308256,0.18692477
289,2.89,-0.22062775,-0.014643434,0.9596331,0.03359759,-0.062308256,0.18692477
290,2.9,-0.22062775,-0.014643434,0.9596331,0.03359759,-0.062308256,0.18692477
291,2.91,-0.22062775,-0.014643434,0.9596331,-0.0021090039702255,0.0076573663806978,0.154113305569484
292,2.92,-0.22062775,-0.014643434,0.9596331,-0.05681047,0.11484267,0.103847094
293,2.93,-0.22062775,-0.014643434,0.9596331,-0.05681047,0.11484267,0.103847094
294,2.94,-0.22062775,-0.014643434,0.9596331,-0.05681047,0.11484267,0.103847094
295,2.95,-0.1873418315682402,-0.0169001073763723,0.9148757796331268,-0.05681047,0.11484267,0.103847094
296,2.96,-0.2108622793455221,-0.0085482612588072,0.9329091284257084,-0.05681047,0.11484267,0.103847094
297,2.97,-0.23258655,-0.0026846298,0.95328766,-0.0649397993695478,0.0308395643602768,0.1203767352643099
298,2.98,-0.23258655,-0.0026846298,0.95328766,-0.07513642,-0.07452556,0.14110987
299,2.99,-0.23258655,-0.0026846298,0.95328766,-0.07513642,-0.07452556,0.14110987
300,3.0,-0.23258655,-0.0026846298,0.95328766,-0.07513642,-0.07452556,0.14110987
301,3.01,-0.23258655,-0.0026846298,0.95328766,-0.07513642,-0.07452556,0.14110987
302,3.02,-0.23258655,-0.0026846298,0.95328766,-0.07513642,-0.07452556,0.14110987
303,3.03,-0.23258655,-0.0026846298,0.95328766,-0.07513642,-0.07452556,0.14110987
304,3.04,-0.23258655,-0.0026846298,0.95328766,-0.07513642,-0.07452556,0.14110987
305,3.05,-0.23258655,-0.0026846298,0.95328766,-0.07513642,-0.07452556,0.14110987
306,3.06,-0.23258655,-0.0026846298,0.95328766,-0.07513642,-0.07452556,0.14110987
307,3.07,-0.23258655,-0.0026846298,0.95328766,-0.07513642,-0.07452556,0.14110987
308,3.08,-0.1702168969828906,0.0117083676348002,0.980154549683374,-0.07513642,-0.07452556,0.14110987
309,3.09,-0.08981306,0.0302631,1.01479,-0.1756299107799019,-0.0399692480237792,0.1101025847748757
310,3.1,-0.08981306,0.0302631,1.01479,-0.40378192,0.03848451,0.03970624
311,3.11,-0.08981306,0.0302631,1.01479,-0.40378192,0.03848451,0.03970624
312,3.12,-0.08981306,0.0302631,1.01479,-0.40378192,0.03848451,0.03970624
313,3.13,-0.0808958901437028,0.1244145310604995,1.0693353593549202,-0.40378192,0.03848451,0.03970624
314,3.14,-0.0925513708220926,0.1641598609028449,1.0592385270266769,-0.40378192,0.03848451,0.03970624
315,3.15,-0.14570218,0.004881145,0.8851956,-0.40378192,0.03848451,0.03970624
316,3.16,-0.14570218,0.004881145,0.8851956,-0.40378192,0.03848451,0.03970624
317,3.17,-0.14570218,0.004881145,0.8851956,-0.40378192,0.03848451,0.03970624
318,3.18,-0.14570218,0.004881145,0.8851956,0.1715678603764407,-0.0911904810461208,-0.238231958275644
319,3.19,0.1474192835366118,0.3717834401295493,0.4220637103439504,0.3638591727510828,-0.1379937843236712,-0.3167176206385829
320,3.2,0.35461518,0.63113207,0.09469421,0.34513888,-0.13622294,-0.29749137
321,3.21,0.1853708969942895,0.5307329140254851,0.4048347788677019,0.1631084234987703,-0.108137037390527,-0.2465988664298664
322,3.22,-0.13496366,0.34070393,0.99184865,-0.18142697,-0.05497787,-0.15027285
323,3.23,-0.13496366,0.34070393,0.99184865,-0.18142697,-0.05497787,-0.15027285
324,3.24,-0.13496366,0.34070393,0.99184865,-0.18142697,-0.05497787,-0.15027285
325,3.25,-0.13496366,0.34070393,0.99184865,-0.18142697,-0.05497787,-0.15027285
326,3.26,-0.13496366,0.34070393,0.99184865,-0.18142697,-0.05497787,-0.15027285
327,3.27,-0.13496366,0.34070393,0.99184865,-0.18142697,-0.05497787,-0.15027285
328,3.28,-0.13496366,0.34070393,0.99184865,-0.18142697,-0.05497787,-0.15027285
329,3.29,-0.13496366,0.34070393,0.99184865,-0.18142697,-0.05497787,-0.15027285
330,3.3,-0.13496366,0.34070393,0.99184865,0.2979827632349266,-0.1152465285846716,-0.3178379719777907
331,3.31,-0.13496366,0.34070393,0.99184865,0.45998153,-0.13561209,-0.3744604
332,3.32,-0.1525425082907955,0.1737681103948226,0.9578291805236794,0.45998153,-0.13561209,-0.3744604
333,3.33,-0.1447792159601949,0.0221199655262236,0.95320761288163,0.45998153,-0.13561209,-0.3744604
334,3.34,-0.08981306,0.0302631,1.01479,0.45998153,-0.13561209,-0.3744604
335,3.35,-0.08981306,0.0302631,1.01479,0.45998153,-0.13561209,-0.3744604
336,3.36,-0.1442264507984048,-0.0157358441990091,0.929149708527922,0.45998153,-0.13561209,-0.3744604
337,3.37,-0.16083373,-0.029774986,0.9030118,0.45998153,-0.13561209,-0.3744604
338,3.38,-0.1677457317998026,-0.0211349820981746,0.9098278164161844,0.45998153,-0.13561209,-0.3744604
339,3.39,-0.17840585,-0.0078098318,0.9203399,0.45998153,-0.13561209,-0.3744604
340,3.4,-0.17840585,-0.0078098318,0.9203399,0.45998153,-0.13561209,-0.3744604
341,3.41,-0.17840585,-0.0078098318,0.9203399,0.45998153,-0.13561209,-0.3744604
342,3.42,-0.1683557480537103,-0.0202154304998375,0.9164140658576314,0.45998153,-0.13561209,-0.3744604
343,3.43,-0.16278619,-0.027090356,0.91423845,0.45998153,-0.13561209,-0.3744604
344,3.44,-0.16278619,-0.027090356,0.91423845,0.3911846331072954,-0.1122935622187384,-0.347665817607479
345,3.45,-0.16278619,-0.027090356,0.91423845,0.16982053,-0.03726278,-0.26145032
346,3.46,-0.16278619,-0.027090356,0.91423845,0.16982053,-0.03726278,-0.26145032
347,3.47,-0.16278619,-0.027090356,0.91423845,0.16982053,-0.03726278,-0.26145032
348,3.48,-0.16278619,-0.027090356,0.91423845,0.16982053,-0.03726278,-0.26145032
349,3.49,-0.16278619,-0.027090356,0.91423845,0.16982053,-0.03726278,-0.26145032
350,3.5,-0.1665218738669011,-0.0306703881263279,0.921346632535912,0.16982053,-0.03726278,-0.26145032
351,3.51,-0.1803073690153072,-0.0438814941157576,0.947577389568382,0.16982053,-0.03726278,-0.26145032
352,3.52,-0.1803583,-0.043930303,0.9476743,0.16982053,-0.03726278,-0.26145032
353,3.53,-0.1803583,-0.043930303,0.9476743,2.5157079728394725,-1.964632001869908,-1.6969068460931789
354,3.54,-0.1803583,-0.043930303,0.9476743,2.8415088138983444,-2.232444440658553,-1.900855392941568
355,3.55,-0.1802385358065699,-0.0451678522649128,0.949989711630009,0.124005646,0.0,-0.24617869
356,3.56,-0.1796577567338691,-0.0511691677993222,0.9612179642561416,0.124005646,0.0,-0.24617869
357,3.57,-0.17962612,-0.051496077,0.9618296,0.0121750126763341,-0.0497572418482797,-0.2220390356985871
358,3.58,-0.1802124049693818,-0.0526686367293432,0.9775125727924288,0.00845126563876,-0.0125384649042526,-0.0353854748176832
359,3.59,-0.18060236,-0.05344854,0.98794377,0.023823744,0.020158553,0.084910266
360,3.6,-0.18060236,-0.05344854,0.98794377,0.023823744,0.020158553,0.084910266
361,3.61,-0.18060236,-0.05344854,0.98794377,0.023823744,0.020158553,0.084910266
362,3.62,-0.18060236,-0.05344854,0.98794377,0.023823744,0.020158553,0.084910266
363,3.63,-0.18060236,-0.05344854,0.98794377,0.0501408733222446,-0.0207792006208984,-0.2265090670638568
364,3.64,-0.1855025265826214,0.0335293290006375,1.0185697161298055,0.05681047,-0.031154128,-0.30543262
365,3.65,-0.18743597,0.067847915,1.0306537,0.05681047,-0.031154128,-0.30543262
366,3.66,-0.18743597,0.067847915,1.0306537,0.05681047,-0.031154128,-0.30543262
367,3.67,-0.18743597,0.067847915,1.0306537,0.05681047,-0.031154128,-0.30543262
368,3.68,-0.18743597,0.067847915,1.0306537,0.05681047,-0.031154128,-0.30543262
369,3.69,-0.18743597,0.067847915,1.0306537,0.05681047,-0.031154128,-0.30543262
370,3.7,-0.18743597,0.067847915,1.0306537,0.05681047,-0.031154128,-0.30543262
371,3.71,-0.18743597,0.067847915,1.0306537,0.05681047,-0.031154128,-0.30543262
372,3.72,-0.18743597,0.067847915,1.0306537,0.05681047,-0.031154128,-0.30543262
373,3.73,-0.18743597,0.067847915,1.0306537,0.0541242986519063,-0.0284008025083686,-0.3073465175980795
374,3.74,-0.18743597,0.067847915,1.0306537,0.0089841530142449,0.0178678444148177,-0.3395088799783481
375,3.75,-0.18743597,0.067847915,1.0306537,0.007941248,0.018936822,-0.34025195
376,3.76,-0.2028184187338827,0.024079255316816,1.0016332253039084,0.007941248,0.018936822,-0.34025195
377,3.77,-0.2111095,0.00048811449,0.9859913,0.007941248,0.018936822,-0.34025195
378,3.78,-0.2111095,0.00048811449,0.9859913,0.007941248,0.018936822,-0.34025195
379,3.79,-0.2111095,0.00048811449,0.9859913,0.007941248,0.018936822,-0.34025195
380,3.8,-0.2111095,0.00048811449,0.9859913,0.007941248,0.018936822,-0.34025195
381,3.81,-0.2111095,0.00048811449,0.9859913,0.007941248,0.018936822,-0.34025195
382,3.82,-0.2111095,0.00048811449,0.9859913,0.007941248,0.018936822,-0.34025195
383,3.83,-0.2111095,0.00048811449,0.9859913,0.007941248,0.018936822,-0.34025195
384,3.84,-0.2111095,0.00048811449,0.9859913,0.007941248,0.018936822,-0.34025195
385,3.85,-0.2111095,0.00048811449,0.9859913,0.007941248,0.018936822,-0.34025195
386,3.86,-0.2111095,0.00048811449,0.9859913,0.007941248,0.018936822,-0.34025195
387,3.87,-0.2111095,0.00048811449,0.9859913,0.007941248,0.018936822,-0.34025195
388,3.88,-0.2111095,0.00048811449,0.9859913,0.1943617714478265,-0.0452873205857811,-0.2106669492023534
389,3.89,-0.2111095,0.00048811449,0.9859913,3.200728822490069,-0.597296215919824,-0.4829700079811516
390,3.9,-0.2111095,0.00048811449,0.9859913,4.564385,-0.84665924,-0.6114761
391,3.91,-0.2220406695278343,0.0140427561542298,0.9723273268928724,4.564385,-0.84665924,-0.6114761
392,3.92,-0.2190218978296693,0.0348393058129419,0.954849762345954,4.564385,-0.84665924,-0.6114761
393,3.93,-0.17840585,0.04490653,0.95328766,3.6892204668303488,-0.6813110089848042,-0.5104955765255345
394,3.94,-0.17840585,0.04490653,0.95328766,0.0804835942745956,0.0005016507619244,-0.0941028587442667
395,3.95,-0.17840585,0.04490653,0.95328766,0.037873644,0.008552114,-0.089186326
396,3.96,-0.17840585,0.04490653,0.95328766,0.0561335814672238,0.0655057372250006,-0.011798958754722
397,3.97,-0.1880079986457094,0.0372857839860454,0.9589269634138918,0.06352998,0.08857546,0.019547688
398,3.98,-0.19378147,0.032703668,0.9623177,0.06352998,0.08857546,0.019547688
399,3.99,-0.19378147,0.032703668,0.9623177,0.06352998,0.08857546,0.019547688
400,4.0,-0.19378147,0.032703668,0.9623177,0.06352998,0.08857546,0.019547688
401,4.01,-0.19378147,0.032703668,0.9623177,0.0634935347631051,0.0884922548218677,0.0194555434204431
402,4.02,-0.19378147,0.032703668,0.9623177,0.0335440044159568,0.0201168999106462,-0.0562659257449851
403,4.03,-0.19378147,0.032703668,0.9623177,0.031154128,0.014660766,-0.062308256
404,4.04,-0.19378147,0.032703668,0.9623177,0.0337942077240244,0.0407315528695659,-0.2048725535340478
405,4.05,0.0725025973608501,0.3077979881547885,0.5873462850584793,0.03604105,0.06291912,-0.32620203
406,4.06,0.5954997,0.84809893,-0.14911897,0.0421257897938636,0.0582034463360278,-0.2960065080756917
407,4.07,0.5954997,0.84809893,-0.14911897,0.0834675300410758,0.0261635954449244,-0.0908481173614867
408,4.08,0.5954997,0.84809893,-0.14911897,0.084910266,0.025045475,-0.08368854
409,4.09,0.5954997,0.84809893,-0.14911897,0.084910266,0.025045475,-0.08368854
410,4.1,0.5954997,0.84809893,-0.14911897,0.084910266,0.025045475,-0.08368854
411,4.11,0.4479135837687523,0.717841911545041,0.0215726059882871,0.084910266,0.025045475,-0.08368854
412,4.12,-0.2417696380600175,0.1091391253489151,0.819229723560077,0.084910266,0.025045475,-0.08368854
413,4.13,-0.2774931,0.0776102,0.8605459,0.084910266,0.025045475,-0.08368854
414,4.14,-0.2774931,0.0776102,0.8605459,0.084910266,0.025045475,-0.08368854
415,4.15,-0.2774931,0.0776102,0.8605459,0.084910266,0.025045475,-0.08368854
416,4.16,-0.2774931,0.0776102,0.8605459,0.084910266,0.025045475,-0.08368854
417,4.17,-0.2723022837292645,0.0705220512951757,0.8764763255194437,0.084910266,0.025045475,-0.08368854
418,4.18,-0.2429272143150278,0.0304098898618167,0.9666273405091704,0.084910266,0.025045475,-0.08368854
419,4.19,-0.2421048,0.029286869,0.9691513,0.084910266,0.025045475,-0.08368854
420,4.2,-0.2421048,0.029286869,0.9691513,0.084910266,0.025045475,-0.08368854
421,4.21,-0.2421048,0.029286869,0.9691513,0.084910266,0.025045475,-0.08368854
422,4.22,-0.2421048,0.029286869,0.9691513,0.084910266,0.025045475,-0.08368854
423,4.23,-0.2421048,0.029286869,0.9691513,0.084910266,0.025045475,-0.08368854
424,4.24,-0.2421048,0.029286869,0.9691513,0.084910266,0.025045475,-0.08368854
425,4.25,-0.2421048,0.029286869,0.9691513,0.084910266,0.025045475,-0.08368854
426,4.26,-0.2947612724025025,0.0663821817995118,0.9752028852712904,0.084910266,0.025045475,-0.08368854
427,4.27,-0.40562314,0.1444819,0.98794377,0.084910266,0.025045475,-0.08368854
428,4.28,-0.40562314,0.1444819,0.98794377,0.084910266,0.025045475,-0.08368854
429,4.29,-0.40562314,0.1444819,0.98794377,0.084910266,0.025045475,-0.08368854
430,4.3,-0.40562314,0.1444819,0.98794377,0.1026224450804748,0.1625563985504087,0.1951977651106633
431,4.31,-0.40562314,0.1444819,0.98794377,0.118507855,0.28588495,0.44532076
432,4.32,-0.40562314,0.1444819,0.98794377,0.118507855,0.28588495,0.44532076
433,4.33,-0.40562314,0.1444819,0.98794377,0.118507855,0.28588495,0.44532076
434,4.34,-0.40562314,0.1444819,0.98794377,0.118507855,0.28588495,0.44532076
435,4.35,-0.40562314,0.1444819,0.98794377,0.118507855,0.28588495,0.44532076
436,4.36,-0.3387013108137808,0.1210719752387212,0.9996487054466408,0.3405708807199321,0.1619032986231616,0.5094345512680379
437,4.37,-0.21306199,0.077122085,1.0216236,0.6744632260861909,-0.1341007932559069,-0.0852929829636597
438,4.38,-0.21306199,0.077122085,1.0216236,0.2901498514063189,-0.4268875318147699,-3.3959973027915065
439,4.39,-0.21306199,0.077122085,1.0216236,0.28038713,-0.4343252,-3.4800992
440,4.4,-0.1778405640744456,0.0307571694274433,1.0074952864096929,0.28038713,-0.4343252,-3.4800992
441,4.41,-0.16986385,0.020256752,1.0042956,0.28038713,-0.4343252,-3.4800992
442,4.42,-0.1617020730067331,0.0275269018378997,0.9940762467389144,0.2316332132037561,-0.2693515424600618,-2.4808155188411476
443,4.43,-0.1467516614847069,0.0408440669593015,0.9753568505990506,0.1423277690565103,0.0328405013253292,-0.6503682678448615
444,4.44,-0.14082102,0.04612682,0.9679311,0.106901415,0.15271631,0.07574729
445,4.45,-0.1559834293572137,0.0492613559036154,0.9836766586143324,0.0636593024583778,0.0828355941732887,0.0241121934345261
446,4.46,-0.19158493,0.05662128,1.0206474,-0.037873644,-0.08124508,-0.09712757
447,4.47,-0.19158493,0.05662128,1.0206474,-0.037873644,-0.08124508,-0.09712757
448,4.48,-0.19158493,0.05662128,1.0206474,-0.037873644,-0.08124508,-0.09712757
449,4.49,-0.19158493,0.05662128,1.0206474,-0.037873644,-0.08124508,-0.09712757
450,4.5,-0.19158493,0.05662128,1.0206474,-0.037873644,-0.08124508,-0.09712757
451,4.51,-0.19158493,0.05662128,1.0206474,-0.037873644,-0.08124508,-0.09712757
452,4.52,-0.19158493,0.05662128,1.0206474,-0.037873644,-0.08124508,-0.09712757
453,4.53,-0.19158493,0.05662128,1.0206474,-1.6684763811005192,0.1731996707289904,3.2266107922344505
454,4.54,-0.19158493,0.05662128,1.0206474,-2.3475552,0.27916542,4.6108108
455,4.55,-0.2225323850803273,0.0784022337299549,0.9976050179163254,-2.3475552,0.27916542,4.6108108
456,4.56,-0.281398,0.11983211,0.95377576,-2.0243123558409746,0.2555030867097458,3.977309523704
457,4.57,-0.281398,0.11983211,0.95377576,-0.2113473343546805,0.1227886790835199,0.4242048664929692
458,4.58,-0.281398,0.11983211,0.95377576,-0.03604105,0.10995574,0.080634214
459,4.59,-0.281398,0.11983211,0.95377576,-0.03604105,0.10995574,0.080634214
460,4.6,-0.281398,0.11983211,0.95377576,-0.03604105,0.10995574,0.080634214
461,4.61,-0.2468495200549043,0.1059961491798694,0.9604866027263268,0.2942998488256881,-0.3414894117595272,-0.2297991450105101
462,4.62,-0.17962612,0.07907455,0.97354436,0.9370673,-1.2198979,-0.8338311
463,4.63,-0.17962612,0.07907455,0.97354436,0.9370673,-1.2198979,-0.8338311
464,4.64,-0.17962612,0.07907455,0.97354436,0.9370673,-1.2198979,-0.8338311
465,4.65,-0.1868342368751218,0.0769274559021702,0.9603550389582112,0.9370673,-1.2198979,-0.8338311
466,4.66,-0.19109683,0.07565775,0.9525554,0.9370673,-1.2198979,-0.8338311
467,4.67,-0.19109683,0.07565775,0.9525554,0.9370673,-1.2198979,-0.8338311
468,4.68,-0.19109683,0.07565775,0.9525554,0.8991259907230614,-1.162057876073395,-0.7885471911228918
469,4.69,-0.19109683,0.07565775,0.9525554,0.2881682476044749,-0.2306769840175028,-0.0593537264165501
470,4.7,-0.19109683,0.07565775,0.9525554,0.0857931530989515,0.0669255221783723,0.1046797210493498
471,4.71,-0.19109683,0.07565775,0.9525554,0.0842994,0.06169739,0.053145275
472,4.72,-0.19109683,0.07565775,0.9525554,0.0842994,0.06169739,0.053145275
473,4.73,-0.19109683,0.07565775,0.9525554,0.0842994,0.06169739,0.053145275
474,4.74,-0.19109683,0.07565775,0.9525554,0.0842994,0.06169739,0.053145275
475,4.75,-0.19109683,0.07565775,0.9525554,0.0842994,0.06169739,0.053145275
476,4.76,-0.19109683,0.07565775,0.9525554,0.0842994,0.06169739,0.053145275
477,4.77,-0.2040942991210563,0.0798611857372433,0.9521682641520344,0.0842994,0.06169739,0.053145275
478,4.78,-0.24845028,0.094206095,0.9508471,0.0842994,0.06169739,0.053145275
479,4.79,-0.24845028,0.094206095,0.9508471,0.0842994,0.06169739,0.053145275
480,4.8,-0.198127703917882,0.0139179745650077,0.9304900415792756,0.0842994,0.06169739,0.053145275
481,4.81,-0.17303659,-0.026114125,0.9203399,0.0842994,0.06169739,0.053145275
482,4.82,-0.17303659,-0.026114125,0.9203399,0.0842994,0.06169739,0.053145275
483,4.83,-0.17303659,-0.026114125,0.9203399,0.0842994,0.06169739,0.053145275
484,4.84,-0.17303659,-0.026114125,0.9203399,0.0842994,0.06169739,0.053145275
485,4.85,-0.17303659,-0.026114125,0.9203399,0.0842994,0.06169739,0.053145275
486,4.86,-0.17303659,-0.026114125,0.9203399,0.0842994,0.06169739,0.053145275
487,4.87,-0.17303659,-0.026114125,0.9203399,0.0636749062707026,0.0766208056615236,0.0276580953087277
488,4.88,-0.17303659,-0.026114125,0.9203399,-0.1018098960723042,0.1583492279658329,0.342313056148012
489,4.89,-0.17303659,-0.026114125,0.9203399,-0.9373763595496628,0.4767313952974559,3.218714293215442
490,4.9,-0.17303659,-0.026114125,0.9203399,-1.0152581,0.50640726,3.4868188
491,4.91,-0.17303659,-0.026114125,0.9203399,-1.0152581,0.50640726,3.4868188
492,4.92,-0.2182395619895728,0.0404160834854088,0.93670416632569,-1.0152581,0.50640726,3.4868188
493,4.93,-0.25528386,0.09493827,0.95011485,-0.6348108191313345,-0.0912920251145919,2.100812317998574
494,4.94,-0.2543862482094237,0.0992468647059476,0.9476015230102794,-0.1022816879280432,-0.5691524484448082,0.1213765354272974
495,4.95,-0.2428153633430183,0.1025810611631671,0.9386623506163764,-0.092240654,0.03176499,0.017104227
496,4.96,-0.21257387,0.09030118,0.9247329,-0.092240654,0.03176499,0.017104227
497,4.97,-0.21257387,0.09030118,0.9247329,-0.092240654,0.03176499,0.017104227
498,4.98,-0.21257387,0.09030118,0.9247329,-0.1133577340566092,0.0060572375885734,0.0501570536761283
499,4.99,-0.21257387,0.09030118,0.9247329,-0.12034045,-0.002443461,0.061086524
500,5.0,-0.21257387,0.09030118,0.9247329,-0.12034045,-0.002443461,0.061086524
501,5.01,-0.21257387,0.09030118,0.9247329,-0.1004169828301176,0.0044119253419032,0.0493038289878792
502,5.02,-0.21257387,0.09030118,0.9247329,-0.06352998,0.017104227,0.027488936
503,5.03,-0.21257387,0.09030118,0.9247329,-0.06352998,0.017104227,0.027488936
504,5.04,-0.21257387,0.09030118,0.9247329,-0.06352998,0.017104227,0.027488936
505,5.05,-0.21257387,0.09030118,0.9247329,-0.06352998,0.017104227,0.027488936
506,5.06,-0.2312614153622331,0.0889169184309231,0.9436973351104444,-0.06352998,0.017104227,0.027488936
507,5.07,-0.24552159,0.08786061,0.9581688,-0.06352998,0.017104227,0.027488936
508,5.08,-0.24552159,0.08786061,0.9581688,-0.0707418654810078,0.0130174924319251,0.0259263610748041
509,5.09,-0.24552159,0.08786061,0.9581688,-0.1001819,-0.0036651916,0.019547688
510,5.1,-0.24552159,0.08786061,0.9581688,-0.1001819,-0.0036651916,0.019547688
511,5.11,-0.24552159,0.08786061,0.9581688,-0.1013918047937519,-0.0016486882208948,0.0155146810437261
512,5.12,-0.2453973887139646,0.0928288090274548,0.9535731946523038,-0.1020145,-0.00061086525,0.013439035
513,5.13,-0.24527754,0.0976229,0.94913864,-0.1020145,-0.00061086525,0.013439035
514,5.14,-0.24527754,0.0976229,0.94913864,-0.1020145,-0.00061086525,0.013439035
515,5.15,-0.24527754,0.0976229,0.94913864,-0.1020145,-0.00061086525,0.013439035
516,5.16,-0.24527754,0.0976229,0.94913864,-0.1020145,-0.00061086525,0.013439035
517,5.17,-0.24527754,0.0976229,0.94913864,-0.1020145,-0.00061086525,0.013439035
518,5.18,-0.24527754,0.0976229,0.94913864,-0.1020145,-0.00061086525,0.013439035
519,5.19,-0.24527754,0.0976229,0.94913864,-0.1020145,-0.00061086525,0.013439035
520,5.2,-0.24527754,0.0976229,0.94913864,-0.1020145,-0.00061086525,0.013439035
521,5.21,-0.24527754,0.0976229,0.94913864,-0.1020145,-0.00061086525,0.013439035
522,5.22,-0.24527754,0.0976229,0.94913864,-0.1020145,-0.00061086525,0.013439035
523,5.23,-0.24527754,0.0976229,0.94913864,-0.1020145,-0.00061086525,0.013439035
524,5.24,-0.24527754,0.0976229,0.94913864,-0.1020145,-0.00061086525,0.013439035
525,5.25,-0.24527754,0.0976229,0.94913864,-0.462418138176048,0.0912661687688181,-0.0512240957980502
526,5.26,-0.24527754,0.0976229,0.94913864,-1.919703804055079,0.4627693127900819,-0.3126883088114306
527,5.27,-0.24527754,0.0976229,0.94913864,-1.9303342,0.4654793,-0.3145956
528,5.28,-0.24527754,0.0976229,0.94913864,-1.9303342,0.4654793,-0.3145956
529,5.29,-0.24527754,0.0976229,0.94913864,-1.9303342,0.4654793,-0.3145956
530,5.3,-0.24527754,0.0976229,0.94913864,-1.9303342,0.4654793,-0.3145956
531,5.31,-0.24527754,0.0976229,0.94913864,-1.9303342,0.4654793,-0.3145956
532,5.32,-0.24527754,0.0976229,0.94913864,-1.9303342,0.4654793,-0.3145956
533,5.33,-0.2319755676910006,0.090247549177081,0.9504556598017286,-1.9303342,0.4654793,-0.3145956
534,5.34,-0.22062775,0.08395569,0.9515792,-1.9303342,0.4654793,-0.3145956
535,5.35,-0.22062775,0.08395569,0.9515792,-1.9303342,0.4654793,-0.3145956
536,5.36,-0.22062775,0.08395569,0.9515792,-1.452488892535757,0.3482252060349868,-0.2509345231404346
537,5.37,-0.22062775,0.08395569,0.9515792,-0.0436356627509209,0.0043929968685541,-0.0648063871075825
538,5.38,-0.22062775,0.08395569,0.9515792,-0.0095359554412761,0.0253399606205628,-0.0847790764653127
539,5.39,-0.22062775,0.08395569,0.9515792,-0.0030543262,0.029321533,-0.08857546
540,5.4,-0.22062775,0.08395569,0.9515792,-0.0030543262,0.029321533,-0.08857546
541,5.41,-0.22062775,0.08395569,0.9515792,-0.0067247777817942,0.023674683630438,-0.0888578027920187
542,5.42,-0.22062775,0.08395569,0.9515792,-0.010995574,0.017104227,-0.089186326
543,5.43,-0.2205646722368668,0.0838926120454184,0.9519529944709808,-0.010995574,0.017104227,-0.089186326
544,5.44,-0.2153124028367828,0.0786403267040779,0.9830775804476468,-0.010995574,0.017104227,-0.089186326
545,5.45,-0.21403822,0.07736614,0.9906283,-0.010995574,0.017104227,-0.089186326
546,5.46,-0.21403822,0.07736614,0.9906283,0.0291682381611128,-0.0427201938213214,-0.0700874487662005
547,5.47,-0.21403822,0.07736614,0.9906283,0.055393922779909,-0.1323739799908322,-0.0271633529136578
548,5.48,-0.21403822,0.07736614,0.9906283,-0.0036651916,-0.18692477,0.030543262
549,5.49,-0.21403822,0.07736614,0.9906283,-0.0036651916,-0.18692477,0.030543262
550,5.5,-0.21403822,0.07736614,0.9906283,0.0326594392876301,-0.1653694906103734,0.0145763917203457
551,5.51,-0.21403822,0.07736614,0.9906283,0.051923547,-0.15393804,0.0061086523
552,5.52,-0.21403822,0.07736614,0.9906283,0.051923547,-0.15393804,0.0061086523
553,5.53,-0.21403822,0.07736614,0.9906283,0.051923547,-0.15393804,0.0061086523
554,5.54,-0.21403822,0.07736614,0.9906283,0.051923547,-0.15393804,0.0061086523
555,5.55,-0.21403822,0.07736614,0.9906283,0.051923547,-0.15393804,0.0061086523
556,5.56,-0.21403822,0.07736614,0.9906283,0.0778909389957209,-0.1171509037600581,-0.0211571097560233
557,5.57,-0.21403822,0.07736614,0.9906283,0.0438153252066798,-0.0463205887862531,-0.0207587233637899
558,5.58,-0.21403822,0.07736614,0.9906283,0.008552114,-0.002443461,-0.01160644
559,5.59,-0.21403822,0.07736614,0.9906283,0.008552114,-0.002443461,-0.01160644
560,5.6,-0.21403822,0.07736614,0.9906283,0.008552114,-0.002443461,-0.01160644
561,5.61,-0.2142278760189973,0.0783713200479363,0.9912067529366814,0.008552114,-0.002443461,-0.01160644
562,5.62,-0.2174874316692258,0.095647019084902,1.001148433396488,0.008552114,-0.002443461,-0.01160644
563,5.63,-0.1937037534026955,0.0845893831032159,0.9809358805704586,0.008552114,-0.002443461,-0.01160644
564,5.64,-0.16083373,0.06028214,0.9488945,0.008552114,-0.002443461,-0.01160644
565,5.65,-0.16083373,0.06028214,0.9488945,0.008552114,-0.002443461,-0.01160644
566,5.66,-0.16083373,0.06028214,0.9488945,0.008552114,-0.002443461,-0.01160644
567,5.67,-0.16083373,0.06028214,0.9488945,0.008552114,-0.002443461,-0.01160644
568,5.68,-0.2115810847894423,0.0687946034942882,0.9438198134857404,0.008552114,-0.002443461,-0.01160644
569,5.69,-0.2070285593465711,0.1985840602206015,0.933457034936102,0.008552114,-0.002443461,-0.01160644
570,5.7,-0.17254847,0.34558508,0.9242448,-0.0253580321218215,0.0024008456596373,0.0088304790301199
571,5.71,-0.17254847,0.34558508,0.9242448,-0.1282817,0.017104227,0.07086037
572,5.72,-0.17254847,0.34558508,0.9242448,-0.1282817,0.017104227,0.07086037
573,5.73,-0.17254847,0.34558508,0.9242448,-0.1282817,0.017104227,0.07086037
574,5.74,-0.17254847,0.34558508,0.9242448,-0.0242839616271773,0.0577512283644315,-0.0653620186864411
575,5.75,-0.1180650842201834,0.4299506020646835,0.8791639747984431,0.04520403,0.084910266,-0.1563815
576,5.76,-0.06931226,0.50544256,0.83882475,0.04520403,0.084910266,-0.1563815
577,5.77,-0.06931226,0.50544256,0.83882475,0.04520403,0.084910266,-0.1563815
578,5.78,-0.06931226,0.50544256,0.83882475,0.04520403,0.084910266,-0.1563815
579,5.79,-0.06931226,0.50544256,0.83882475,0.04520403,0.084910266,-0.1563815
580,5.8,-0.06931226,0.50544256,0.83882475,0.0353915892521906,0.0518750555979408,-0.1423170065922409
581,5.81,-0.06931226,0.50544256,0.83882475,0.02687807,0.02321288,-0.1301143
582,5.82,-0.06931226,0.50544256,0.83882475,0.02687807,0.02321288,-0.1301143
583,5.83,-0.06931226,0.50544256,0.83882475,0.02687807,0.02321288,-0.1301143
584,5.84,-0.06931226,0.50544256,0.83882475,0.02687807,0.02321288,-0.1301143
585,5.85,-0.06931226,0.50544256,0.83882475,0.02687807,0.02321288,-0.1301143
586,5.86,-0.06931226,0.50544256,0.83882475,0.02687807,0.02321288,-0.1301143
587,5.87,-0.06931226,0.50544256,0.83882475,0.02687807,0.02321288,-0.1301143
588,5.88,-0.06931226,0.50544256,0.83882475,0.02687807,0.02321288,-0.1301143
589,5.89,-0.1698112578414864,0.2237408354532297,0.922066330376962,0.02687807,0.02321288,-0.1301143
590,5.9,-0.21428227,0.099087246,0.9589009,0.2482605354454719,0.1927964586853315,0.1796891875747498
591,5.91,-0.2224326571713658,0.1062188368621588,0.9712191226839212,0.43676865,0.3371976,0.44348818
592,5.92,-0.23575929,0.117879644,0.99136055,0.3715036775528218,0.2800764142128398,0.3500067145933335
593,5.93,-0.23575929,0.117879644,0.99136055,0.089186326,0.032986723,-0.054367006
594,5.94,-0.23575929,0.117879644,0.99136055,0.089186326,0.032986723,-0.054367006
595,5.95,-0.23575929,0.117879644,0.99136055,0.0953191841253406,0.0628844073022505,-0.0604998641253406
596,5.96,-0.23575929,0.117879644,0.99136055,0.09896017,0.080634214,-0.06414085
597,5.97,-0.23575929,0.117879644,0.99136055,0.0997594061838817,0.0730414669822032,-0.0612103164535215
598,5.98,-0.23575929,0.117879644,0.99136055,0.1025043558809903,0.0456501224502336,-0.0507043905501639
599,5.99,-0.23575929,0.117879644,0.99136055,0.0796344901467434,0.0145081807475553,-0.051190982387341
600,6.0,-0.23575929,0.117879644,0.99136055,0.07391469,0.0067195175,-0.05131268
601,6.01,-0.23575929,0.117879644,0.99136055,0.07391469,0.0067195175,-0.05131268
602,6.02,-0.23575929,0.117879644,0.99136055,0.07391469,0.0067195175,-0.05131268
603,6.03,-0.23575929,0.117879644,0.99136055,0.07391469,0.0067195175,-0.05131268
604,6.04,-0.23575929,0.117879644,0.99136055,0.07391469,0.0067195175,-0.05131268
605,6.05,-0.23575929,0.117879644,0.99136055,0.07391469,0.0067195175,-0.05131268
606,6.06,-0.23575929,0.117879644,0.99136055,0.07391469,0.0067195175,-0.05131268
607,6.07,-0.23575929,0.117879644,0.99136055,0.0810331399053726,0.0138379650217928,-0.0480770233597597
608,6.08,-0.23575929,0.117879644,0.99136055,0.08735373,0.020158553,-0.04520403
609,6.09,-0.23575929,0.117879644,0.99136055,0.0833310089089403,0.0181471930032436,-0.0480534560447012
610,6.1,-0.23575929,0.117879644,0.99136055,0.07269296,0.01282817,-0.055588737
611,6.11,-0.23575929,0.117879644,0.99136055,0.07269296,0.01282817,-0.055588737
612,6.12,-0.23575929,0.117879644,0.99136055,0.07269296,0.01282817,-0.055588737
613,6.13,-0.23575929,0.117879644,0.99136055,0.07269296,0.01282817,-0.055588737
614,6.14,-0.23575929,0.117879644,0.99136055,0.07269296,0.01282817,-0.055588737
615,6.15,-0.23575929,0.117879644,0.99136055,0.07269296,0.01282817,-0.055588737
616,6.16,-0.23575929,0.117879644,0.99136055,0.07269296,0.01282817,-0.055588737
617,6.17,-0.23575929,0.117879644,0.99136055,0.07269296,0.01282817,-0.055588737
618,6.18,-0.23575929,0.117879644,0.99136055,0.07269296,0.01282817,-0.055588737
619,6.19,-0.23575929,0.117879644,0.99136055,0.07269296,0.01282817,-0.055588737
620,6.2,-0.23575929,0.117879644,0.99136055,0.07269296,0.01282817,-0.055588737
621,6.21,-0.2055644576078785,0.0895936848337247,0.9580420718399856,0.07269296,0.01282817,-0.055588737
622,6.22,-0.19329333,0.07809832,0.9445015,0.07269296,0.01282817,-0.055588737
623,6.23,-0.19329333,0.07809832,0.9445015,0.07269296,0.01282817,-0.055588737
624,6.24,-0.19329333,0.07809832,0.9445015,0.07269296,0.01282817,-0.055588737
625,6.25,-0.19329333,0.07809832,0.9445015,0.07269296,0.01282817,-0.055588737
626,6.26,-0.19329333,0.07809832,0.9445015,0.07269296,0.01282817,-0.055588737
627,6.27,-0.19329333,0.07809832,0.9445015,0.07269296,0.01282817,-0.055588737
628,6.28,-0.19329333,0.07809832,0.9445015,0.07269296,0.01282817,-0.055588737
629,6.29,-0.19329333,0.07809832,0.9445015,0.07269296,0.01282817,-0.055588737
630,6.3,-0.19329333,0.07809832,0.9445015,0.07269296,0.01282817,-0.055588737
631,6.31,-0.19329333,0.07809832,0.9445015,0.07269296,0.01282817,-0.055588737
632,6.32,-0.19329333,0.07809832,0.9445015,0.07269296,0.01282817,-0.055588737
633,6.33,-0.19329333,0.07809832,0.9445015,0.07269296,0.01282817,-0.055588737
634,6.34,-0.19329333,0.07809832,0.9445015,0.0896735565699076,-0.214131964557784,0.1821395587054989
635,6.35,-0.209857389778718,0.0824076665976313,0.9354788560840182,0.09773844,-0.321926,0.2950479
636,6.36,-0.22331238,0.08590815,0.92814976,0.09773844,-0.321926,0.2950479
637,6.37,-0.22331238,0.08590815,0.92814976,0.09773844,-0.321926,0.2950479
638,6.38,-0.22331238,0.08590815,0.92814976,0.0788030082581639,-0.2868903858601065,0.211104196057095
639,6.39,-0.22331238,0.08590815,0.92814976,-0.0101965145519646,-0.1037504358838697,-0.2020763994869864
640,6.4,-0.22331238,0.08590815,0.92814976,0.0423566103622526,-0.0468630315747162,-0.1246011682736138
641,6.41,-0.22331238,0.08590815,0.92814976,-1.3627334318677755,-0.2476730673563596,-0.4622953462415547
642,6.42,-0.2046088881953292,0.4867536778063058,0.9375999101781152,-0.189456551717205,-0.0244391029418965,-0.2399314645265379
643,6.43,-0.20012695,0.58280873,0.93986446,0.13622294,0.035430185,-0.17592919
644,6.44,-0.20012695,0.58280873,0.93986446,0.13622294,0.035430185,-0.17592919
645,6.45,-0.20012695,0.58280873,0.93986446,0.13622294,0.035430185,-0.17592919
646,6.46,-0.20012695,0.58280873,0.93986446,0.13622294,0.035430185,-0.17592919
647,6.47,-0.1991303812824889,0.5644682076744092,0.941958169724166,0.13622294,0.035430185,-0.17592919
648,6.48,-0.1770946586319572,0.1589300283886229,0.9882534286278049,0.13622294,0.035430185,-0.17592919
649,6.49,0.6312868729181814,-0.6958457006220524,0.1633632354427988,0.13622294,0.035430185,-0.17592919
650,6.5,1.0372432,-1.0938646,-0.25650415,0.0668838175116229,-0.0062303600460096,-0.0894692915500125
651,6.51,1.0372432,-1.0938646,-0.25650415,-0.012217305,-0.05375614,0.009162978
652,6.52,0.9476633707585216,-1.0088943287557468,-0.1682388315129624,-0.012217305,-0.05375614,0.009162978
653,6.53,-0.0913762414930371,-0.0233211429825981,0.8555537239384204,-0.012217305,-0.05375614,0.009162978
654,6.54,-0.21013328,0.08932495,0.9725681,-0.012217305,-0.05375614,0.009162978
655,6.55,-0.21013328,0.08932495,0.9725681,0.1284147121931793,-0.0182312324539151,-0.0806636712005644
656,6.56,-0.21013328,0.08932495,0.9725681,1.7501386543506876,0.3914307652921565,-1.116516178757458
657,6.57,-0.21013328,0.08932495,0.9725681,1.9779817,0.44898596,-1.2620476
658,6.58,-0.21013328,0.08932495,0.9725681,1.9779817,0.44898596,-1.2620476
659,6.59,-0.21013328,0.08932495,0.9725681,1.083493684482162,0.2192511321798332,-0.6883822705404912
660,6.6,-0.21013328,0.08932495,0.9725681,-0.055588737,-0.073303826,0.0421497
661,6.61,-0.21013328,0.08932495,0.9725681,-0.055588737,-0.073303826,0.0421497
662,6.62,-0.21013328,0.08932495,0.9725681,-0.055588737,-0.073303826,0.0421497
663,6.63,-0.21013328,0.08932495,0.9725681,-0.055588737,-0.073303826,0.0421497
664,6.64,-0.21013328,0.08932495,0.9725681,-0.0679347875708616,-0.0768312712888013,0.0443543551100333
665,6.65,-0.21013328,0.08932495,0.9725681,0.0255515919580096,-0.2278499499404127,0.0416017284570416
666,6.66,-0.21013328,0.08932495,0.9725681,0.11056661,-0.35735616,0.03848451
667,6.67,-0.21013328,0.08932495,0.9725681,0.11056661,-0.35735616,0.03848451
668,6.68,-0.2093502812637391,0.0713159367596648,0.9746561037595092,0.11056661,-0.35735616,0.03848451
669,6.69,-0.20647243,0.0051252022,0.9823304,0.11056661,-0.35735616,0.03848451
670,6.7,-0.20647243,0.0051252022,0.9823304,0.11056661,-0.35735616,0.03848451
671,6.71,-0.20647243,0.0051252022,0.9823304,0.11056661,-0.35735616,0.03848451
672,6.72,-0.20647243,0.0051252022,0.9823304,0.3675004640499363,-0.4345999953531304,-0.0184664352815322
673,6.73,-0.20647243,0.0051252022,0.9823304,0.3801689799693353,-0.3674380911069007,-0.0320120645159516
674,6.74,-0.1756598666379882,0.0457684389487483,1.0037524781466876,-0.07269296,-0.07819075,0.04520403
675,6.75,-0.0154343537920005,0.2571135119074535,1.115147411990832,-0.07269296,-0.07819075,0.04520403
676,6.76,-0.0014643435,0.27554062,1.1248599,-0.07269296,-0.07819075,0.04520403
677,6.77,-0.0014643435,0.27554062,1.1248599,0.6371635545449117,0.2454893623779472,0.6586067808907725
678,6.78,-0.0014643435,0.27554062,1.1248599,1.1276573,0.46914452,1.0824533
679,6.79,-0.0014643435,0.27554062,1.1248599,1.0845252052018113,0.3811332156316386,0.850631951803987
680,6.8,-0.0014643435,0.27554062,1.1248599,0.8950947477640134,-0.0054007963193881,-0.1674967581065217
681,6.81,-0.0014643435,0.27554062,1.1248599,0.8863655,-0.02321288,-0.2144137
682,6.82,-0.0992413892861809,0.1108870774590933,1.0411149761300864,0.8863655,-0.02321288,-0.2144137
683,6.83,-0.16132185,0.006345488,0.98794377,0.8863655,-0.02321288,-0.2144137
684,6.84,0.0721154238728127,0.0927988977698097,0.7109533018699767,0.7762095964257167,-0.1261775949583833,-0.1946379393327288
685,6.85,0.71118283,0.32947728,-0.047347106,0.4746423,-0.408058,-0.14049901
686,6.86,0.71118283,0.32947728,-0.047347106,0.4746423,-0.408058,-0.14049901
687,6.87,0.71118283,0.32947728,-0.047347106,0.5903800218843257,-0.7153441819151387,0.0465008035908901
688,6.88,0.71118283,0.32947728,-0.047347106,0.61453044,-0.77946407,0.08552113
689,6.89,0.5337379514298783,0.2867657862191928,0.2490953573725685,0.61453044,-0.77946407,0.08552113
690,6.9,0.2101695656481012,0.2088819430316711,0.7896542628961827,0.61453044,-0.77946407,0.08552113
691,6.91,0.1470213883112531,0.1760079655443133,0.976975709619458,0.61453044,-0.77946407,0.08552113
692,6.92,0.16791138,0.16986385,0.9938011,0.61453044,-0.77946407,0.08552113
693,6.93,0.16791138,0.16986385,0.9938011,0.7599949612826485,-0.8424565302719336,-0.3334167156452732
694,6.94,0.16791138,0.16986385,0.9938011,0.96577793,-0.9315695,-0.9260717
695,6.95,0.16791138,0.16986385,0.9938011,0.9581687877541688,-0.9657039853372248,-0.9197426000812068
696,6.96,0.16791138,0.16986385,0.9938011,0.9010838343338096,-1.221786135276126,-0.8722607207333682
697,6.97,-0.4442151811902061,0.3855716223474378,0.7117053569079468,0.90041536,-1.2247849,-0.8717047
698,6.98,-0.53643787,0.41807005,0.66920495,0.90041536,-1.2247849,-0.8717047
699,6.99,-0.53643787,0.41807005,0.66920495,0.90041536,-1.2247849,-0.8717047
700,7.0,-0.53643787,0.41807005,0.66920495,0.6326379977915915,-1.0238143875565358,-1.8518138036695408
701,7.01,-0.53643787,0.41807005,0.66920495,0.30543262,-0.77824235,-3.0494392
702,7.02,-0.53643787,0.41807005,0.66920495,0.30543262,-0.77824235,-3.0494392
703,7.03,-0.53643787,0.41807005,0.66920495,0.30543262,-0.77824235,-3.0494392
704,7.04,-0.2078421190933203,0.4785778607789351,0.8099817264993809,0.30543262,-0.77824235,-3.0494392
705,7.05,-0.07785426,0.5025139,0.86567104,0.30543262,-0.77824235,-3.0494392
706,7.06,-0.07785426,0.5025139,0.86567104,0.30543262,-0.77824235,-3.0494392
707,7.07,-0.07785426,0.5025139,0.86567104,0.30543262,-0.77824235,-3.0494392
708,7.08,-0.07785426,0.5025139,0.86567104,0.30543262,-0.77824235,-3.0494392
709,7.09,-0.0125049365137355,0.2528761002628865,0.83123244710466,0.30543262,-0.77824235,-3.0494392
710,7.1,0.017084008,0.1398448,0.8156393,0.30543262,-0.77824235,-3.0494392
711,7.11,0.017084008,0.1398448,0.8156393,0.30543262,-0.77824235,-3.0494392
712,7.12,0.017084008,0.1398448,0.8156393,0.30543262,-0.77824235,-3.0494392
713,7.13,0.017084008,0.1398448,0.8156393,0.30543262,-0.77824235,-3.0494392
714,7.14,0.017084008,0.1398448,0.8156393,0.30543262,-0.77824235,-3.0494392
715,7.15,0.017084008,0.1398448,0.8156393,0.4386699749900419,-0.0901201733529967,-1.5310209369678551
716,7.16,0.017084008,0.1398448,0.8156393,0.1902467181900996,0.0568443153623163,-0.4291805365553008
717,7.17,0.017084008,0.1398448,0.8156393,-0.09162979,-0.12156218,-0.1282817
718,7.18,0.017084008,0.1398448,0.8156393,-0.09162979,-0.12156218,-0.1282817
719,7.19,0.017084008,0.1398448,0.8156393,-0.09162979,-0.12156218,-0.1282817
720,7.2,0.017084008,0.1398448,0.8156393,-0.09162979,-0.12156218,-0.1282817
721,7.21,0.017084008,0.1398448,0.8156393,-0.0544573060002423,0.0195927840249624,-0.0579553820753341
722,7.22,0.017084008,0.1398448,0.8156393,-0.04642576,0.05009095,-0.042760566
723,7.23,-0.1210493065926371,0.1517434125267255,0.9421475656200806,-0.04642576,0.05009095,-0.042760566
724,7.24,-0.2070688170106371,0.2001592504049548,1.028839928966813,-0.04642576,0.05009095,-0.042760566
725,7.25,-0.16815543,0.26821893,1.0069802,-0.04642576,0.05009095,-0.042760566
726,7.26,-0.16815543,0.26821893,1.0069802,-0.04642576,0.05009095,-0.042760566
727,7.27,-0.16815543,0.26821893,1.0069802,-0.04642576,0.05009095,-0.042760566
728,7.28,-0.16815543,0.26821893,1.0069802,0.1298430692394643,-0.8036820777118822,-0.0238635575140714
729,7.29,-0.16815543,0.26821893,1.0069802,0.30115658,-1.6334536,-0.005497787
730,7.3,-0.16815543,0.26821893,1.0069802,0.30115658,-1.6334536,-0.005497787
731,7.31,-0.16815543,0.26821893,1.0069802,0.30115658,-1.6334536,-0.005497787
732,7.32,-0.16815543,0.26821893,1.0069802,0.30115658,-1.6334536,-0.005497787
733,7.33,-0.16815543,0.26821893,1.0069802,0.30115658,-1.6334536,-0.005497787
734,7.34,-0.0851232194472175,0.2307243138658062,0.8651630362721896,0.30115658,-1.6334536,-0.005497787
735,7.35,0.003172744,0.19085276,0.7143555,0.5452125572172235,-1.3528224831261066,-0.001341520115524
736,7.36,0.003172744,0.19085276,0.7143555,1.1979067,-0.60231316,0.009773844
737,7.37,0.003172744,0.19085276,0.7143555,1.1979067,-0.60231316,0.009773844
738,7.38,0.003172744,0.19085276,0.7143555,1.1979067,-0.60231316,0.009773844
739,7.39,0.003172744,0.19085276,0.7143555,1.1979067,-0.60231316,0.009773844
740,7.4,-0.0698129081971651,0.2696514306855818,0.6889309043131939,1.021399251497244,-0.3123471040853833,-0.1707017258528201
741,7.41,-0.30019042,0.5183776,0.60867876,0.4642576,0.602924,-0.74036866
742,7.42,-0.30019042,0.5183776,0.60867876,0.4642576,0.602924,-0.74036866
743,7.43,-0.30019042,0.5183776,0.60867876,0.4642576,0.602924,-0.74036866
744,7.44,-0.30019042,0.5183776,0.60867876,0.2244199770461849,0.5034051749555826,-0.4048716815865371
745,7.45,-0.30019042,0.5183776,0.60867876,-0.06719518,0.38240165,0.0030543262
746,7.46,-0.30019042,0.5183776,0.60867876,-0.06719518,0.38240165,0.0030543262
747,7.47,-0.30019042,0.5183776,0.60867876,-0.06719518,0.38240165,0.0030543262
748,7.48,-0.30019042,0.5183776,0.60867876,-0.06719518,0.38240165,0.0030543262
749,7.49,-0.30019042,0.5183776,0.60867876,0.4357734926960809,0.6071935861474781,0.5795579450825608
750,7.5,-0.30019042,0.5183776,0.60867876,1.1068878,0.9071349,1.3487904
751,7.51,-0.2955659491199437,0.5072688174701112,0.6182292983213692,1.1068878,0.9071349,1.3487904
752,7.52,-0.1923407026637092,0.2593038406720456,0.8314118866829284,1.1068878,0.9071349,1.3487904
753,7.53,-0.1510384301879727,0.2734283072076418,0.8106388085073188,0.478265446504738,0.2661171524445125,0.3047460761467376
754,7.54,-0.14057697,0.33045352,0.75535715,0.022602014,-0.19853121,-0.45204028
755,7.55,-0.14057697,0.33045352,0.75535715,0.022602014,-0.19853121,-0.45204028
756,7.56,-0.14057697,0.33045352,0.75535715,0.022602014,-0.19853121,-0.45204028
757,7.57,-0.14057697,0.33045352,0.75535715,0.022602014,-0.19853121,-0.45204028
758,7.58,-0.14057697,0.33045352,0.75535715,0.022602014,-0.19853121,-0.45204028
759,7.59,-0.1303080062379588,0.294862199415886,0.9251452576606018,0.0354534180852309,-0.4692869395139964,-0.5262279080354686
760,7.6,-0.119099945,0.25601605,1.1104605,0.049480084,-0.7648033,-0.6072
761,7.61,-0.119099945,0.25601605,1.1104605,0.049480084,-0.7648033,-0.6072
762,7.62,-0.119099945,0.25601605,1.1104605,0.049480084,-0.7648033,-0.6072
763,7.63,-0.119099945,0.25601605,1.1104605,0.049480084,-0.7648033,-0.6072
764,7.64,-0.119099945,0.25601605,1.1104605,0.049480084,-0.7648033,-0.6072
765,7.65,-0.119099945,0.25601605,1.1104605,0.049480084,-0.7648033,-0.6072
766,7.66,-0.119099945,0.25601605,1.1104605,0.1985874823780009,-0.3685226178742028,-0.6239775508124565
767,7.67,-0.119099945,0.25601605,1.1104605,0.43493605,0.25961772,-0.65057147
768,7.68,-0.119099945,0.25601605,1.1104605,0.43493605,0.25961772,-0.65057147
769,7.69,-0.119099945,0.25601605,1.1104605,0.43493605,0.25961772,-0.65057147
770,7.7,-0.119099945,0.25601605,1.1104605,0.4835914287486965,0.1956706711062852,-0.6245061066112676
771,7.71,-0.119099945,0.25601605,1.1104605,0.5204572,0.14721853,-0.6047566
772,7.72,-0.119099945,0.25601605,1.1104605,0.5204572,0.14721853,-0.6047566
773,7.73,-0.119099945,0.25601605,1.1104605,0.5204572,0.14721853,-0.6047566
774,7.74,-0.119099945,0.25601605,1.1104605,0.5204572,0.14721853,-0.6047566
775,7.75,-0.1265689345842543,0.2790088501547356,1.0113131819928582,0.5204572,0.14721853,-0.6047566
776,7.76,-0.13154685,0.29433304,0.9452337,0.5204572,0.14721853,-0.6047566
777,7.77,-0.13154685,0.29433304,0.9452337,0.3439527086357644,0.2217714854164298,0.3322745694804261
778,7.78,-0.13154685,0.29433304,0.9452337,-0.22724187,0.46303585,3.3646457
779,7.79,-0.13154685,0.29433304,0.9452337,-0.22724187,0.46303585,3.3646457
780,7.8,-0.3240457120442799,0.2286469080034838,0.8848195935306601,-0.22724187,0.46303585,3.3646457
781,7.81,-0.4612682,0.18182266,0.8417535,-0.22724187,0.46303585,3.3646457
782,7.82,-0.4612682,0.18182266,0.8417535,-0.1582185221535406,0.4661088079960027,1.848968629942843
783,7.83,-0.4612682,0.18182266,0.8417535,-0.04886922,0.4709771,-0.5522222
784,7.84,-0.4612682,0.18182266,0.8417535,-0.04886922,0.4709771,-0.5522222
785,7.85,-0.4612682,0.18182266,0.8417535,-0.04886922,0.4709771,-0.5522222
786,7.86,-0.4612682,0.18182266,0.8417535,-0.04886922,0.4709771,-0.5522222
787,7.87,-0.4612682,0.18182266,0.8417535,0.6880384494986176,0.2236719706391291,0.6403895380332169
788,7.88,-0.4612682,0.18182266,0.8417535,1.119716,0.07880162,1.3390167
789,7.89,-0.4612682,0.18182266,0.8417535,0.802524756841309,-0.0550736322519478,0.8473381567838294
790,7.9,-0.4612682,0.18182266,0.8417535,-0.08735373,-0.43066,-0.5320636
791,7.91,-0.4612682,0.18182266,0.8417535,-0.08735373,-0.43066,-0.5320636
792,7.92,-0.4612682,0.18182266,0.8417535,-0.08735373,-0.43066,-0.5320636
793,7.93,-0.4612682,0.18182266,0.8417535,-0.08735373,-0.43066,-0.5320636
794,7.94,-0.4612682,0.18182266,0.8417535,-0.08735373,-0.43066,-0.5320636
795,7.95,-0.4612682,0.18182266,0.8417535,-0.08735373,-0.43066,-0.5320636
796,7.96,-0.4612682,0.18182266,0.8417535,-0.08735373,-0.43066,-0.5320636
797,7.97,-0.4612682,0.18182266,0.8417535,-0.08735373,-0.43066,-0.5320636
798,7.98,-0.4612682,0.18182266,0.8417535,-0.08735373,-0.43066,-0.5320636
799,7.99,-0.4612682,0.18182266,0.8417535,-0.08735373,-0.43066,-0.5320636
800,8.0,-0.4612682,0.18182266,0.8417535,-0.08735373,-0.43066,-0.5320636
801,8.01,-0.4612682,0.18182266,0.8417535,-0.08735373,-0.43066,-0.5320636
802,8.02,-0.4612682,0.18182266,0.8417535,-0.08735373,-0.43066,-0.5320636
803,8.03,-0.4612682,0.18182266,0.8417535,-0.08735373,-0.43066,-0.5320636
804,8.04,-0.4612682,0.18182266,0.8417535,-0.08735373,-0.43066,-0.5320636
805,8.05,-0.4612682,0.18182266,0.8417535,-0.08735373,-0.43066,-0.5320636
806,8.06,-0.4612682,0.18182266,0.8417535,-0.08735373,-0.43066,-0.5320636
807,8.07,-0.4612682,0.18182266,0.8417535,-0.08735373,-0.43066,-0.5320636
808,8.08,-0.4612682,0.18182266,0.8417535,-0.08735373,-0.43066,-0.5320636
809,8.09,-0.4612682,0.18182266,0.8417535,-0.08735373,-0.43066,-0.5320636
810,8.1,-0.4612682,0.18182266,0.8417535,-0.08735373,-0.43066,-0.5320636
811,8.11,-0.4612682,0.18182266,0.8417535,-0.08735373,-0.43066,-0.5320636
812,8.12,-0.4612682,0.18182266,0.8417535,-0.08735373,-0.43066,-0.5320636
813,8.13,-0.4612682,0.18182266,0.8417535,-0.08735373,-0.43066,-0.5320636
814,8.14,-0.4612682,0.18182266,0.8417535,-0.08735373,-0.43066,-0.5320636
815,8.15,-0.4612682,0.18182266,0.8417535,-0.08735373,-0.43066,-0.5320636
816,8.16,-0.4612682,0.18182266,0.8417535,-0.08735373,-0.43066,-0.5320636
817,8.17,-0.4612682,0.18182266,0.8417535,-0.08735373,-0.43066,-0.5320636
818,8.18,-0.4612682,0.18182266,0.8417535,-0.08735373,-0.43066,-0.5320636
819,8.19,-0.4612682,0.18182266,0.8417535,-0.08735373,-0.43066,-0.5320636
820,8.2,-0.4612682,0.18182266,0.8417535,-0.08735373,-0.43066,-0.5320636
821,8.21,-0.4612682,0.18182266,0.8417535,-0.08735373,-0.43066,-0.5320636
822,8.22,-0.4612682,0.18182266,0.8417535,-0.08735373,-0.43066,-0.5320636
823,8.23,-0.4612682,0.18182266,0.8417535,-0.08735373,-0.43066,-0.5320636
824,8.24,-0.4612682,0.18182266,0.8417535,-0.08735373,-0.43066,-0.5320636
825,8.25,-0.4612682,0.18182266,0.8417535,-0.08735373,-0.43066,-0.5320636
826,8.26,-0.4612682,0.18182266,0.8417535,-0.08735373,-0.43066,-0.5320636
827,8.27,-0.4612682,0.18182266,0.8417535,-0.08735373,-0.43066,-0.5320636
828,8.28,-0.4612682,0.18182266,0.8417535,-0.08735373,-0.43066,-0.5320636
829,8.29,-0.4612682,0.18182266,0.8417535,-0.08735373,-0.43066,-0.5320636
830,8.3,-0.4612682,0.18182266,0.8417535,-0.08735373,-0.43066,-0.5320636
831,8.31,-0.4612682,0.18182266,0.8417535,-0.08735373,-0.43066,-0.5320636
832,8.32,-0.4612682,0.18182266,0.8417535,-0.08735373,-0.43066,-0.5320636
833,8.33,-0.4612682,0.18182266,0.8417535,-0.08735373,-0.43066,-0.5320636
834,8.34,-0.4612682,0.18182266,0.8417535,-0.08735373,-0.43066,-0.5320636
835,8.35,-0.4612682,0.18182266,0.8417535,-0.08735373,-0.43066,-0.5320636
836,8.36,-0.4612682,0.18182266,0.8417535,-0.08735373,-0.43066,-0.5320636
837,8.37,-0.4612682,0.18182266,0.8417535,-0.08735373,-0.43066,-0.5320636
838,8.38,-0.4612682,0.18182266,0.8417535,-0.08735373,-0.43066,-0.5320636
839,8.39,-0.4612682,0.18182266,0.8417535,-0.08735373,-0.43066,-0.5320636
840,8.4,-0.4612682,0.18182266,0.8417535,-0.08735373,-0.43066,-0.5320636
841,8.41,-0.4612682,0.18182266,0.8417535,-0.08735373,-0.43066,-0.5320636
842,8.42,-0.4612682,0.18182266,0.8417535,-0.08735373,-0.43066,-0.5320636
843,8.43,-0.4612682,0.18182266,0.8417535,-0.08735373,-0.43066,-0.5320636
844,8.44,-0.4612682,0.18182266,0.8417535,-0.08735373,-0.43066,-0.5320636
845,8.45,-0.4612682,0.18182266,0.8417535,-0.08735373,-0.43066,-0.5320636
846,8.46,-0.4612682,0.18182266,0.8417535,-0.08735373,-0.43066,-0.5320636
847,8.47,-0.4612682,0.18182266,0.8417535,-0.08735373,-0.43066,-0.5320636
848,8.48,-0.4612682,0.18182266,0.8417535,-0.08735373,-0.43066,-0.5320636
849,8.49,-0.4612682,0.18182266,0.8417535,-0.08735373,-0.43066,-0.5320636
850,8.5,-0.4612682,0.18182266,0.8417535,-0.08735373,-0.43066,-0.5320636
851,8.51,-0.4612682,0.18182266,0.8417535,-0.08735373,-0.43066,-0.5320636
852,8.52,-0.4612682,0.18182266,0.8417535,-0.08735373,-0.43066,-0.5320636
853,8.53,-0.4612682,0.18182266,0.8417535,-0.08735373,-0.43066,-0.5320636
854,8.54,-0.4612682,0.18182266,0.8417535,-0.08735373,-0.43066,-0.5320636
855,8.55,-0.4612682,0.18182266,0.8417535,-0.08735373,-0.43066,-0.5320636
856,8.56,-0.4612682,0.18182266,0.8417535,-0.08735373,-0.43066,-0.5320636
857,8.57,-0.4612682,0.18182266,0.8417535,-0.08735373,-0.43066,-0.5320636
858,8.58,-0.4612682,0.18182266,0.8417535,-0.08735373,-0.43066,-0.5320636
859,8.59,-0.4612682,0.18182266,0.8417535,-0.08735373,-0.43066,-0.5320636
860,8.6,-0.4612682,0.18182266,0.8417535,-0.08735373,-0.43066,-0.5320636
861,8.61,-0.4612682,0.18182266,0.8417535,-0.08735373,-0.43066,-0.5320636
862,8.62,-0.4612682,0.18182266,0.8417535,-0.08735373,-0.43066,-0.5320636
863,8.63,-0.4612682,0.18182266,0.8417535,-0.08735373,-0.43066,-0.5320636
864,8.64,-0.4612682,0.18182266,0.8417535,-0.08735373,-0.43066,-0.5320636
865,8.65,-0.4612682,0.18182266,0.8417535,-0.08735373,-0.43066,-0.5320636
866,8.66,-0.4612682,0.18182266,0.8417535,-0.08735373,-0.43066,-0.5320636
867,8.67,-0.4612682,0.18182266,0.8417535,-0.08735373,-0.43066,-0.5320636
868,8.68,-0.4612682,0.18182266,0.8417535,-0.08735373,-0.43066,-0.5320636
869,8.69,-0.4612682,0.18182266,0.8417535,-0.08735373,-0.43066,-0.5320636
870,8.7,-0.4612682,0.18182266,0.8417535,-0.08735373,-0.43066,-0.5320636
871,8.71,-0.4612682,0.18182266,0.8417535,-0.08735373,-0.43066,-0.5320636
872,8.72,-0.4612682,0.18182266,0.8417535,-0.08735373,-0.43066,-0.5320636
873,8.73,-0.4612682,0.18182266,0.8417535,-0.08735373,-0.43066,-0.5320636
874,8.74,-0.4612682,0.18182266,0.8417535,-0.08735373,-0.43066,-0.5320636
875,8.75,-0.4612682,0.18182266,0.8417535,-0.08735373,-0.43066,-0.5320636
876,8.76,-0.4612682,0.18182266,0.8417535,-0.08735373,-0.43066,-0.5320636
877,8.77,-0.4612682,0.18182266,0.8417535,-0.08735373,-0.43066,-0.5320636
878,8.78,-0.4612682,0.18182266,0.8417535,-0.08735373,-0.43066,-0.5320636
879,8.79,-0.4612682,0.18182266,0.8417535,-0.08735373,-0.43066,-0.5320636
880,8.8,-0.4612682,0.18182266,0.8417535,-0.08735373,-0.43066,-0.5320636
881,8.81,-0.4612682,0.18182266,0.8417535,-0.08735373,-0.43066,-0.5320636
882,8.82,-0.4612682,0.18182266,0.8417535,-0.08735373,-0.43066,-0.5320636
883,8.83,-0.4612682,0.18182266,0.8417535,-0.08735373,-0.43066,-0.5320636
884,8.84,-0.4612682,0.18182266,0.8417535,-0.08735373,-0.43066,-0.5320636
885,8.85,-0.4612682,0.18182266,0.8417535,-0.08735373,-0.43066,-0.5320636
886,8.86,-0.4612682,0.18182266,0.8417535,-0.08735373,-0.43066,-0.5320636
887,8.87,-0.4612682,0.18182266,0.8417535,-0.08735373,-0.43066,-0.5320636
888,8.88,-0.4612682,0.18182266,0.8417535,-0.08735373,-0.43066,-0.5320636
889,8.89,-0.4612682,0.18182266,0.8417535,-0.08735373,-0.43066,-0.5320636
890,8.9,-0.4612682,0.18182266,0.8417535,-0.08735373,-0.43066,-0.5320636
891,8.91,-0.4612682,0.18182266,0.8417535,-0.08735373,-0.43066,-0.5320636
892,8.92,-0.4612682,0.18182266,0.8417535,-0.08735373,-0.43066,-0.5320636
893,8.93,-0.4612682,0.18182266,0.8417535,-0.08735373,-0.43066,-0.5320636
894,8.94,-0.4612682,0.18182266,0.8417535,-0.08735373,-0.43066,-0.5320636
895,8.95,-0.4612682,0.18182266,0.8417535,-0.08735373,-0.43066,-0.5320636
896,8.96,-0.4612682,0.18182266,0.8417535,-0.08735373,-0.43066,-0.5320636
897,8.97,-0.4612682,0.18182266,0.8417535,-0.08735373,-0.43066,-0.5320636
898,8.98,-0.4612682,0.18182266,0.8417535,-0.08735373,-0.43066,-0.5320636
899,8.99,-0.4612682,0.18182266,0.8417535,-0.08735373,-0.43066,-0.5320636
900,9.0,-0.4612682,0.18182266,0.8417535,-0.08735373,-0.43066,-0.5320636
901,9.01,-0.4612682,0.18182266,0.8417535,-0.08735373,-0.43066,-0.5320636
902,9.02,-0.4612682,0.18182266,0.8417535,-0.08735373,-0.43066,-0.5320636
903,9.03,-0.4612682,0.18182266,0.8417535,-0.08735373,-0.43066,-0.5320636
904,9.04,-0.4612682,0.18182266,0.8417535,-0.08735373,-0.43066,-0.5320636
905,9.05,-0.4612682,0.18182266,0.8417535,-0.08735373,-0.43066,-0.5320636
906,9.06,-0.4612682,0.18182266,0.8417535,-0.08735373,-0.43066,-0.5320636
907,9.07,-0.4612682,0.18182266,0.8417535,-0.08735373,-0.43066,-0.5320636
908,9.08,-0.4612682,0.18182266,0.8417535,-0.08735373,-0.43066,-0.5320636
909,9.09,-0.4612682,0.18182266,0.8417535,-0.08735373,-0.43066,-0.5320636
910,9.1,-0.4612682,0.18182266,0.8417535,-0.08735373,-0.43066,-0.5320636
911,9.11,-0.4612682,0.18182266,0.8417535,-0.08735373,-0.43066,-0.5320636
912,9.12,-0.4612682,0.18182266,0.8417535,-0.08735373,-0.43066,-0.5320636
913,9.13,-0.4612682,0.18182266,0.8417535,-0.08735373,-0.43066,-0.5320636
914,9.14,-0.4612682,0.18182266,0.8417535,-0.08735373,-0.43066,-0.5320636
915,9.15,-0.4612682,0.18182266,0.8417535,-0.08735373,-0.43066,-0.5320636
916,9.16,-0.4612682,0.18182266,0.8417535,-0.08735373,-0.43066,-0.5320636
917,9.17,-0.4612682,0.18182266,0.8417535,-0.08735373,-0.43066,-0.5320636
918,9.18,-0.4612682,0.18182266,0.8417535,-0.08735373,-0.43066,-0.5320636
919,9.19,-0.4612682,0.18182266,0.8417535,-0.08735373,-0.43066,-0.5320636
920,9.2,-0.4612682,0.18182266,0.8417535,-0.08735373,-0.43066,-0.5320636
921,9.21,-0.4612682,0.18182266,0.8417535,-0.08735373,-0.43066,-0.5320636
922,9.22,-0.4612682,0.18182266,0.8417535,-0.08735373,-0.43066,-0.5320636
923,9.23,-0.4612682,0.18182266,0.8417535,-0.08735373,-0.43066,-0.5320636
924,9.24,-0.4612682,0.18182266,0.8417535,-0.08735373,-0.43066,-0.5320636
925,9.25,-0.4612682,0.18182266,0.8417535,-0.08735373,-0.43066,-0.5320636
926,9.26,-0.4612682,0.18182266,0.8417535,-0.08735373,-0.43066,-0.5320636
927,9.27,-0.4612682,0.18182266,0.8417535,-0.08735373,-0.43066,-0.5320636
928,9.28,-0.4612682,0.18182266,0.8417535,-0.08735373,-0.43066,-0.5320636
929,9.29,-0.4612682,0.18182266,0.8417535,-0.08735373,-0.43066,-0.5320636
930,9.3,-0.4612682,0.18182266,0.8417535,-0.08735373,-0.43066,-0.5320636
931,9.31,-0.4612682,0.18182266,0.8417535,-0.08735373,-0.43066,-0.5320636
932,9.32,-0.4612682,0.18182266,0.8417535,-0.08735373,-0.43066,-0.5320636
933,9.33,-0.4612682,0.18182266,0.8417535,-0.08735373,-0.43066,-0.5320636
934,9.34,-0.4612682,0.18182266,0.8417535,-0.08735373,-0.43066,-0.5320636
935,9.35,-0.4612682,0.18182266,0.8417535,-0.08735373,-0.43066,-0.5320636
936,9.36,-0.4612682,0.18182266,0.8417535,-0.08735373,-0.43066,-0.5320636
937,9.37,-0.4612682,0.18182266,0.8417535,-0.08735373,-0.43066,-0.5320636
938,9.38,-0.4612682,0.18182266,0.8417535,-0.08735373,-0.43066,-0.5320636
939,9.39,-0.4612682,0.18182266,0.8417535,-0.08735373,-0.43066,-0.5320636
940,9.4,-0.4612682,0.18182266,0.8417535,-0.08735373,-0.43066,-0.5320636
941,9.41,-0.4612682,0.18182266,0.8417535,-0.08735373,-0.43066,-0.5320636
942,9.42,-0.4612682,0.18182266,0.8417535,-0.08735373,-0.43066,-0.5320636
943,9.43,-0.4612682,0.18182266,0.8417535,-0.08735373,-0.43066,-0.5320636
944,9.44,-0.4612682,0.18182266,0.8417535,-0.08735373,-0.43066,-0.5320636
945,9.45,-0.4612682,0.18182266,0.8417535,-0.08735373,-0.43066,-0.5320636
946,9.46,-0.4612682,0.18182266,0.8417535,-0.08735373,-0.43066,-0.5320636
947,9.47,-0.4612682,0.18182266,0.8417535,-0.08735373,-0.43066,-0.5320636
948,9.48,-0.4612682,0.18182266,0.8417535,-0.08735373,-0.43066,-0.5320636
949,9.49,-0.4612682,0.18182266,0.8417535,-0.08735373,-0.43066,-0.5320636
950,9.5,-0.4612682,0.18182266,0.8417535,-0.08735373,-0.43066,-0.5320636
951,9.51,-0.4612682,0.18182266,0.8417535,-0.08735373,-0.43066,-0.5320636
952,9.52,-0.4612682,0.18182266,0.8417535,-0.08735373,-0.43066,-0.5320636
953,9.53,-0.4612682,0.18182266,0.8417535,-0.08735373,-0.43066,-0.5320636
954,9.54,-0.4612682,0.18182266,0.8417535,-0.08735373,-0.43066,-0.5320636
955,9.55,-0.4612682,0.18182266,0.8417535,-0.08735373,-0.43066,-0.5320636
956,9.56,-0.4612682,0.18182266,0.8417535,-0.08735373,-0.43066,-0.5320636
957,9.57,-0.4612682,0.18182266,0.8417535,-0.08735373,-0.43066,-0.5320636
958,9.58,-0.4612682,0.18182266,0.8417535,-0.08735373,-0.43066,-0.5320636
959,9.59,-0.4612682,0.18182266,0.8417535,-0.08735373,-0.43066,-0.5320636
960,9.6,-0.4612682,0.18182266,0.8417535,-0.08735373,-0.43066,-0.5320636
961,9.61,-0.4612682,0.18182266,0.8417535,-0.08735373,-0.43066,-0.5320636
962,9.62,-0.4612682,0.18182266,0.8417535,-0.08735373,-0.43066,-0.5320636
963,9.63,-0.4612682,0.18182266,0.8417535,-0.08735373,-0.43066,-0.5320636
964,9.64,-0.4612682,0.18182266,0.8417535,-0.08735373,-0.43066,-0.5320636
965,9.65,-0.4612682,0.18182266,0.8417535,-0.08735373,-0.43066,-0.5320636
966,9.66,-0.4612682,0.18182266,0.8417535,-0.08735373,-0.43066,-0.5320636
967,9.67,-0.4612682,0.18182266,0.8417535,-0.08735373,-0.43066,-0.5320636
968,9.68,-0.4612682,0.18182266,0.8417535,-0.08735373,-0.43066,-0.5320636
969,9.69,-0.4612682,0.18182266,0.8417535,-0.08735373,-0.43066,-0.5320636
970,9.7,-0.4612682,0.18182266,0.8417535,-0.08735373,-0.43066,-0.5320636
971,9.71,-0.4612682,0.18182266,0.8417535,-0.08735373,-0.43066,-0.5320636
972,9.72,-0.4612682,0.18182266,0.8417535,-0.08735373,-0.43066,-0.5320636
973,9.73,-0.4612682,0.18182266,0.8417535,-0.08735373,-0.43066,-0.5320636
974,9.74,-0.4612682,0.18182266,0.8417535,-0.08735373,-0.43066,-0.5320636
975,9.75,-0.4612682,0.18182266,0.8417535,-0.08735373,-0.43066,-0.5320636
976,9.76,-0.4612682,0.18182266,0.8417535,-0.08735373,-0.43066,-0.5320636
977,9.77,-0.4612682,0.18182266,0.8417535,-0.08735373,-0.43066,-0.5320636
978,9.78,-0.4612682,0.18182266,0.8417535,-0.08735373,-0.43066,-0.5320636
979,9.79,-0.4612682,0.18182266,0.8417535,-0.08735373,-0.43066,-0.5320636
980,9.8,-0.4612682,0.18182266,0.8417535,-0.08735373,-0.43066,-0.5320636
981,9.81,-0.4612682,0.18182266,0.8417535,-0.08735373,-0.43066,-0.5320636
982,9.82,-0.4612682,0.18182266,0.8417535,-0.08735373,-0.43066,-0.5320636
983,9.83,-0.4612682,0.18182266,0.8417535,-0.08735373,-0.43066,-0.5320636
984,9.84,-0.4612682,0.18182266,0.8417535,-0.08735373,-0.43066,-0.5320636
985,9.85,-0.4612682,0.18182266,0.8417535,-0.08735373,-0.43066,-0.5320636
986,9.86,-0.4612682,0.18182266,0.8417535,-0.08735373,-0.43066,-0.5320636
987,9.87,-0.4612682,0.18182266,0.8417535,-0.08735373,-0.43066,-0.5320636
988,9.88,-0.4612682,0.18182266,0.8417535,-0.08735373,-0.43066,-0.5320636
989,9.89,-0.4612682,0.18182266,0.8417535,-0.08735373,-0.43066,-0.5320636
990,9.9,-0.4612682,0.18182266,0.8417535,-0.08735373,-0.43066,-0.5320636
991,9.91,-0.4612682,0.18182266,0.8417535,-0.08735373,-0.43066,-0.5320636
992,9.92,-0.4612682,0.18182266,0.8417535,-0.08735373,-0.43066,-0.5320636
993,9.93,-0.4612682,0.18182266,0.8417535,-0.08735373,-0.43066,-0.5320636
994,9.94,-0.4612682,0.18182266,0.8417535,-0.08735373,-0.43066,-0.5320636
995,9.95,-0.4612682,0.18182266,0.8417535,-0.08735373,-0.43066,-0.5320636
996,9.96,-0.4612682,0.18182266,0.8417535,-0.08735373,-0.43066,-0.5320636
997,9.97,-0.4612682,0.18182266,0.8417535,-0.08735373,-0.43066,-0.5320636
998,9.98,-0.4612682,0.18182266,0.8417535,-0.08735373,-0.43066,-0.5320636
999,9.99,-0.4612682,0.18182266,0.8417535,-0.08735373,-0.43066,-0.5320636
