id,timestamp,acc_x,acc_y,acc_z,gyro_x,gyro_y,gyro_z
1,0.01,-0.01415532,0.20574026,0.9813542,0.010995574,-0.004886922,-0.032986723
2,0.02,-0.01415532,0.20574026,0.9813542,0.010995574,-0.004886922,-0.032986723
3,0.03,-0.01415532,0.20574026,0.9813542,0.010995574,-0.004886922,-0.032986723
4,0.04,-0.0092248414450267,0.2093148670736277,0.9737119526235966,0.0480179280685054,0.0379973082724703,0.005269710614903
5,0.05,-0.0043930304,0.21281794,0.96622264,0.055665838372872,0.0468561384265113,0.0131725514853228
6,0.06,-0.0043930304,0.21281794,0.96622264,0.010995574,-0.004886922,-0.032986723
7,0.07,-0.0043930304,0.21281794,0.96622264,0.006128659683393,-0.004886922,-0.0270617838131305
8,0.08,-0.0043930304,0.21281794,0.96622264,-0.017104227,-0.004886922,0.0012217305
9,0.09,-0.0043930304,0.21281794,0.96622264,-0.017104227,-0.004886922,0.0012217305
10,0.1,-0.0043930304,0.21281794,0.96622264,-0.017104227,-0.004886922,0.0012217305
11,0.11,-0.0043930304,0.21281794,0.96622264,-0.017104227,-0.004886922,0.0012217305
12,0.12,-0.0043930304,0.21281794,0.96622264,-0.017104227,-0.004886922,0.0012217305
13,0.13,-0.0043930304,0.21281794,0.96622264,-0.0123577449035411,-0.0073850704933442,-0.0051485479024325
14,0.14,-0.0043930304,0.21281794,0.96622264,0.0061086523,-0.017104227,-0.029932396
15,0.15,-0.0043930304,0.21281794,0.96622264,0.0061086523,-0.017104227,-0.029932396
16,0.16,-0.0043930304,0.21281794,0.96622264,0.0061086523,-0.017104227,-0.029932396
17,0.17,-0.013182580281066,0.209610925064254,0.9577893857123676,0.0061086523,-0.017104227,-0.029932396
18,0.18,-0.022453265,0.20622836,0.9488945,0.0075932826080266,-0.0053921443500378,-0.0239938755240094
19,0.19,-0.022453265,0.20622836,0.9488945,0.01160644,0.026267206,-0.007941248
20,0.2,-0.022453265,0.20622836,0.9488945,0.01160644,0.026267206,-0.007941248
21,0.21,-0.022453265,0.20622836,0.9488945,0.01160644,0.026267206,-0.007941248
22,0.22,-0.022453265,0.20622836,0.9488945,0.01160644,0.026267206,-0.007941248
23,0.23,-0.022453265,0.20622836,0.9488945,0.01160644,0.026267206,-0.007941248
24,0.24,-0.0198482366142115,0.2074306835261129,0.9494288845615886,0.01160644,0.026267206,-0.007941248
25,0.25,-0.0034168016,0.21501444,0.95279956,0.0080371229203109,0.0218007362745383,-0.0072273845840621
26,0.26,-0.0034168016,0.21501444,0.95279956,-0.1838962220105605,-0.2183753128970329,0.0311592844021121
27,0.27,-0.0034168016,0.21501444,0.95279956,-0.2144137,-0.2565634,0.03726278
28,0.28,-0.0034168016,0.21501444,0.95279956,-0.2144137,-0.2565634,0.03726278
29,0.29,-0.0034168016,0.21501444,0.95279956,-0.2144137,-0.2565634,0.03726278
30,0.3,-0.0034168016,0.21501444,0.95279956,-0.2144137,-0.2565634,0.03726278
31,0.31,-0.0034168016,0.21501444,0.95279956,-0.2144137,-0.2565634,0.03726278
32,0.32,-0.0109067976360748,0.2080237751779868,0.9645338655757424,-0.2144137,-0.2565634,0.03726278
33,0.33,-0.0165956517445506,0.2043577632653208,0.968906182587954,-0.2144137,-0.2565634,0.03726278
34,0.34,-0.013667206,0.21037734,0.95524013,-0.2144137,-0.2565634,0.03726278
35,0.35,-0.013667206,0.21037734,0.95524013,-0.2008189116577038,-0.2409989123748646,0.0353317020857722
36,0.36,-0.013667206,0.21037734,0.95524013,-0.0122834166066258,-0.0251471973105279,0.008551091650786
37,0.37,-0.013667206,0.21037734,0.95524013,0.00061086525,-0.01038471,0.0067195175
38,0.38,-0.0175504978299989,0.2060742358356699,0.9630067024790158,0.00061086525,-0.01038471,0.0067195175
39,0.39,-0.022697324,0.200371,0.97330034,0.0001555143992474,-0.0105364935547992,0.0052522759319156
40,0.4,-0.022697324,0.200371,0.97330034,-0.0042143601585087,-0.0119931178112528,-0.0088284303802782
41,0.41,-0.022697324,0.200371,0.97330034,-0.004886922,-0.012217305,-0.010995574
42,0.42,-0.022697324,0.200371,0.97330034,-0.004886922,-0.012217305,-0.010995574
43,0.43,-0.022697324,0.200371,0.97330034,-0.004886922,-0.012217305,-0.010995574
44,0.44,-0.022697324,0.200371,0.97330034,-0.004886922,-0.012217305,-0.010995574
45,0.45,-0.022697324,0.200371,0.97330034,-0.004886922,-0.012217305,-0.010995574
46,0.46,-0.022697324,0.200371,0.97330034,-0.004886922,-0.012217305,-0.010995574
47,0.47,-0.022697324,0.200371,0.97330034,-0.004886922,-0.012217305,-0.010995574
48,0.48,-0.022697324,0.200371,0.97330034,-0.004886922,-0.012217305,-0.010995574
49,0.49,-0.022697324,0.200371,0.97330034,-0.004886922,-0.012217305,-0.010995574
50,0.5,-0.022697324,0.200371,0.97330034,-0.0053606386237113,-0.0110433115739536,-0.0113457123843091
51,0.51,-0.022697324,0.200371,0.97330034,-0.0166949884793814,0.0170461654530843,-0.0197232755666325
52,0.52,-0.0237335338482006,0.2025914440425785,0.965306753577474,-0.018936822,0.022602014,-0.021380283
53,0.53,-0.0171847303438274,0.207296135495382,0.9675400919830754,-0.018936822,0.022602014,-0.021380283
54,0.54,-0.0065895454,0.21208574,0.9784255,-0.018936822,0.022602014,-0.021380283
55,0.55,-0.0065895454,0.21208574,0.9784255,-0.018936822,0.022602014,-0.021380283
56,0.56,-0.0065895454,0.21208574,0.9784255,-0.018936822,0.022602014,-0.021380283
57,0.57,-0.0065895454,0.21208574,0.9784255,-0.018936822,0.022602014,-0.021380283
58,0.58,-0.0065895454,0.21208574,0.9784255,-0.018936822,0.022602014,-0.021380283
59,0.59,-0.0065895454,0.21208574,0.9784255,-0.018936822,0.022602014,-0.021380283
60,0.6,-0.0065895454,0.21208574,0.9784255,-0.018936822,0.022602014,-0.021380283
61,0.61,-0.0065895454,0.21208574,0.9784255,-0.018936822,0.022602014,-0.021380283
62,0.62,-0.0065895454,0.21208574,0.9784255,-0.018936822,0.022602014,-0.021380283
63,0.63,-0.0065895454,0.21208574,0.9784255,-0.018936822,0.022602014,-0.021380283
64,0.64,-0.0065895454,0.21208574,0.9784255,-0.018936822,0.022602014,-0.021380283
65,0.65,-0.0945781537486495,0.2672690061166963,0.9464403075186428,-0.018936822,0.022602014,-0.021380283
66,0.66,-0.18987654,0.3270367,0.9117979,-0.018936822,0.022602014,-0.021380283
67,0.67,-0.1783414589336971,0.3192930950239999,0.9143362640378196,-0.018936822,0.022602014,-0.021380283
68,0.68,-0.014643434,0.20940112,0.950359,-0.018936822,0.022602014,-0.021380283
69,0.69,-0.014643434,0.20940112,0.950359,-0.018936822,0.022602014,-0.021380283
70,0.7,-0.014643434,0.20940112,0.950359,-0.018936822,0.022602014,-0.021380283
71,0.71,-0.014643434,0.20940112,0.950359,-0.018936822,0.022602014,-0.021380283
72,0.72,-0.014643434,0.20940112,0.950359,-0.018936822,0.022602014,-0.021380283
73,0.73,-0.014643434,0.20940112,0.950359,-0.018936822,0.022602014,-0.021380283
74,0.74,-0.014643434,0.20940112,0.950359,-0.018936822,0.022602014,-0.021380283
75,0.75,-0.0230170821643357,0.2060516490688057,0.9534990673468964,-0.018936822,0.022602014,-0.021380283
76,0.76,-0.024405725,0.20549619,0.9540198,-0.018936822,0.022602014,-0.021380283
77,0.77,-0.024405725,0.20549619,0.9540198,-0.018936822,0.022602014,-0.021380283
78,0.78,-0.024405725,0.20549619,0.9540198,-0.0149164269321209,0.0219834916546042,-0.017669149054192
79,0.79,-0.024405725,0.20549619,0.9540198,-0.0030543262,0.020158553,-0.0067195175
80,0.8,-0.024405725,0.20549619,0.9540198,-0.0030543262,0.020158553,-0.0067195175
81,0.81,-0.024405725,0.20549619,0.9540198,-0.0030543262,0.020158553,-0.0067195175
82,0.82,-0.024405725,0.20549619,0.9540198,-0.0030543262,0.020158553,-0.0067195175
83,0.83,-0.0241866135066263,0.204948411827683,0.9562109171782044,0.0016073038657064,0.0202956601547993,-0.0098729734191835
84,0.84,-0.0234323488344059,0.203062752078709,0.9637535716267176,0.0176543985177782,0.020767634863116,-0.0207283619641785
85,0.85,-0.023429496,0.20305562,0.9637821,0.017715093,0.02076942,-0.02076942
86,0.86,-0.023429496,0.20305562,0.9637821,0.017715093,0.02076942,-0.02076942
87,0.87,-0.0198131949453205,0.205948657998797,0.957996012148462,0.017715093,0.02076942,-0.02076942
88,0.88,-0.017328065,0.20793676,0.9540198,0.017715093,0.02076942,-0.02076942
89,0.89,-0.017328065,0.20793676,0.9540198,0.017715093,0.02076942,-0.02076942
90,0.9,-0.017328065,0.20793676,0.9540198,0.017715093,0.02076942,-0.02076942
91,0.91,-0.017328065,0.20793676,0.9540198,0.017715093,0.02076942,-0.02076942
92,0.92,-0.017328065,0.20793676,0.9540198,0.017715093,0.02076942,-0.02076942
93,0.93,-0.017328065,0.20793676,0.9540198,-0.0023925089074301,0.0173364130926973,0.007185051512341
94,0.94,-0.017328065,0.20793676,0.9540198,-0.007330383,0.016493361,0.014049901
95,0.95,-0.017328065,0.20793676,0.9540198,-0.007330383,0.016493361,0.014049901
96,0.96,-0.0184020883976955,0.2064496541173494,0.9640990856168712,-0.007330383,0.016493361,0.014049901
97,0.97,-0.020500809,0.20354374,0.98379475,-0.007330383,0.016493361,0.014049901
98,0.98,-0.0209697336824599,0.2037782013805441,0.9802192034392004,-0.007330383,0.016493361,0.014049901
99,0.99,-0.024405725,0.20549619,0.9540198,-0.007330383,0.016493361,0.014049901
100,1.0,-0.024405725,0.20549619,0.9540198,-0.007330383,0.016493361,0.014049901
101,1.01,-0.024405725,0.20549619,0.9540198,-0.004111671356811,0.0192522570382666,-0.0015838410841123
102,1.02,-0.024405725,0.20549619,0.9540198,-0.0126208221030369,0.0198396699215563,-0.0143727142537507
103,1.03,-0.024405725,0.20549619,0.9540198,-0.021380283,0.019547688,-0.021380283
104,1.04,-0.024405725,0.20549619,0.9540198,-0.0183808749608181,0.0192947258626714,-0.0208743587845006
105,1.05,-0.024405725,0.20549619,0.9540198,0.0219389456136778,0.0158942588851904,-0.0140734256247729
106,1.06,-0.024405725,0.20549619,0.9540198,0.029321533,0.015271631,-0.01282817
107,1.07,-0.024405725,0.20549619,0.9540198,0.0127314214858752,0.020715261095245,-0.0089398628618563
108,1.08,-0.024405725,0.20549619,0.9540198,-0.009773844,0.028099801,-0.0036651916
109,1.09,-0.024405725,0.20549619,0.9540198,-0.009773844,0.028099801,-0.0036651916
110,1.1,-0.024405725,0.20549619,0.9540198,-0.009773844,0.028099801,-0.0036651916
111,1.11,-0.019944384493161,0.2072807324178986,0.9523468243299,-0.009773844,0.028099801,-0.0036651916
112,1.12,-0.014643434,0.20940112,0.950359,-0.009773844,0.028099801,-0.0036651916
113,1.13,-0.014643434,0.20940112,0.950359,-0.009773844,0.028099801,-0.0036651916
114,1.14,-0.014643434,0.20940112,0.950359,-0.009773844,0.028099801,-0.0036651916
115,1.15,-0.014643434,0.20940112,0.950359,-0.009773844,0.028099801,-0.0036651916
116,1.16,-0.014643434,0.20940112,0.950359,-0.009773844,0.028099801,-0.0036651916
117,1.17,-0.014643434,0.20940112,0.950359,-0.009773844,0.028099801,-0.0036651916
118,1.18,-0.014643434,0.20940112,0.950359,-0.009773844,0.028099801,-0.0036651916
119,1.19,-0.014643434,0.20940112,0.950359,-0.009773844,0.028099801,-0.0036651916
120,1.2,-0.014643434,0.20940112,0.950359,-0.009773844,0.028099801,-0.0036651916
121,1.21,-0.014643434,0.20940112,0.950359,-0.009773844,0.028099801,-0.0036651916
122,1.22,-0.014643434,0.20940112,0.950359,-0.009773844,0.028099801,-0.0036651916
123,1.23,-0.014643434,0.20940112,0.950359,-0.0105449143417916,0.0265576602872876,-0.004080383330719
124,1.24,-0.014643434,0.20940112,0.950359,-0.0231884036567749,0.0012706811796823,-0.0108884161735056
125,1.25,-0.014643434,0.20940112,0.950359,-0.02565634,-0.0036651916,-0.012217305
126,1.26,-0.014643434,0.20940112,0.950359,-0.02565634,-0.0036651916,-0.012217305
127,1.27,-0.0638755115624885,0.239776791562204,0.9373722770088108,-0.02565634,-0.0036651916,-0.012217305
128,1.28,-0.17840585,0.3104408,0.9071608,-0.02565634,-0.0036651916,-0.012217305
129,1.29,-0.17840585,0.3104408,0.9071608,-0.02565634,-0.0036651916,-0.012217305
130,1.3,-0.17840585,0.3104408,0.9071608,-0.02565634,-0.0036651916,-0.012217305
131,1.31,-0.17840585,0.3104408,0.9071608,-0.02565634,-0.0036651916,-0.012217305
132,1.32,-0.17840585,0.3104408,0.9071608,-0.02565634,-0.0036651916,-0.012217305
133,1.33,-0.1197857126872548,0.2735964920975745,0.925169486257698,-0.02565634,-0.0036651916,-0.012217305
134,1.34,-0.022697324,0.21257387,0.954996,-0.02565634,-0.0036651916,-0.012217305
135,1.35,-0.022697324,0.21257387,0.954996,-0.02565634,-0.0036651916,-0.012217305
136,1.36,-0.022697324,0.21257387,0.954996,-0.02565634,-0.0036651916,-0.012217305
137,1.37,-0.022697324,0.21257387,0.954996,-0.0303147178957026,0.0060098987325383,-0.0093506115420654
138,1.38,-0.022697324,0.21257387,0.954996,-0.03359759,0.01282817,-0.007330383
139,1.39,-0.022697324,0.21257387,0.954996,-0.03359759,0.01282817,-0.007330383
140,1.4,-0.022697324,0.21257387,0.954996,-0.03359759,0.01282817,-0.007330383
141,1.41,-0.022697324,0.21257387,0.954996,-0.03359759,0.01282817,-0.007330383
142,1.42,-0.022697324,0.21257387,0.954996,-0.03359759,0.01282817,-0.007330383
143,1.43,-0.022697324,0.21257387,0.954996,-0.03359759,0.01282817,-0.007330383
144,1.44,-0.022697324,0.21257387,0.954996,-0.03359759,0.01282817,-0.007330383
145,1.45,-0.022697324,0.21257387,0.954996,-0.03359759,0.01282817,-0.007330383
146,1.46,-0.022697324,0.21257387,0.954996,-0.03359759,0.01282817,-0.007330383
147,1.47,-0.022697324,0.21257387,0.954996,-0.03359759,0.01282817,-0.007330383
148,1.48,-0.022697324,0.21257387,0.954996,-0.03359759,0.01282817,-0.007330383
149,1.49,-0.0225804205744015,0.2111710279348192,0.9591265913235876,-0.03359759,0.01282817,-0.007330383
150,1.5,-0.0219973874736482,0.2041746259479419,0.9797271122664792,-0.03359759,0.01282817,-0.007330383
151,1.51,-0.021965152,0.2037878,0.9808661,-0.03359759,0.01282817,-0.007330383
152,1.52,-0.021965152,0.2037878,0.9808661,-0.0267572343189548,0.0165903651486677,-0.0151967903255354
153,1.53,-0.021965152,0.2037878,0.9808661,-0.021380283,0.019547688,-0.021380283
154,1.54,-0.021965152,0.2037878,0.9808661,-0.021380283,0.019547688,-0.021380283
155,1.55,-0.021965152,0.2037878,0.9808661,-0.021380283,0.019547688,-0.021380283
156,1.56,-0.021965152,0.2037878,0.9808661,-0.021380283,0.019547688,-0.021380283
157,1.57,-0.021965152,0.2037878,0.9808661,-0.021380283,0.019547688,-0.021380283
158,1.58,-0.0134680587232265,0.213606665886625,0.973501954453474,-0.021380283,0.019547688,-0.021380283
159,1.59,-0.010982576,0.21647878,0.97134787,-0.021380283,0.019547688,-0.021380283
160,1.6,-0.010982576,0.21647878,0.97134787,-0.021380283,0.019547688,-0.021380283
161,1.61,-0.0203642205326964,0.2168022852809874,0.9685980867099854,-0.021380283,0.019547688,-0.021380283
162,1.62,-0.03929322,0.21745501,0.96304995,-0.021380283,0.019547688,-0.021380283
163,1.63,-0.03929322,0.21745501,0.96304995,-0.021380283,0.019547688,-0.021380283
164,1.64,-0.03929322,0.21745501,0.96304995,-0.021380283,0.019547688,-0.021380283
165,1.65,-0.03929322,0.21745501,0.96304995,-0.021380283,0.019547688,-0.021380283
166,1.66,-0.03929322,0.21745501,0.96304995,-0.021380283,0.019547688,-0.021380283
167,1.67,-0.03929322,0.21745501,0.96304995,-0.021380283,0.019547688,-0.021380283
168,1.68,-0.03929322,0.21745501,0.96304995,-0.0140729622165784,0.017758140038093,-0.0146694783747699
169,1.69,-0.0365378897527363,0.2154184620899093,0.9651264257626436,0.008552114,0.012217305,0.0061086523
170,1.7,-0.022453265,0.20500809,0.9757409,0.0079142158264592,0.0104017487139887,0.0061577213831665
171,1.71,-0.022453265,0.20500809,0.9757409,0.0013173943340902,-0.0083738195897802,0.0066651691167865
172,1.72,-0.022453265,0.20500809,0.9757409,0.00061086525,-0.01038471,0.0067195175
173,1.73,-0.022453265,0.20500809,0.9757409,0.00061086525,-0.01038471,0.0067195175
174,1.74,-0.022453265,0.20500809,0.9757409,0.00061086525,-0.01038471,0.0067195175
175,1.75,-0.022453265,0.20500809,0.9757409,0.00061086525,-0.01038471,0.0067195175
176,1.76,-0.022453265,0.20500809,0.9757409,0.0004575780555385,-0.0093116995509429,0.0074859534723071
177,1.77,-0.022453265,0.20500809,0.9757409,-0.0004939230349956,-0.0026511913720334,0.0122434589249781
178,1.78,-0.022453265,0.20500809,0.9757409,-0.00061086525,-0.0018325958,0.01282817
179,1.79,-0.022453265,0.20500809,0.9757409,-0.00061086525,-0.0018325958,0.01282817
180,1.8,-0.022453265,0.20500809,0.9757409,-0.00061086525,-0.0018325958,0.01282817
181,1.81,-0.022453265,0.20500809,0.9757409,-0.00061086525,-0.0018325958,0.01282817
182,1.82,-0.022453265,0.20500809,0.9757409,-0.00061086525,-0.0018325958,0.01282817
183,1.83,-0.022453265,0.20500809,0.9757409,-0.00061086525,-0.0018325958,0.01282817
184,1.84,-0.022453265,0.20500809,0.9757409,-0.00061086525,-0.0018325958,0.01282817
185,1.85,-0.022453265,0.20500809,0.9757409,0.0437656617045604,0.0010536823951132,0.0041693355327826
186,1.86,-0.022453265,0.20500809,0.9757409,0.07452556,0.0030543262,-0.0018325958
187,1.87,-0.022453265,0.20500809,0.9757409,0.0566485892291677,0.006607512945866,-0.0082727467882428
188,1.88,-0.022453265,0.20500809,0.9757409,-0.0236220525430059,0.0225371846041619,-0.0369746493387285
189,1.89,-0.022453265,0.20500809,0.9757409,-0.0078546014724646,0.0174690754137955,-0.0144497185794942
190,1.9,-0.022453265,0.20500809,0.9757409,-0.0067195175,0.017104227,-0.01282817
191,1.91,-0.022453265,0.20500809,0.9757409,-0.0067195175,0.017104227,-0.01282817
192,1.92,-0.022453265,0.20500809,0.9757409,-0.0067195175,0.017104227,-0.01282817
193,1.93,-0.025686306162314,0.2094535125943226,0.9547261825353937,-0.0067195175,0.017104227,-0.01282817
194,1.94,-0.026358182,0.21037734,0.950359,-0.0067195175,0.017104227,-0.01282817
195,1.95,-0.026358182,0.21037734,0.950359,-0.0067195175,0.017104227,-0.01282817
196,1.96,-0.026358182,0.21037734,0.950359,-0.0067195175,0.017104227,-0.01282817
197,1.97,-0.026358182,0.21037734,0.950359,-0.0067195175,0.017104227,-0.01282817
198,1.98,-0.026358182,0.21037734,0.950359,-0.0067195175,0.017104227,-0.01282817
199,1.99,-0.026358182,0.21037734,0.950359,-0.0067195175,0.017104227,-0.01282817
200,2.0,-0.026358182,0.21037734,0.950359,-0.0067195175,0.017104227,-0.01282817
201,2.01,-0.026358182,0.21037734,0.950359,-0.0067195175,0.017104227,-0.01282817
202,2.02,-0.026358182,0.21037734,0.950359,-0.0067195175,0.017104227,-0.01282817
203,2.03,-0.0270400143109252,0.2118773724026805,0.9530044990541392,-0.0067195175,0.017104227,-0.01282817
204,2.04,-0.032366421597489,0.2235954787342464,0.9736708787677144,-0.0067195175,0.017104227,-0.01282817
205,2.05,-0.032459613,0.2238005,0.97403246,0.0033111950900753,0.0022969840466064,-0.0113952108128116
206,2.06,-0.032459613,0.2238005,0.97403246,0.0061086523,-0.0018325958,-0.010995574
207,2.07,-0.032459613,0.2238005,0.97403246,0.0061086523,-0.0018325958,-0.010995574
208,2.08,-0.032459613,0.2238005,0.97403246,0.0061086523,-0.0018325958,-0.010995574
209,2.09,-0.032459613,0.2238005,0.97403246,0.0061086523,-0.0018325958,-0.010995574
210,2.1,-0.032459613,0.2238005,0.97403246,0.0061086523,-0.0018325958,-0.010995574
211,2.11,-0.032459613,0.2238005,0.97403246,0.0061086523,-0.0018325958,-0.010995574
212,2.12,-0.0273970895721414,0.2203618049005309,0.9725041336722008,0.0061086523,-0.0018325958,-0.010995574
213,2.13,-0.01952458,0.21501444,0.9701275,0.0061086523,-0.0018325958,-0.010995574
214,2.14,-0.01952458,0.21501444,0.9701275,0.0061086523,-0.0018325958,-0.010995574
215,2.15,-0.0192029594300133,0.21501444,0.9699345301354864,0.0061086523,-0.0018325958,-0.010995574
216,2.16,-0.015141740610235,0.21501444,0.9674978301276308,0.0061086523,-0.0018325958,-0.010995574
217,2.17,-0.014643434,0.21501444,0.96719885,0.0061086523,-0.0018325958,-0.010995574
218,2.18,-0.014643434,0.21501444,0.96719885,0.0061086523,-0.0018325958,-0.010995574
219,2.19,-0.014643434,0.21501444,0.96719885,0.0061086523,-0.0018325958,-0.010995574
220,2.2,-0.014643434,0.21501444,0.96719885,0.0061086523,-0.0018325958,-0.010995574
221,2.21,-0.014643434,0.21501444,0.96719885,0.0061086523,-0.0018325958,-0.010995574
222,2.22,-0.014643434,0.21501444,0.96719885,0.0061086523,-0.0018325958,-0.010995574
223,2.23,-0.014643434,0.21501444,0.96719885,0.0061086523,-0.0018325958,-0.010995574
224,2.24,-0.0159978088990719,0.2151649338416668,0.9699076096637622,0.0061086523,-0.0018325958,-0.010995574
225,2.25,-0.016839951,0.21525851,0.9715919,0.0061086523,-0.0018325958,-0.010995574
226,2.26,-0.016839951,0.21525851,0.9715919,0.0050518354724016,-0.0026972641313617,-0.0113798710396557
227,2.27,-0.016839951,0.21525851,0.9715919,0.000955546162628,-0.006048773635905,-0.0128694308329997
228,2.28,-0.016839951,0.21525851,0.9715919,0.006935274125161,0.0264631984798745,-0.0167199655484212
229,2.29,-0.016839951,0.21525851,0.9715919,0.013439035,0.055588737,-0.019547688
230,2.3,-0.016839951,0.21525851,0.9715919,0.013439035,0.055588737,-0.019547688
231,2.31,-0.016839951,0.21525851,0.9715919,0.013439035,0.055588737,-0.019547688
232,2.32,-0.016839951,0.21525851,0.9715919,0.013439035,0.055588737,-0.019547688
233,2.33,-0.016839951,0.21525851,0.9715919,-0.0004011970503047,0.0169174999576701,0.0097610394003371
234,2.34,-0.0187440454045925,0.213354403405037,0.9800413382725924,-0.007330383,-0.002443461,0.02443461
235,2.35,-0.020744866,0.21135357,0.98892,-0.007330383,-0.002443461,0.02443461
236,2.36,-0.020744866,0.21135357,0.98892,-0.007330383,-0.002443461,0.02443461
237,2.37,-0.020744866,0.21135357,0.98892,-0.007330383,-0.002443461,0.02443461
238,2.38,-0.020744866,0.21135357,0.98892,-0.007330383,-0.002443461,0.02443461
239,2.39,-0.020744866,0.21135357,0.98892,-0.007330383,-0.002443461,0.02443461
240,2.4,-0.020744866,0.21135357,0.98892,-0.007330383,-0.002443461,0.02443461
241,2.41,-0.020744866,0.21135357,0.98892,-0.007330383,-0.002443461,0.02443461
242,2.42,-0.0222061466201285,0.2099209421482286,0.9877738963097712,-0.007330383,-0.002443461,0.02443461
243,2.43,-0.0321130032057743,0.2002083390570771,0.9800038042857088,-0.007330383,-0.002443461,0.02443461
244,2.44,-0.033191785,0.19915071,0.9791577,-0.007330383,-0.002443461,0.02443461
245,2.45,-0.0276507370863339,0.2069733610073866,0.9527562177925974,-0.007330383,-0.002443461,0.02443461
246,2.46,-0.024893839,0.21086545,0.9396204,-0.0011318923521874,0.0089748105994815,0.0048604294285309
247,2.47,-0.024893839,0.21086545,0.9396204,0.004276057,0.018936822,-0.012217305
248,2.48,-0.024893839,0.21086545,0.9396204,0.0189068323557784,0.0178727659153185,-0.0066310095211786
249,2.49,-0.024893839,0.21086545,0.9396204,0.07147124,0.014049901,0.013439035
250,2.5,-0.024893839,0.21086545,0.9396204,0.07147124,0.014049901,0.013439035
251,2.51,-0.024893839,0.21086545,0.9396204,0.07147124,0.014049901,0.013439035
252,2.52,-0.024893839,0.21086545,0.9396204,0.07147124,0.014049901,0.013439035
253,2.53,-0.026918183977339,0.2107389270132905,0.9527786661995344,-0.0466497515378328,0.0276670662693248,-0.0248790342170587
254,2.54,-0.028798755,0.21062139,0.9650024,-0.1563815,0.040317107,-0.06047566
255,2.55,-0.028798755,0.21062139,0.9650024,-0.1563815,0.040317107,-0.06047566
256,2.56,-0.028798755,0.21062139,0.9650024,-0.1563815,0.040317107,-0.06047566
257,2.57,-0.028798755,0.21062139,0.9650024,-0.1563815,0.040317107,-0.06047566
258,2.58,-0.028798755,0.21062139,0.9650024,-0.1563815,0.040317107,-0.06047566
259,2.59,-0.0262457067708615,0.2216191483499474,0.9485057061473776,-0.1563815,0.040317107,-0.06047566
260,2.6,-0.025626011,0.22428861,0.9445015,-0.049912966481212,0.0373596476683471,-0.024616465452415
261,2.61,-0.025626011,0.22428861,0.9445015,0.019547688,0.035430185,-0.0012217305
262,2.62,-0.025626011,0.22428861,0.9445015,0.019547688,0.035430185,-0.0012217305
263,2.63,-0.025626011,0.22428861,0.9445015,0.019547688,0.035430185,-0.0012217305
264,2.64,-0.025626011,0.22428861,0.9445015,0.019547688,0.035430185,-0.0012217305
265,2.65,-0.025626011,0.22428861,0.9445015,0.019547688,0.035430185,-0.0012217305
266,2.66,-0.025626011,0.22428861,0.9445015,0.019547688,0.035430185,-0.0012217305
267,2.67,-0.025626011,0.22428861,0.9445015,0.0206221664376323,-0.0036092146508039,-0.019487870682376
268,2.68,-0.025626011,0.22428861,0.9445015,0.0175781865407842,-0.0260846652244967,-0.032882804273409
269,2.69,-0.0249995698145762,0.2250716617491525,0.9459110042711864,0.0186197935576269,-0.0190674852020338,-0.0328136112155932
270,2.7,-0.0226593399526652,0.2279044518898937,0.9512767997113936,0.0421497,-0.019547688,-0.029932396
271,2.71,-0.0172367177037909,0.2214776432006278,0.9777873865832564,0.0421497,-0.019547688,-0.029932396
272,2.72,-0.016107777,0.22013964,0.98330665,0.0421497,-0.019547688,-0.029932396
273,2.73,-0.0194342577569449,0.2228424016484986,0.9646991496900592,0.0421497,-0.019547688,-0.029932396
274,2.74,-0.02391761,0.22648512,0.9396204,0.0421497,-0.019547688,-0.029932396
275,2.75,-0.02391761,0.22648512,0.9396204,0.0421497,-0.019547688,-0.029932396
276,2.76,-0.02391761,0.22648512,0.9396204,0.0421497,-0.019547688,-0.029932396
277,2.77,-0.02391761,0.22648512,0.9396204,0.0421497,-0.019547688,-0.029932396
278,2.78,-0.02391761,0.22648512,0.9396204,0.0421497,-0.019547688,-0.029932396
279,2.79,-0.02391761,0.22648512,0.9396204,0.0421497,-0.019547688,-0.029932396
280,2.8,-0.02391761,0.22648512,0.9396204,0.0421497,-0.019547688,-0.029932396
281,2.81,-0.02391761,0.22648512,0.9396204,0.0421497,-0.019547688,-0.029932396
282,2.82,-0.02391761,0.22648512,0.9396204,0.0421497,-0.019547688,-0.029932396
283,2.83,-0.0216708901944321,0.2201194188706497,0.9671426825214436,0.0421497,-0.019547688,-0.029932396
284,2.84,-0.020988923,0.21818718,0.97549677,0.0421497,-0.019547688,-0.029932396
285,2.85,-0.020988923,0.21818718,0.97549677,0.0421497,-0.019547688,-0.029932396
286,2.86,-0.020988923,0.21818718,0.97549677,0.0421497,-0.019547688,-0.029932396
287,2.87,-0.020988923,0.21818718,0.97549677,0.0421497,-0.019547688,-0.029932396
288,2.88,-0.020988923,0.21818718,0.97549677,0.0400897814006157,0.0055146650755772,-0.0213493990257872
289,2.89,-0.020988923,0.21818718,0.97549677,0.03848451,0.025045475,-0.014660766
290,2.9,-0.020988923,0.21818718,0.97549677,0.03848451,0.025045475,-0.014660766
291,2.91,-0.020988923,0.21818718,0.97549677,0.03848451,0.025045475,-0.014660766
292,2.92,-0.020988923,0.21818718,0.97549677,0.03848451,0.025045475,-0.014660766
293,2.93,-0.020988923,0.21818718,0.97549677,0.0504492649588787,-0.0094130213185741,-0.009396273191323
294,2.94,-0.1243291528230522,0.2790973007525392,0.961304135265986,-0.0002693643752192,-0.0093158420310159,-0.0120116629331006
295,2.95,-0.19158493,0.31873876,0.9520673,-0.069478772529151,-0.2220431118125141,0.077686845765627
296,2.96,-0.19158493,0.31873876,0.9520673,-0.12034045,-0.5491679,0.21563543
297,2.97,-0.19158493,0.31873876,0.9520673,-0.12034045,-0.5491679,0.21563543
298,2.98,-0.19158493,0.31873876,0.9520673,-0.12034045,-0.5491679,0.21563543
299,2.99,-0.19158493,0.31873876,0.9520673,-0.12034045,-0.5491679,0.21563543
300,3.0,-0.19158493,0.31873876,0.9520673,-0.0583191403518837,-0.2743657584071464,0.0989081419294235
301,3.01,-0.19158493,0.31873876,0.9520673,-0.0012217305,-0.021380283,-0.008552114
302,3.02,-0.19158493,0.31873876,0.9520673,-0.0012217305,-0.021380283,-0.008552114
303,3.03,-0.1756503353779615,0.3102403087148401,0.9544228489923744,-0.0012217305,-0.021380283,-0.008552114
304,3.04,-0.0417434488242283,0.2388232956613416,0.974217781915074,-0.0012217305,-0.021380283,-0.008552114
305,3.05,-0.02318544,0.22892569,0.97696114,-0.0012217305,-0.021380283,-0.008552114
306,3.06,-0.02318544,0.22892569,0.97696114,-0.0012217305,-0.021380283,-0.008552114
307,3.07,-0.02318544,0.22892569,0.97696114,-0.0012217305,-0.021380283,-0.008552114
308,3.08,-0.02318544,0.22892569,0.97696114,-0.0012217305,-0.021380283,-0.008552114
309,3.09,-0.02318544,0.22892569,0.97696114,-0.0012217305,-0.021380283,-0.008552114
310,3.1,-0.0244428464965302,0.2286562464341847,0.9739972718162376,-0.0012217305,-0.021380283,-0.008552114
311,3.11,-0.026602242,0.22819352,0.9689073,-0.0012217305,-0.021380283,-0.008552114
312,3.12,-0.026602242,0.22819352,0.9689073,-0.0012108156152435,-0.0213494645006893,-0.0085315683330921
313,3.13,-0.026602242,0.22819352,0.9689073,0.0078581908810467,0.004257143053117,0.008539503951648
314,3.14,-0.026602242,0.22819352,0.9689073,0.009162978,0.007941248,0.010995574
315,3.15,-0.026602242,0.22819352,0.9689073,0.009162978,0.007941248,0.010995574
316,3.16,-0.026602242,0.22819352,0.9689073,0.009162978,0.007941248,0.010995574
317,3.17,-0.0270379409794113,0.2278449633872107,0.9736999802043924,0.009162978,0.007941248,0.010995574
318,3.18,-0.027822526,0.2272173,0.9823304,0.009162978,0.007941248,0.010995574
319,3.19,-0.027822526,0.2272173,0.9823304,0.009162978,0.007941248,0.010995574
320,3.2,-0.027822526,0.2272173,0.9823304,0.009162978,0.007941248,0.010995574
321,3.21,-0.027822526,0.2272173,0.9823304,0.009162978,0.007941248,0.010995574
322,3.22,-0.027822526,0.2272173,0.9823304,0.009162978,0.007941248,0.010995574
323,3.23,-0.027822526,0.2272173,0.9823304,0.009162978,0.007941248,0.010995574
324,3.24,-0.027822526,0.2272173,0.9823304,0.009162978,0.007941248,0.010995574
325,3.25,-0.027822526,0.2272173,0.9823304,0.009162978,0.007941248,0.010995574
326,3.26,-0.027822526,0.2272173,0.9823304,0.009162978,0.007941248,0.010995574
327,3.27,-0.027822526,0.2272173,0.9823304,0.009162978,0.007941248,0.010995574
328,3.28,-0.027822526,0.2272173,0.9823304,0.0251539005995823,0.0008754919300711,-0.0009046469031506
329,3.29,-0.027822526,0.2272173,0.9823304,0.0443149407628146,0.0071405918217763,0.0120989390533814
330,3.3,-0.027822526,0.2272173,0.9823304,0.0529875314596836,0.0192376824413699,0.0326700117636543
331,3.31,-0.027822526,0.2272173,0.9823304,0.037873644,0.005497787,-0.0012217305
332,3.32,-0.027822526,0.2272173,0.9823304,0.037873644,0.005497787,-0.0012217305
333,3.33,-0.027822526,0.2272173,0.9823304,0.037873644,0.005497787,-0.0012217305
334,3.34,-0.027822526,0.2272173,0.9823304,0.0149392791410498,0.0076148050831814,0.0125388887734827
335,3.35,-0.027822526,0.2272173,0.9823304,-0.0018325958,0.009162978,0.022602014
336,3.36,-0.027822526,0.2272173,0.9823304,-0.0018325958,0.009162978,0.022602014
337,3.37,-0.027822526,0.2272173,0.9823304,-0.0018325958,0.009162978,0.022602014
338,3.38,-0.027822526,0.2272173,0.9823304,-0.0018325958,0.009162978,0.022602014
339,3.39,-0.027822526,0.2272173,0.9823304,-0.0018325958,0.009162978,0.022602014
340,3.4,-0.027822526,0.2272173,0.9823304,-0.0018325958,0.009162978,0.022602014
341,3.41,-0.027822526,0.2272173,0.9823304,-0.0018325958,0.009162978,0.022602014
342,3.42,-0.027822526,0.2272173,0.9823304,-0.0018325958,0.009162978,0.022602014
343,3.43,-0.027822526,0.2272173,0.9823304,-0.0018325958,0.009162978,0.022602014
344,3.44,-0.027822526,0.2272173,0.9823304,-0.0018325958,0.009162978,0.022602014
345,3.45,-0.027822526,0.2272173,0.9823304,-0.0018325958,0.009162978,0.022602014
346,3.46,-0.027822526,0.2272173,0.9823304,-0.0018325958,0.009162978,0.022602014
347,3.47,-0.027822526,0.2272173,0.9823304,-0.0018325958,0.009162978,0.022602014
348,3.48,-0.027822526,0.2272173,0.9823304,-0.0018325958,0.009162978,0.022602014
349,3.49,-0.027822526,0.2272173,0.9823304,0.0034161156768385,-0.0036672064268447,0.0202692536724668
350,3.5,-0.027822526,0.2272173,0.9823304,0.009162978,-0.017715093,0.017715093
351,3.51,-0.027822526,0.2272173,0.9823304,0.009162978,-0.017715093,0.017715093
352,3.52,-0.027822526,0.2272173,0.9823304,0.009162978,-0.017715093,0.017715093
353,3.53,-0.027822526,0.2272173,0.9823304,0.002918369758734,-0.0214618580810604,-0.0010187337683106
354,3.54,-0.027822526,0.2272173,0.9823304,0.0014453217822004,-0.0123729663377433,0.006486026493385
355,3.55,-0.027822526,0.2272173,0.9823304,0.002443461,-0.004886922,0.017715093
356,3.56,-0.0292292574364267,0.226699030667121,0.976925600777173,0.002443461,-0.004886922,0.017715093
357,3.57,-0.032459613,0.2255089,0.96451426,0.002443461,-0.004886922,0.017715093
358,3.58,-0.032459613,0.2255089,0.96451426,0.002443461,-0.004886922,0.017715093
359,3.59,-0.032459613,0.2255089,0.96451426,0.002443461,-0.004886922,0.017715093
360,3.6,-0.032459613,0.2255089,0.96451426,0.0009251667426855,-0.0162741292405433,0.0006342821391849
361,3.61,-0.032459613,0.2255089,0.96451426,0.0,-0.02321288,-0.009773844
362,3.62,-0.032459613,0.2255089,0.96451426,0.0,-0.02321288,-0.009773844
363,3.63,-0.032459613,0.2255089,0.96451426,0.0,-0.02321288,-0.009773844
364,3.64,-0.033107155995557,0.2252295676396794,0.9648697742441994,0.0,-0.02321288,-0.009773844
365,3.65,-0.0445066262142977,0.2203121475695788,0.9711283147069896,0.0,-0.02321288,-0.009773844
366,3.66,-0.04490653,0.22013964,0.97134787,0.0,-0.02321288,-0.009773844
367,3.67,-0.04490653,0.22013964,0.97134787,0.0,-0.02321288,-0.009773844
368,3.68,-0.04490653,0.22013964,0.97134787,0.0,-0.02321288,-0.009773844
369,3.69,-0.04490653,0.22013964,0.97134787,0.0,-0.02321288,-0.009773844
370,3.7,-0.04490653,0.22013964,0.97134787,0.0,-0.02321288,-0.009773844
371,3.71,-0.04490653,0.22013964,0.97134787,0.0,-0.02321288,-0.009773844
372,3.72,-0.04490653,0.22013964,0.97134787,0.0,-0.02321288,-0.009773844
373,3.73,-0.0619890572936938,0.281360247686475,0.9540678627350768,0.0,-0.02321288,-0.009773844
374,3.74,-0.08712844,0.37145513,0.92863786,0.0,-0.02321288,-0.009773844
375,3.75,-0.08712844,0.37145513,0.92863786,0.0,-0.02321288,-0.009773844
376,3.76,-0.08712844,0.37145513,0.92863786,0.0,-0.02321288,-0.009773844
377,3.77,-0.08712844,0.37145513,0.92863786,0.0,-0.02321288,-0.009773844
378,3.78,-0.08712844,0.37145513,0.92863786,0.0,-0.02321288,-0.009773844
379,3.79,-0.08712844,0.37145513,0.92863786,0.0,-0.02321288,-0.009773844
380,3.8,-0.08712844,0.37145513,0.92863786,0.0110237862606882,-0.0179171395396995,-0.0088011570290343
381,3.81,-0.08712844,0.37145513,0.92863786,0.0598012261378449,0.0055151600168055,-0.0044972655054148
382,3.82,-0.08712844,0.37145513,0.92863786,0.062308256,0.0067195175,-0.004276057
383,3.83,-0.08712844,0.37145513,0.92863786,0.062308256,0.0067195175,-0.004276057
384,3.84,-0.08712844,0.37145513,0.92863786,0.062308256,0.0067195175,-0.004276057
385,3.85,-0.08712844,0.37145513,0.92863786,0.062308256,0.0067195175,-0.004276057
386,3.86,-0.08712844,0.37145513,0.92863786,0.062308256,0.0067195175,-0.004276057
387,3.87,-0.08712844,0.37145513,0.92863786,0.062308256,0.0067195175,-0.004276057
388,3.88,-0.08712844,0.37145513,0.92863786,0.062308256,0.0067195175,-0.004276057
389,3.89,-0.08712844,0.37145513,0.92863786,0.062308256,0.0067195175,-0.004276057
390,3.9,-0.08712844,0.37145513,0.92863786,0.062308256,0.0067195175,-0.004276057
391,3.91,-0.08712844,0.37145513,0.92863786,0.062308256,0.0067195175,-0.004276057
392,3.92,-0.08712844,0.37145513,0.92863786,0.062308256,0.0067195175,-0.004276057
393,3.93,-0.08712844,0.37145513,0.92863786,0.075347592916413,-0.0439656497474587,-0.0362434631784417
394,3.94,-0.08712844,0.37145513,0.92863786,0.0819257142090773,-0.1151260053039454,-0.0789745269672009
395,3.95,-0.08712844,0.37145513,0.92863786,-0.007941248,0.009773844,0.01038471
396,3.96,-0.08712844,0.37145513,0.92863786,-0.007941248,0.009773844,0.01038471
397,3.97,-0.0482035351163614,0.2710698528868935,0.9448565709511172,-0.007941248,0.009773844,0.01038471
398,3.98,-0.031483386,0.22794947,0.9518233,-0.007941248,0.009773844,0.01038471
399,3.99,-0.031483386,0.22794947,0.9518233,-0.007941248,0.009773844,0.01038471
400,4.0,-0.031483386,0.22794947,0.9518233,-0.0032061713080786,0.0077076286701282,0.0134840327129375
401,4.01,-0.031483386,0.22794947,0.9518233,0.023498617059855,-0.0039453701505548,0.0309635293542773
402,4.02,-0.031483386,0.22794947,0.9518233,0.02565634,-0.004886922,0.032375857
403,4.03,-0.031483386,0.22794947,0.9518233,0.02565634,-0.004886922,0.032375857
404,4.04,-0.031483386,0.22794947,0.9518233,0.0174448608827636,-0.0138930602887309,0.0125093757613213
405,4.05,-0.031483386,0.22794947,0.9518233,0.0067195175,-0.02565634,-0.013439035
406,4.06,-0.031483386,0.22794947,0.9518233,0.0067195175,-0.02565634,-0.013439035
407,4.07,-0.031483386,0.22794947,0.9518233,0.0067195175,-0.02565634,-0.013439035
408,4.08,-0.031483386,0.22794947,0.9518233,0.0067195175,-0.02565634,-0.013439035
409,4.09,-0.0372140125841407,0.2200865194165656,0.9486247411017658,0.0067195175,-0.02565634,-0.013439035
410,4.1,-0.041977845,0.2135501,0.9459658,0.0067195175,-0.02565634,-0.013439035
411,4.11,-0.041977845,0.2135501,0.9459658,0.0067195175,-0.02565634,-0.013439035
412,4.12,-0.041977845,0.2135501,0.9459658,-0.031546368536701,0.0627108755222253,0.0106611134558452
413,4.13,-0.041977845,0.2135501,0.9459658,-0.3672139000693246,0.8378661946570733,0.2220670987761514
414,4.14,-0.041977845,0.2135501,0.9459658,-0.3744604,0.8546005,0.226631
415,4.15,-0.041977845,0.2135501,0.9459658,-0.3744604,0.8546005,0.226631
416,4.16,-0.041977845,0.2135501,0.9459658,-0.3744604,0.8546005,0.226631
417,4.17,-0.041977845,0.2135501,0.9459658,-0.3744604,0.8546005,0.226631
418,4.18,-0.041977845,0.2135501,0.9459658,-0.3744604,0.8546005,0.226631
419,4.19,-0.041977845,0.2135501,0.9459658,-0.3744604,0.8546005,0.226631
420,4.2,-0.041977845,0.2135501,0.9459658,-0.1234530280623923,0.2579719536861109,0.0702374283793553
421,4.21,-0.041977845,0.2135501,0.9459658,-0.019547688,0.010995574,0.005497787
422,4.22,-0.041977845,0.2135501,0.9459658,-0.0169680487734108,0.0165847921483211,-0.0048207695544459
423,4.23,-0.041977845,0.2135501,0.9459658,-0.012217305,0.02687807,-0.023823744
424,4.24,-0.041977845,0.2135501,0.9459658,-0.012217305,0.02687807,-0.023823744
425,4.25,-0.041977845,0.2135501,0.9459658,-0.012217305,0.02687807,-0.023823744
426,4.26,-0.041977845,0.2135501,0.9459658,-0.012217305,0.02687807,-0.023823744
427,4.27,-0.041977845,0.2135501,0.9459658,-0.012217305,0.02687807,-0.023823744
428,4.28,-0.040137090571167,0.215320058859312,0.95162969503796,-0.012217305,0.02687807,-0.023823744
429,4.29,-0.0367053888717045,0.218619777023962,0.9621888429193358,-0.012217305,0.02687807,-0.023823744
430,4.3,-0.0831379085472343,0.3084537081369267,0.9363229122265738,-0.012217305,0.02687807,-0.023823744
431,4.31,-0.11592719,0.36974674,0.91619086,-0.012217305,0.02687807,-0.023823744
432,4.32,-0.11592719,0.36974674,0.91619086,-0.012217305,0.02687807,-0.023823744
433,4.33,-0.11592719,0.36974674,0.91619086,-0.0125198719830789,0.0257518485237231,-0.022529429749231
434,4.34,-0.11592719,0.36974674,0.91619086,-0.0212882017746638,-0.0068858213960784,0.014979534676438
435,4.35,-0.11592719,0.36974674,0.91619086,-0.02321288,-0.014049901,0.02321288
436,4.36,-0.11592719,0.36974674,0.91619086,-0.02321288,-0.014049901,0.02321288
437,4.37,-0.11592719,0.36974674,0.91619086,-0.02321288,-0.014049901,0.02321288
438,4.38,-0.11592719,0.36974674,0.91619086,-0.02321288,-0.014049901,0.02321288
439,4.39,-0.11592719,0.36974674,0.91619086,-0.02321288,-0.014049901,0.02321288
440,4.4,-0.11592719,0.36974674,0.91619086,-0.02321288,-0.014049901,0.02321288
441,4.41,-0.11592719,0.36974674,0.91619086,-0.0320280094978578,-0.0146578406908284,0.0201731800530407
442,4.42,-0.11592719,0.36974674,0.91619086,-0.036451894451606,-0.0265796186681607,0.0006134118434263
443,4.43,-0.11592719,0.36974674,0.91619086,-0.029321533,-0.044593163,-0.02565634
444,4.44,-0.11592719,0.36974674,0.91619086,-0.029321533,-0.044593163,-0.02565634
445,4.45,-0.11592719,0.36974674,0.91619086,-0.029321533,-0.044593163,-0.02565634
446,4.46,-0.11592719,0.36974674,0.91619086,-0.029321533,-0.044593163,-0.02565634
447,4.47,-0.0582518291516345,0.265996441177551,0.9588346831360672,-0.029321533,-0.044593163,-0.02565634
448,4.48,-0.0238969065340094,0.2224570980430876,0.9653076356420156,-0.029321533,-0.044593163,-0.02565634
449,4.49,-0.017084008,0.23136626,0.9484064,-0.029321533,-0.044593163,-0.02565634
450,4.5,-0.017084008,0.23136626,0.9484064,-0.029321533,-0.044593163,-0.02565634
451,4.51,-0.017084008,0.23136626,0.9484064,-0.0315986100691492,-0.0081599149831034,-0.0135119241807491
452,4.52,-0.017084008,0.23136626,0.9484064,-0.032986723,0.014049901,-0.0061086523
453,4.53,-0.017084008,0.23136626,0.9484064,-0.032986723,0.014049901,-0.0061086523
454,4.54,-0.017084008,0.23136626,0.9484064,-0.032986723,0.014049901,-0.0061086523
455,4.55,-0.017084008,0.23136626,0.9484064,-0.032986723,0.014049901,-0.0061086523
456,4.56,-0.017084008,0.23136626,0.9484064,-0.032986723,0.014049901,-0.0061086523
457,4.57,-0.017084008,0.23136626,0.9484064,-0.032986723,0.014049901,-0.0061086523
458,4.58,-0.017084008,0.23136626,0.9484064,-0.032986723,0.014049901,-0.0061086523
459,4.59,-0.017084008,0.23136626,0.9484064,-0.032986723,0.014049901,-0.0061086523
460,4.6,-0.0195291090066994,0.2290476327280849,0.948701506935767,-0.032986723,0.014049901,-0.0061086523
461,4.61,-0.0306216490080034,0.2185288583742392,0.950040300499178,-0.032986723,0.014049901,-0.0061086523
462,4.62,-0.031239327,0.21794313,0.95011485,-0.0236678127998944,0.0248402174399311,0.0056626026769294
463,4.63,-0.031239327,0.21794313,0.95011485,-0.021380283,0.027488936,0.008552114
464,4.64,-0.031239327,0.21794313,0.95011485,-0.0187409031845248,0.0156117259662168,-0.0059644762813306
465,4.65,-0.031239327,0.21794313,0.95011485,-0.015271631,0.0,-0.025045475
466,4.66,-0.031239327,0.21794313,0.95011485,-0.015271631,0.0,-0.025045475
467,4.67,-0.031239327,0.21794313,0.95011485,-0.015271631,0.0,-0.025045475
468,4.68,-0.031239327,0.21794313,0.95011485,-0.015271631,0.0,-0.025045475
469,4.69,-0.0355959596211835,0.2167899011545626,0.960365735152052,-0.015271631,0.0,-0.025045475
470,4.7,-0.039537273,0.2168436367577303,0.963901096083317,-0.0268885470184026,-0.0382302141623756,-0.0172304589140314
471,4.71,-0.039537273,0.21891935,0.9530435,-0.04886922,-0.11056661,-0.002443461
472,4.72,-0.039537273,0.21891935,0.9530435,-0.04886922,-0.11056661,-0.002443461
473,4.73,-0.039537273,0.21891935,0.9530435,-0.04886922,-0.11056661,-0.002443461
474,4.74,-0.039537273,0.21891935,0.9530435,-0.04886922,-0.11056661,-0.002443461
475,4.75,-0.1056965443493613,0.2740520655353675,0.9304161315788392,-0.04886922,-0.11056661,-0.002443461
476,4.76,-0.18011424,0.3360668,0.90496427,-0.04886922,-0.11056661,-0.002443461
477,4.77,-0.18011424,0.3360668,0.90496427,-0.04886922,-0.11056661,-0.002443461
478,4.78,-0.18011424,0.3360668,0.90496427,-0.04886922,-0.11056661,-0.002443461
479,4.79,-0.18011424,0.3360668,0.90496427,-0.04886922,-0.11056661,-0.002443461
480,4.8,-0.18011424,0.3360668,0.90496427,-0.04886922,-0.11056661,-0.002443461
481,4.81,-0.18011424,0.3360668,0.90496427,-0.04886922,-0.11056661,-0.002443461
482,4.82,-0.18011424,0.3360668,0.90496427,-0.0207446643242277,-0.0329183804497186,-0.0015263559236161
483,4.83,-0.18011424,0.3360668,0.90496427,0.007330383,0.044593163,-0.00061086525
484,4.84,-0.18011424,0.3360668,0.90496427,0.0077068760827876,0.0433023294978309,-0.001310066697324
485,4.85,-0.18011424,0.3360668,0.90496427,0.0155657288673002,0.0163576898041812,-0.0159050791755148
486,4.86,-0.18011424,0.3360668,0.90496427,0.015882496,0.015271631,-0.016493361
487,4.87,-0.0588753481193512,0.2402172467280136,0.940981665506384,0.015882496,0.015271631,-0.016493361
488,4.88,-0.029774986,0.21721096,0.94962674,0.015882496,0.015271631,-0.016493361
489,4.89,-0.029774986,0.21721096,0.94962674,0.015882496,0.015271631,-0.016493361
490,4.9,-0.029774986,0.21721096,0.94962674,0.015882496,0.015271631,-0.016493361
491,4.91,-0.029774986,0.21721096,0.94962674,0.015882496,0.015271631,-0.016493361
492,4.92,-0.029774986,0.21721096,0.94962674,0.015882496,0.015271631,-0.016493361
493,4.93,-0.029774986,0.21721096,0.94962674,0.015882496,0.015271631,-0.016493361
494,4.94,-0.029774986,0.21721096,0.94962674,0.015882496,0.015271631,-0.016493361
495,4.95,-0.029774986,0.21721096,0.94962674,0.015882496,0.015271631,-0.016493361
496,4.96,-0.029774986,0.21721096,0.94962674,0.015882496,0.015271631,-0.016493361
497,4.97,-0.029774986,0.21721096,0.94962674,0.015882496,0.015271631,-0.016493361
498,4.98,-0.029774986,0.21721096,0.94962674,0.0125648232587272,0.014124398351814,-0.0172065056397201
499,4.99,-0.029774986,0.21721096,0.94962674,-0.0393595925798109,-0.0038307737623292,-0.0283678291678656
500,5.0,-0.029774986,0.21721096,0.94962674,-0.049480084,-0.007330383,-0.030543262
501,5.01,-0.029774986,0.21721096,0.94962674,-0.0250810471846265,0.0149698123220827,-0.0176878554377618
502,5.02,-0.029774986,0.21721096,0.94962674,0.007330383,0.044593163,-0.00061086525
503,5.03,-0.029774986,0.21721096,0.94962674,0.007330383,0.044593163,-0.00061086525
504,5.04,-0.029774986,0.21721096,0.94962674,0.007330383,0.044593163,-0.00061086525
505,5.05,-0.029774986,0.21721096,0.94962674,0.007330383,0.044593163,-0.00061086525
506,5.06,-0.029774986,0.21721096,0.94962674,0.007330383,0.044593163,-0.00061086525
507,5.07,-0.029774986,0.21721096,0.94962674,0.007330383,0.044593163,-0.00061086525
508,5.08,-0.029774986,0.21721096,0.94962674,0.007330383,0.044593163,-0.00061086525
509,5.09,-0.029774986,0.21721096,0.94962674,0.007330383,0.044593163,-0.00061086525
510,5.1,-0.029774986,0.21721096,0.94962674,0.007330383,0.044593163,-0.00061086525
511,5.11,-0.029774986,0.21721096,0.94962674,0.007330383,0.044593163,-0.00061086525
512,5.12,-0.029774986,0.21721096,0.94962674,0.007330383,0.044593163,-0.00061086525
513,5.13,-0.029774986,0.21721096,0.94962674,0.007330383,0.044593163,-0.00061086525
514,5.14,-0.029774986,0.21721096,0.94962674,0.007330383,0.044593163,-0.00061086525
515,5.15,-0.029774986,0.21721096,0.94962674,0.007330383,0.044593163,-0.00061086525
516,5.16,-0.0173378457212824,0.1966896776871742,1.0123306199581334,-0.2837318190860248,-0.6158741863652679,-0.0161756894093062
517,5.17,-0.00048811449,0.16888762,1.0972813,-0.6780604,-1.5106697,-0.03726278
518,5.18,-0.00048811449,0.16888762,1.0972813,-0.6780604,-1.5106697,-0.03726278
519,5.19,-0.00048811449,0.16888762,1.0972813,-0.6780604,-1.5106697,-0.03726278
520,5.2,-0.00048811449,0.16888762,1.0972813,-0.6780604,-1.5106697,-0.03726278
521,5.21,0.1897080212257193,0.2100525971984644,1.137050901437052,-0.6780604,-1.5106697,-0.03726278
522,5.22,0.3321619,0.24088451,1.1668377,-0.6780604,-1.5106697,-0.03726278
523,5.23,0.3321619,0.24088451,1.1668377,-0.6780604,-1.5106697,-0.03726278
524,5.24,0.3321619,0.24088451,1.1668377,-0.6780604,-1.5106697,-0.03726278
525,5.25,0.2345709294855472,0.1835318509539011,1.0928932694059272,-0.6780604,-1.5106697,-0.03726278
526,5.26,0.14985114,0.13374338,1.0287013,-0.6780604,-1.5106697,-0.03726278
527,5.27,0.14985114,0.13374338,1.0287013,-0.6780604,-1.5106697,-0.03726278
528,5.28,0.14985114,0.13374338,1.0287013,-0.4467588039287169,-1.6432065428541032,-0.208581822999105
529,5.29,0.14985114,0.13374338,1.0287013,1.9730969489743984,-3.029794647301414,-2.000905692893536
530,5.3,0.14985114,0.13374338,1.0287013,2.3677137,-3.2559118,-2.293188
531,5.31,0.14985114,0.13374338,1.0287013,2.3677137,-3.2559118,-2.293188
532,5.32,0.14985114,0.13374338,1.0287013,2.3677137,-3.2559118,-2.293188
533,5.33,0.14985114,0.13374338,1.0287013,2.3677137,-3.2559118,-2.293188
534,5.34,0.14985114,0.13374338,1.0287013,2.2268053198293933,-3.143585573283285,-2.2314428703713
535,5.35,0.14985114,0.13374338,1.0287013,-0.2888269484616841,-1.138229467693114,-1.1291092808735863
536,5.36,0.14985114,0.13374338,1.0287013,-0.7703011,-0.75441855,-0.91813046
537,5.37,0.14985114,0.13374338,1.0287013,-0.7703011,-0.75441855,-0.91813046
538,5.38,0.072964755528433,0.1809964704809005,0.99918242859804,-0.7703011,-0.75441855,-0.91813046
539,5.39,-0.17816179,0.33533466,0.9027678,-0.7703011,-0.75441855,-0.91813046
540,5.4,-0.17816179,0.33533466,0.9027678,-0.7703011,-0.75441855,-0.91813046
541,5.41,-0.17816179,0.33533466,0.9027678,-0.7703011,-0.75441855,-0.91813046
542,5.42,-0.17816179,0.33533466,0.9027678,-0.7703011,-0.75441855,-0.91813046
543,5.43,-0.17816179,0.33533466,0.9027678,-0.7703011,-0.75441855,-0.91813046
544,5.44,-0.1774892065311304,0.3365357076734888,0.8993568225600874,-0.7703011,-0.75441855,-0.91813046
545,5.45,-0.174774014328603,0.3413842884502379,0.8855868448896381,-0.7703011,-0.75441855,-0.91813046
546,5.46,-0.174745,0.3414361,0.8854397,-0.7703011,-0.75441855,-0.91813046
547,5.47,-0.174745,0.3414361,0.8854397,-0.7703011,-0.75441855,-0.91813046
548,5.48,-0.174745,0.3414361,0.8854397,-0.7703011,-0.75441855,-0.91813046
549,5.49,-0.174745,0.3414361,0.8854397,-0.7703011,-0.75441855,-0.91813046
550,5.5,-0.174745,0.3414361,0.8854397,-0.7703011,-0.75441855,-0.91813046
551,5.51,0.1590632352817542,0.2772063933696001,0.6555160216305286,-0.7703011,-0.75441855,-0.91813046
552,5.52,0.26284966,0.25723633,0.584029,-0.7703011,-0.75441855,-0.91813046
553,5.53,0.26284966,0.25723633,0.584029,-0.7703011,-0.75441855,-0.91813046
554,5.54,0.2307987521825491,0.2096820228679445,0.7057465082922931,-0.7703011,-0.75441855,-0.91813046
555,5.55,0.0340363068323824,-0.0822567206936818,1.452977591727658,-0.7703011,-0.75441855,-0.91813046
556,5.56,0.0156196635,-0.10958171,1.5229172,1.2251157701294155,0.5444461894936298,-0.26755992439686
557,5.57,0.0156196635,-0.10958171,1.5229172,1.9071213,0.98837996,-0.04520403
558,5.58,0.0156196635,-0.10958171,1.5229172,1.9071213,0.98837996,-0.04520403
559,5.59,0.0156196635,-0.10958171,1.5229172,1.9071213,0.98837996,-0.04520403
560,5.6,0.0156196635,-0.10958171,1.5229172,1.9071213,0.98837996,-0.04520403
561,5.61,0.0156196635,-0.10958171,1.5229172,1.9071213,0.98837996,-0.04520403
562,5.62,0.0156196635,-0.10958171,1.5229172,1.9071213,0.98837996,-0.04520403
563,5.63,0.0156196635,-0.10958171,1.5229172,1.9071213,0.98837996,-0.04520403
564,5.64,0.0156196635,-0.10958171,1.5229172,1.9071213,0.98837996,-0.04520403
565,5.65,0.0156196635,-0.10958171,1.5229172,1.9071213,0.98837996,-0.04520403
566,5.66,0.0873788003889573,-0.0105552290052607,1.4171580426119046,1.9071213,0.98837996,-0.04520403
567,5.67,0.3277689,0.32117933,1.0628693,1.9071213,0.98837996,-0.04520403
568,5.68,0.3277689,0.32117933,1.0628693,1.9071213,0.98837996,-0.04520403
569,5.69,0.3277689,0.32117933,1.0628693,1.9071213,0.98837996,-0.04520403
570,5.7,0.3277689,0.32117933,1.0628693,1.9071213,0.98837996,-0.04520403
571,5.71,0.3277689,0.32117933,1.0628693,1.9071213,0.98837996,-0.04520403
572,5.72,0.3277689,0.32117933,1.0628693,1.9071213,0.98837996,-0.04520403
573,5.73,0.3277689,0.32117933,1.0628693,1.9071213,0.98837996,-0.04520403
574,5.74,0.3277689,0.32117933,1.0628693,1.9071213,0.98837996,-0.04520403
575,5.75,0.3277689,0.32117933,1.0628693,1.9071213,0.98837996,-0.04520403
576,5.76,0.3277689,0.32117933,1.0628693,1.9071213,0.98837996,-0.04520403
577,5.77,0.2881182731390216,0.2869273638103103,1.0282544116823984,1.9071213,0.98837996,-0.04520403
578,5.78,0.114462845,0.13691612,0.8766537,1.9071213,0.98837996,-0.04520403
579,5.79,0.114462845,0.13691612,0.8766537,1.9071213,0.98837996,-0.04520403
580,5.8,0.114462845,0.13691612,0.8766537,0.3188860226955875,0.3013063908419335,-0.4617631402940991
581,5.81,0.114462845,0.13691612,0.8766537,-1.0158689,-0.2761111,-0.81183994
582,5.82,0.114462845,0.13691612,0.8766537,-1.0158689,-0.2761111,-0.81183994
583,5.83,0.114462845,0.13691612,0.8766537,-1.0158689,-0.2761111,-0.81183994
584,5.84,0.114462845,0.13691612,0.8766537,-1.0158689,-0.2761111,-0.81183994
585,5.85,0.114462845,0.13691612,0.8766537,-0.7084710576448018,-0.5507683326905299,-0.8864157513443683
586,5.86,0.114462845,0.13691612,0.8766537,-0.39645153,-0.829555,-0.9621128
587,5.87,0.114462845,0.13691612,0.8766537,-0.3637807927307744,-0.7432497972736049,-0.8866978382017116
588,5.88,0.114462845,0.13691612,0.8766537,-0.1110716928147809,-0.0756765521604969,-0.3033609223802141
589,5.89,0.114462845,0.13691612,0.8766537,-0.10323623,-0.05497787,-0.28527406
590,5.9,0.114462845,0.13691612,0.8766537,-0.10323623,-0.05497787,-0.28527406
591,5.91,0.114462845,0.13691612,0.8766537,-0.10323623,-0.05497787,-0.28527406
592,5.92,0.114462845,0.13691612,0.8766537,-0.10323623,-0.05497787,-0.28527406
593,5.93,0.1050030525053923,0.105075838979254,0.9429299167805536,-0.10323623,-0.05497787,-0.28527406
594,5.94,0.07443746,0.0021965152,1.1570754,-0.10323623,-0.05497787,-0.28527406
595,5.95,0.07443746,0.0021965152,1.1570754,-0.10323623,-0.05497787,-0.28527406
596,5.96,0.07443746,0.0021965152,1.1570754,-0.10323623,-0.05497787,-0.28527406
597,5.97,0.07443746,0.0021965152,1.1570754,-0.10323623,-0.05497787,-0.28527406
598,5.98,0.07443746,0.0021965152,1.1570754,-0.10323623,-0.05497787,-0.28527406
599,5.99,0.07443746,0.0021965152,1.1570754,-0.10323623,-0.05497787,-0.28527406
600,6.0,0.07443746,0.0021965152,1.1570754,-0.3958047382071244,-0.1272373433119398,-0.451800378806775
601,6.01,0.07443746,0.0021965152,1.1570754,-1.6052678411512882,-0.4259542740729847,-1.140211580340894
602,6.02,0.07443746,0.0021965152,1.1570754,-1.6218473,-0.43004912,-1.1496484
603,6.03,0.1464094802556528,0.0674553077977748,0.9662948740680803,0.486724656403922,-0.3956617486869567,-0.4802666842757755
604,6.04,0.18694785,0.10421244,0.8588374,1.6743816,-0.376293,-0.10323623
605,6.05,0.18694785,0.10421244,0.8588374,1.6743816,-0.376293,-0.10323623
606,6.06,0.18694785,0.10421244,0.8588374,1.6743816,-0.376293,-0.10323623
607,6.07,0.18694785,0.10421244,0.8588374,1.6743816,-0.376293,-0.10323623
608,6.08,0.18694785,0.10421244,0.8588374,1.6743816,-0.376293,-0.10323623
609,6.09,0.18694785,0.10421244,0.8588374,1.6743816,-0.376293,-0.10323623
610,6.1,0.18694785,0.10421244,0.8588374,1.6743816,-0.376293,-0.10323623
611,6.11,0.18694785,0.10421244,0.8588374,1.6743816,-0.376293,-0.10323623
612,6.12,0.18694785,0.10421244,0.8588374,1.6743816,-0.376293,-0.10323623
613,6.13,0.18694785,0.10421244,0.8588374,1.6743816,-0.376293,-0.10323623
614,6.14,0.18694785,0.10421244,0.8588374,0.8645155361042901,-0.482518868703543,0.1712514431094761
615,6.15,0.18694785,0.10421244,0.8588374,0.51007247,-0.5290093,0.29138273
616,6.16,0.18694785,0.10421244,0.8588374,0.51007247,-0.5290093,0.29138273
617,6.17,0.18694785,0.10421244,0.8588374,0.51007247,-0.5290093,0.29138273
618,6.18,0.18694785,0.10421244,0.8588374,0.51007247,-0.5290093,0.29138273
619,6.19,0.18694785,0.10421244,0.8588374,0.51007247,-0.5290093,0.29138273
620,6.2,0.18694785,0.10421244,0.8588374,0.6482252396367609,0.2754483451892257,0.6644489313803232
621,6.21,0.1503257545739362,0.1326146109536125,0.8641836970593676,0.8240572,1.2993103,1.1392636
622,6.22,0.053204484,0.20793676,0.878362,0.6958192330207218,1.2838412530614924,1.4076452538350857
623,6.23,0.053204484,0.20793676,0.878362,-0.7847389408062287,1.1052449728364584,4.5062178579605
624,6.24,0.053204484,0.20793676,0.878362,-0.5029560519012016,1.509520016237542,2.7251220307204855
625,6.25,0.053204484,0.20793676,0.878362,-0.21746802,1.7391334,1.4996742
626,6.26,0.053204484,0.20793676,0.878362,-0.21746802,1.7391334,1.4996742
627,6.27,0.0512891502544684,0.2185340981972845,0.8964190564433049,-0.21746802,1.7391334,1.4996742
628,6.28,0.0209291762921389,0.3865126097700881,1.182641635006446,-0.21746802,1.7391334,1.4996742
629,6.29,0.016107777,0.4131889,1.228096,-0.21746802,1.7391334,1.4996742
630,6.3,0.016107777,0.4131889,1.228096,-0.21746802,1.7391334,1.4996742
631,6.31,0.016107777,0.4131889,1.228096,-0.21746802,1.7391334,1.4996742
632,6.32,0.016107777,0.4131889,1.228096,-0.21746802,1.7391334,1.4996742
633,6.33,0.016107777,0.4131889,1.228096,-0.21746802,1.7391334,1.4996742
634,6.34,0.016107777,0.4131889,1.228096,-0.21746802,1.7391334,1.4996742
635,6.35,0.016107777,0.4131889,1.228096,0.0827137048703693,1.3718719742459384,1.3547820039238048
636,6.36,0.016107777,0.4131889,1.228096,0.32925636,1.070236,1.2357804
637,6.37,0.0134761237839265,0.4078111757544063,1.1939989353809568,0.32925636,1.070236,1.2357804
638,6.38,-0.0101472060340469,0.3595374318021838,0.8879228162324643,0.32925636,1.070236,1.2357804
639,6.39,-0.011958805,0.35583547,0.8644508,0.32925636,1.070236,1.2357804
640,6.4,-0.011958805,0.35583547,0.8644508,0.32925636,1.070236,1.2357804
641,6.41,-0.0307976775228737,0.3451197805872478,0.8261681231257113,0.32925636,1.070236,1.2357804
642,6.42,-0.065163285,0.32557237,0.7563334,0.32925636,1.070236,1.2357804
643,6.43,-0.065163285,0.32557237,0.7563334,0.32925636,1.070236,1.2357804
644,6.44,-0.065163285,0.32557237,0.7563334,0.32925636,1.070236,1.2357804
645,6.45,-0.065163285,0.32557237,0.7563334,0.32925636,1.070236,1.2357804
646,6.46,-0.065163285,0.32557237,0.7563334,0.32925636,1.070236,1.2357804
647,6.47,-0.065163285,0.32557237,0.7563334,0.32925636,1.070236,1.2357804
648,6.48,-0.065549435810634,0.3254999665478912,0.755335844769283,0.32925636,1.070236,1.2357804
649,6.49,-0.0748795540744015,0.3237505651423352,0.7312330641433715,0.32925636,1.070236,1.2357804
650,6.5,-0.07687803,0.32337585,0.72607034,0.1705521200118833,0.3026337495650709,0.3529381852937156
651,6.51,-0.07687803,0.32337585,0.72607034,0.1846928293017152,-0.0660287831577291,-0.0444539710402176
652,6.52,-0.07687803,0.32337585,0.72607034,0.29871312,-0.020158553,0.039095376
653,6.53,-0.07687803,0.32337585,0.72607034,0.2804676264175474,-0.0288994174869452,0.0238200802167802
654,6.54,-0.0800293963635963,0.3202411586755052,0.7421273025724844,0.16737708,-0.08307768,-0.07086037
655,6.55,-0.116004390768567,0.2844565212043741,0.9254284716713184,0.16737708,-0.08307768,-0.07086037
656,6.56,-0.1284384347616757,0.2722241724239257,0.9337648660955438,0.16737708,-0.08307768,-0.07086037
657,6.57,-0.1161485820488718,0.2848669951016525,0.9613474736179882,0.16737708,-0.08307768,-0.07086037
658,6.58,-0.1044565,0.2967736,0.993313,0.16737708,-0.08307768,-0.07086037
659,6.59,-0.1044565,0.2967736,0.993313,0.16737708,-0.08307768,-0.07086037
660,6.6,-0.1044565,0.2967736,0.993313,0.16737708,-0.08307768,-0.07086037
661,6.61,-0.1044565,0.2967736,0.993313,0.16737708,-0.08307768,-0.07086037
662,6.62,-0.1044565,0.2967736,0.993313,0.2820764293504628,0.0568247070806169,-0.1017211842407439
663,6.63,-0.1044565,0.2967736,0.993313,0.3036,0.08307768,-0.10751228
664,6.64,-0.1044565,0.2967736,0.993313,0.3036,0.08307768,-0.10751228
665,6.65,-0.1044565,0.2967736,0.993313,0.3036,0.08307768,-0.10751228
666,6.66,-0.1044565,0.2967736,0.993313,0.3036,0.08307768,-0.10751228
667,6.67,-0.1044565,0.2967736,0.993313,0.2484959761127564,0.069164369590066,-0.0921344121926326
668,6.68,-0.1044565,0.2967736,0.993313,-0.06414085,-0.009773844,-0.004886922
669,6.69,-0.1044565,0.2967736,0.993313,-0.06414085,-0.009773844,-0.004886922
670,6.7,-0.1044565,0.2967736,0.993313,-0.06414085,-0.009773844,-0.004886922
671,6.71,-0.134624378949677,0.2978734699160807,0.9578028589550068,-0.06414085,-0.009773844,-0.004886922
672,6.72,-0.1513155,0.298482,0.938156,-0.06414085,-0.009773844,-0.004886922
673,6.73,-0.1127823132396272,0.2807511506575108,0.9435311149293868,-0.06414085,-0.009773844,-0.004886922
674,6.74,-0.016595893,0.23649146,0.95694846,-0.0582897740013462,0.0103692045765864,0.0047050060880207
675,6.75,-0.016595893,0.23649146,0.95694846,0.01038471,0.24678956,0.11728613
676,6.76,-0.016595893,0.23649146,0.95694846,0.01038471,0.24678956,0.11728613
677,6.77,-0.016595893,0.23649146,0.95694846,0.01038471,0.24678956,0.11728613
678,6.78,-0.1010501837109489,0.2683824135994802,0.9517803546962056,0.01038471,0.24678956,0.11728613
679,6.79,-0.18011424,0.29823795,0.9469421,0.01038471,0.24678956,0.11728613
680,6.8,-0.18011424,0.29823795,0.9469421,0.01038471,0.24678956,0.11728613
681,6.81,-0.18011424,0.29823795,0.9469421,0.01038471,0.24678956,0.11728613
682,6.82,-0.18011424,0.29823795,0.9469421,0.01038471,0.24678956,0.11728613
683,6.83,-0.18011424,0.29823795,0.9469421,0.01038471,0.24678956,0.11728613
684,6.84,-0.18011424,0.29823795,0.9469421,0.01038471,0.24678956,0.11728613
685,6.85,-0.18011424,0.29823795,0.9469421,0.0498233221749071,0.1639224362820319,0.0700211779162384
686,6.86,-0.1800153076042953,0.2981280249657478,0.948030360406417,0.1599208369518878,-0.0796934808739022,-0.0653025799149767
687,6.87,-0.1782581063074862,0.2961755764137481,0.967359646671041,0.0274857547916365,-0.0195845645712221,0.0334128699154646
688,6.88,-0.17791773,0.29579738,0.9711038,0.0018325958,-0.007941248,0.052534413
689,6.89,-0.17791773,0.29579738,0.9711038,0.0312270210362981,0.0745343713443997,0.0873511106286387
690,6.9,-0.1566321125130115,0.3160693990274905,0.9524535551202165,0.064751714,0.1685988,0.12705997
691,6.91,-0.1010397,0.36901456,0.90374404,0.064751714,0.1685988,0.12705997
692,6.92,-0.1010397,0.36901456,0.90374404,0.064751714,0.1685988,0.12705997
693,6.93,-0.1010397,0.36901456,0.90374404,0.064751714,0.1685988,0.12705997
694,6.94,-0.1010397,0.36901456,0.90374404,0.064751714,0.1685988,0.12705997
695,6.95,-0.1010397,0.36901456,0.90374404,0.064751714,0.1685988,0.12705997
696,6.96,-0.1010397,0.36901456,0.90374404,0.064751714,0.1685988,0.12705997
697,6.97,-0.1010397,0.36901456,0.90374404,0.064751714,0.1685988,0.12705997
698,6.98,-0.1010397,0.36901456,0.90374404,0.064751714,0.1685988,0.12705997
699,6.99,-0.1010397,0.36901456,0.90374404,0.064751714,0.1685988,0.12705997
700,7.0,-0.1010397,0.36901456,0.90374404,0.064751714,0.1685988,0.12705997
701,7.01,-0.1010397,0.36901456,0.90374404,0.064751714,0.1685988,0.12705997
702,7.02,-0.1010397,0.36901456,0.90374404,0.064751714,0.1685988,0.12705997
703,7.03,-0.1010397,0.36901456,0.90374404,0.064751714,0.1685988,0.12705997
704,7.04,-0.1010397,0.36901456,0.90374404,0.064751714,0.1685988,0.12705997
705,7.05,-0.1010397,0.36901456,0.90374404,0.064751714,0.1685988,0.12705997
706,7.06,-0.1010397,0.36901456,0.90374404,0.064751714,0.1685988,0.12705997
707,7.07,-0.1262834117671958,0.347377092770975,0.9166663786371306,0.064751714,0.1685988,0.12705997
708,7.08,-0.16254212,0.3162982,0.93522733,0.0632055721598894,0.1059800322740497,0.0875044921046523
709,7.09,-0.16254212,0.3162982,0.93522733,0.0574642661105318,-0.1265429488792168,-0.0593773130663035
710,7.1,-0.1685322090439709,0.3180372448288322,0.9126196442996966,0.057421334,-0.1282817,-0.06047566
711,7.11,-0.1701079,0.3184947,0.9066727,0.057421334,-0.1282817,-0.06047566
712,7.12,-0.1701079,0.3184947,0.9066727,0.0378794029491548,-0.0510300069152766,-0.0088727502636014
713,7.13,-0.1701079,0.3184947,0.9066727,0.018325957,0.026267206,0.042760566
714,7.14,-0.1701079,0.3184947,0.9066727,0.018325957,0.026267206,0.042760566
715,7.15,-0.1710604136737286,0.3188289157445494,0.9083771985854344,0.018325957,0.026267206,0.042760566
716,7.16,-0.1839495990904682,0.3233514426326184,0.9314420625513622,0.018325957,0.026267206,0.042760566
717,7.17,-0.18401916,0.32337585,0.93156654,0.018325957,0.026267206,0.042760566
718,7.18,-0.18401916,0.32337585,0.93156654,0.018325957,0.026267206,0.042760566
719,7.19,-0.18401916,0.32337585,0.93156654,0.0335983444696516,0.0529938857321287,0.0520671765832868
720,7.2,-0.18401916,0.32337585,0.93156654,0.057421334,0.09468412,0.06658431
721,7.21,-0.18401916,0.32337585,0.93156654,0.057421334,0.09468412,0.06658431
722,7.22,-0.18401916,0.32337585,0.93156654,0.057421334,0.09468412,0.06658431
723,7.23,-0.18401916,0.32337585,0.93156654,0.057421334,0.09468412,0.06658431
724,7.24,-0.18401916,0.32337585,0.93156654,0.057421334,0.09468412,0.06658431
725,7.25,-0.179166963048519,0.3256357782053471,0.9152152862587049,0.057421334,0.09468412,0.06658431
726,7.26,-0.16620298,0.3316738,0.8715284,0.057421334,0.09468412,0.06658431
727,7.27,-0.16620298,0.3316738,0.8715284,0.057421334,0.09468412,0.06658431
728,7.28,-0.16620298,0.3316738,0.8715284,0.057421334,0.09468412,0.06658431
729,7.29,-0.16620298,0.3316738,0.8715284,0.0457795637460235,0.0368176769193888,0.0357678644383744
730,7.3,-0.16620298,0.3316738,0.8715284,0.036651913,-0.008552114,0.01160644
731,7.31,-0.16620298,0.3316738,0.8715284,0.036651913,-0.008552114,0.01160644
732,7.32,-0.16620298,0.3316738,0.8715284,0.0418925534900833,0.0008061720751296,0.0180636568357335
733,7.33,-0.16620298,0.3316738,0.8715284,0.0680718130789908,0.0475548473432893,0.0503202399927748
734,7.34,-0.16620298,0.3316738,0.8715284,0.07086037,0.052534413,0.05375614
735,7.35,-0.16620298,0.3316738,0.8715284,0.07086037,0.052534413,0.05375614
736,7.36,-0.16620298,0.3316738,0.8715284,0.07086037,0.052534413,0.05375614
737,7.37,-0.1696994815235186,0.3275112972116908,0.8763568972309239,0.07086037,0.052534413,0.05375614
738,7.38,-0.17645338,0.31947094,0.8856837,0.07086037,0.052534413,0.05375614
739,7.39,-0.17645338,0.31947094,0.8856837,0.07086037,0.052534413,0.05375614
740,7.4,-0.17645338,0.31947094,0.8856837,0.07086037,0.052534413,0.05375614
741,7.41,-0.17645338,0.31947094,0.8856837,0.07086037,0.052534413,0.05375614
742,7.42,-0.17645338,0.31947094,0.8856837,0.07086037,0.052534413,0.05375614
743,7.43,-0.17645338,0.31947094,0.8856837,0.0372650880434057,0.024721925550979,0.0507270584850132
744,7.44,-0.1747037365222069,0.3200742631208328,0.8816414380569019,-0.0036651916,-0.009162978,0.047036625
745,7.45,-0.16937573,0.3219115,0.86933196,-0.0036651916,-0.009162978,0.047036625
746,7.46,-0.16937573,0.3219115,0.86933196,-0.0036651916,-0.009162978,0.047036625
747,7.47,-0.16937573,0.3219115,0.86933196,-0.0036651916,-0.009162978,0.047036625
748,7.48,-0.1733680234340451,0.3205348521488921,0.8785554938335767,-0.0036651916,-0.009162978,0.047036625
749,7.49,-0.17645338,0.31947094,0.8856837,-0.0036651916,-0.009162978,0.047036625
750,7.5,-0.17645338,0.31947094,0.8856837,-0.0036651916,-0.009162978,0.047036625
751,7.51,-0.17645338,0.31947094,0.8856837,-0.0036651916,-0.009162978,0.047036625
752,7.52,-0.17645338,0.31947094,0.8856837,-0.0036651916,-0.009162978,0.047036625
753,7.53,-0.17645338,0.31947094,0.8856837,-0.0036651916,-0.009162978,0.047036625
754,7.54,-0.17645338,0.31947094,0.8856837,0.0005931076153848,0.0048736382534884,0.0331577235982465
755,7.55,-0.17645338,0.31947094,0.8856837,0.0136984926696466,0.1684417146649514,0.0231615594156276
756,7.56,-0.17645338,0.31947094,0.8856837,0.0215182044527538,1.2757128550210115,0.2916383179768329
757,7.57,-0.17645338,0.31947094,0.8856837,0.021991149,1.3426818,0.30787608
758,7.58,-0.17645338,0.31947094,0.8856837,0.021991149,1.3426818,0.30787608
759,7.59,-0.17645338,0.31947094,0.8856837,0.021991149,1.3426818,0.30787608
760,7.6,-0.17645338,0.31947094,0.8856837,0.021991149,1.3426818,0.30787608
761,7.61,-0.17645338,0.31947094,0.8856837,0.021991149,1.3426818,0.30787608
762,7.62,-0.17645338,0.31947094,0.8856837,0.021991149,1.3426818,0.30787608
763,7.63,-0.17645338,0.31947094,0.8856837,0.021991149,1.3426818,0.30787608
764,7.64,-0.17645338,0.31947094,0.8856837,-0.059713710433174,0.3141083964652869,0.0990747724771029
765,7.65,-0.162953591783789,0.3228124727127204,0.8912974736429771,-0.0792663260102686,-0.0017275284620912,0.0255398752616806
766,7.66,-0.1541347549411404,0.326054670739037,0.9022844638777104,-0.0720821,0.031154128,0.02443461
767,7.67,-0.15888128,0.3270367,0.91521466,-0.0720821,0.031154128,0.02443461
768,7.68,-0.15888128,0.3270367,0.91521466,-0.0720821,0.031154128,0.02443461
769,7.69,-0.15888128,0.3270367,0.91521466,-0.0720821,0.031154128,0.02443461
770,7.7,-0.1680406044198022,0.3304387424435644,0.9116818221463762,-0.0720821,0.031154128,0.02443461
771,7.71,-0.17596528,0.3333822,0.9086252,-0.0720821,0.031154128,0.02443461
772,7.72,-0.17596528,0.3333822,0.9086252,-0.0720821,0.031154128,0.02443461
773,7.73,-0.17596528,0.3333822,0.9086252,-0.0720821,0.031154128,0.02443461
774,7.74,-0.17596528,0.3333822,0.9086252,-0.0299697083343734,-0.0326525261232345,0.0474050057071973
775,7.75,-0.1607966489867576,0.3332627606118259,0.9212855989677322,0.0045367789338256,-0.0293850155583099,0.0281243804313297
776,7.76,-0.14497001,0.33313814,0.9344952,0.021380283,0.0030543262,-0.002443461
777,7.77,-0.14497001,0.33313814,0.9344952,0.021380283,0.0030543262,-0.002443461
778,7.78,-0.14497001,0.33313814,0.9344952,0.021380283,0.0030543262,-0.002443461
779,7.79,-0.14497001,0.33313814,0.9344952,0.021380283,0.0030543262,-0.002443461
780,7.8,-0.14497001,0.33313814,0.9344952,0.0037758455396731,-0.0327832784939438,0.0170471670152908
781,7.81,-0.14497001,0.33313814,0.9344952,-0.01282817,-0.06658431,0.035430185
782,7.82,-0.14497001,0.33313814,0.9344952,-0.01282817,-0.06658431,0.035430185
783,7.83,-0.14497001,0.33313814,0.9344952,-0.01282817,-0.06658431,0.035430185
784,7.84,-0.14497001,0.33313814,0.9344952,-0.0318371426258152,-0.0732374476962006,0.0197477820002378
785,7.85,-0.0722829008604354,0.2706632740844602,0.9471103123634136,-0.03726278,-0.07513642,0.015271631
786,7.86,-0.026846299,0.23161033,0.954996,-0.03726278,-0.07513642,0.015271631
787,7.87,-0.026846299,0.23161033,0.954996,-0.03726278,-0.07513642,0.015271631
788,7.88,-0.026846299,0.23161033,0.954996,-0.0245342776702454,-0.0519101850346209,0.0101539856581024
789,7.89,-0.026846299,0.23161033,0.954996,0.021168001002136,0.0314846901359311,-0.0082211575836183
790,7.9,-0.026846299,0.23161033,0.954996,0.021991149,0.032986723,-0.008552114
791,7.91,-0.026846299,0.23161033,0.954996,0.021991149,0.032986723,-0.008552114
792,7.92,-0.0850194001593403,0.2699731311213158,0.9428373151373146,0.021991149,0.032986723,-0.008552114
793,7.93,-0.16229807,0.32093528,0.9266854,0.021991149,0.032986723,-0.008552114
794,7.94,-0.16229807,0.32093528,0.9266854,0.021991149,0.032986723,-0.008552114
795,7.95,-0.16229807,0.32093528,0.9266854,0.021991149,0.032986723,-0.008552114
796,7.96,-0.16229807,0.32093528,0.9266854,0.021991149,0.032986723,-0.008552114
797,7.97,-0.16229807,0.32093528,0.9266854,0.0295680316878677,0.0392166045355176,-0.0114144916899236
798,7.98,-0.16229807,0.32093528,0.9266854,0.043828530119518,0.094245363862384,-0.0228929100123923
799,7.99,-0.16229807,0.32093528,0.9266854,0.0204558994469076,0.2541141507147483,-0.0392537527075882
800,8.0,-0.16229807,0.32093528,0.9266854,0.018936822,0.26450464,-0.040317107
801,8.01,-0.16229807,0.32093528,0.9266854,0.018936822,0.26450464,-0.040317107
802,8.02,-0.16229807,0.32093528,0.9266854,0.018936822,0.26450464,-0.040317107
803,8.03,-0.16229807,0.32093528,0.9266854,0.018936822,0.26450464,-0.040317107
804,8.04,-0.16229807,0.32093528,0.9266854,0.018936822,0.26450464,-0.040317107
805,8.05,-0.16229807,0.32093528,0.9266854,0.018936822,0.26450464,-0.040317107
806,8.06,-0.16229807,0.32093528,0.9266854,0.018936822,0.26450464,-0.040317107
807,8.07,-0.16229807,0.32093528,0.9266854,0.0302188994734814,0.2014085905961574,0.0069004734346249
808,8.08,-0.16229807,0.32093528,0.9266854,0.035430185,0.172264,0.028710667
809,8.09,-0.16229807,0.32093528,0.9266854,0.035430185,0.172264,0.028710667
810,8.1,-0.16229807,0.32093528,0.9266854,0.035430185,0.172264,0.028710667
811,8.11,-0.16229807,0.32093528,0.9266854,0.035430185,0.172264,0.028710667
812,8.12,-0.16229807,0.32093528,0.9266854,0.0043618905605232,0.1277798491206558,0.0022320068218678
813,8.13,-0.16229807,0.32093528,0.9266854,-0.018325957,0.095294975,-0.017104227
814,8.14,-0.16229807,0.32093528,0.9266854,-0.018325957,0.095294975,-0.017104227
815,8.15,-0.16229807,0.32093528,0.9266854,-0.018325957,0.095294975,-0.017104227
816,8.16,-0.16229807,0.32093528,0.9266854,-0.018325957,0.095294975,-0.017104227
817,8.17,-0.16229807,0.32093528,0.9266854,-0.018325957,0.095294975,-0.017104227
818,8.18,-0.16229807,0.32093528,0.9266854,-0.018325957,0.095294975,-0.017104227
819,8.19,-0.16229807,0.32093528,0.9266854,-0.018325957,0.095294975,-0.017104227
820,8.2,-0.16229807,0.32093528,0.9266854,-0.018325957,0.095294975,-0.017104227
821,8.21,-0.16229807,0.32093528,0.9266854,-0.018325957,0.095294975,-0.017104227
822,8.22,-0.16229807,0.32093528,0.9266854,-0.018325957,0.095294975,-0.017104227
823,8.23,-0.16229807,0.32093528,0.9266854,-0.018325957,0.095294975,-0.017104227
824,8.24,-0.16229807,0.32093528,0.9266854,-0.017829344967067,0.0709609897220956,-0.0176008387619447
825,8.25,-0.16229807,0.32093528,0.9266854,-0.0161458928017213,0.0083209668131429,-0.0138116652043944
826,8.26,-0.16229807,0.32093528,0.9266854,-0.0119949749608984,0.0420471826575877,0.0474143833528111
827,8.27,-0.16229807,0.32093528,0.9266854,-0.0489838442132523,-0.1112415970795904,0.0126852002057342
828,8.28,-0.16229807,0.32093528,0.9266854,-0.07086037,-0.20280726,-0.010995574
829,8.29,-0.16229807,0.32093528,0.9266854,-0.07086037,-0.20280726,-0.010995574
830,8.3,-0.16229807,0.32093528,0.9266854,-0.07086037,-0.20280726,-0.010995574
831,8.31,-0.16229807,0.32093528,0.9266854,-0.07086037,-0.20280726,-0.010995574
832,8.32,-0.1791122263181462,0.3245905287688093,0.8795325980247796,-0.07086037,-0.20280726,-0.010995574
833,8.33,-0.1816498577392848,0.3232318650777195,0.8951209541360665,-0.07086037,-0.20280726,-0.010995574
834,8.34,-0.17889395,0.32093528,0.9230245,-0.07086037,-0.20280726,-0.010995574
835,8.35,-0.17889395,0.32093528,0.9230245,-0.07086037,-0.20280726,-0.010995574
836,8.36,-0.17889395,0.32093528,0.9230245,-0.0657546300135878,-0.1940102083054673,-0.0103746056583799
837,8.37,-0.17889395,0.32093528,0.9230245,0.0063391528872113,-0.0697945732123029,-0.0016064433688451
838,8.38,-0.17889395,0.32093528,0.9230245,0.019547688,-0.047036625,0.0
839,8.39,-0.17889395,0.32093528,0.9230245,0.0152468847099705,0.0727242112835199,0.1369640510683711
840,8.4,-0.17889395,0.32093528,0.9230245,0.01160644,0.1740966,0.25289822
841,8.41,-0.17889395,0.32093528,0.9230245,0.01160644,0.1740966,0.25289822
842,8.42,-0.17889395,0.32093528,0.9230245,0.01160644,0.1740966,0.25289822
843,8.43,-0.17889395,0.32093528,0.9230245,0.01160644,0.1740966,0.25289822
844,8.44,-0.17889395,0.32093528,0.9230245,0.01160644,0.1740966,0.25289822
845,8.45,-0.17889395,0.32093528,0.9230245,0.01160644,0.1740966,0.25289822
846,8.46,-0.17889395,0.32093528,0.9230245,0.01160644,0.1740966,0.25289822
847,8.47,-0.17889395,0.32093528,0.9230245,0.01160644,0.1740966,0.25289822
848,8.48,-0.17889395,0.32093528,0.9230245,0.0114772517563786,0.1430914587520144,0.1964430254237509
849,8.49,-0.17889395,0.32093528,0.9230245,0.010995574,0.027488936,-0.014049901
850,8.5,-0.17889395,0.32093528,0.9230245,0.010995574,0.027488936,-0.014049901
851,8.51,-0.17889395,0.32093528,0.9230245,0.010995574,0.027488936,-0.014049901
852,8.52,-0.17889395,0.32093528,0.9230245,0.010995574,0.027488936,-0.014049901
853,8.53,-0.17889395,0.32093528,0.9230245,0.010995574,0.027488936,-0.014049901
854,8.54,-0.17889395,0.32093528,0.9230245,0.0050134447013149,0.0217243385916424,-0.0166602847522433
855,8.55,-0.17889395,0.32093528,0.9230245,-0.022602014,-0.004886922,-0.028710667
856,8.56,-0.17889395,0.32093528,0.9230245,-0.022602014,-0.004886922,-0.028710667
857,8.57,-0.17889395,0.32093528,0.9230245,-0.022602014,-0.004886922,-0.028710667
858,8.58,-0.17889395,0.32093528,0.9230245,-0.022602014,-0.004886922,-0.028710667
859,8.59,-0.17889395,0.32093528,0.9230245,-0.022602014,-0.004886922,-0.028710667
860,8.6,-0.1776486675766067,0.3234258472765157,0.9190514552678356,-0.022602014,-0.004886922,-0.028710667
861,8.61,-0.1725776349304879,0.332073178950488,0.9075835540988588,-0.022602014,-0.004886922,-0.028710667
862,8.62,-0.1628625178974122,0.3393119262009559,0.9150127102781468,-0.022602014,-0.004886922,-0.028710667
863,8.63,-0.1659316715697228,0.334039017106139,0.926233771812953,-0.022602014,-0.004886922,-0.028710667
864,8.64,-0.16815543,0.33094162,0.93107843,-0.022602014,-0.004886922,-0.028710667
865,8.65,-0.16815543,0.33094162,0.93107843,-0.022602014,-0.004886922,-0.028710667
866,8.66,-0.16815543,0.33094162,0.93107843,-0.022602014,-0.004886922,-0.028710667
867,8.67,-0.16815543,0.33094162,0.93107843,-0.022602014,-0.004886922,-0.028710667
868,8.68,-0.16815543,0.33094162,0.93107843,-0.022602014,-0.004886922,-0.028710667
869,8.69,-0.16815543,0.33094162,0.93107843,-0.022602014,-0.004886922,-0.028710667
870,8.7,-0.16815543,0.33094162,0.93107843,-0.0048432496401684,-0.0252503052152991,-0.0334463378577336
871,8.71,-0.16815543,0.33094162,0.93107843,0.02321288,-0.057421334,-0.040927973
872,8.72,-0.1678047216800955,0.3313667228807873,0.9304832861410792,0.02321288,-0.057421334,-0.040927973
873,8.73,-0.1606912658267264,0.3399891318856388,0.9184119170672248,0.02321288,-0.057421334,-0.040927973
874,8.74,-0.1604566343170241,0.3415916267042702,0.9216721500000756,0.02321288,-0.057421334,-0.040927973
875,8.75,-0.16058967,0.34192422,0.9232686,0.02321288,-0.057421334,-0.040927973
876,8.76,-0.16058967,0.34192422,0.9232686,0.02321288,-0.057421334,-0.040927973
877,8.77,-0.162154028986759,0.3399844079851081,0.9238317526210196,0.02321288,-0.057421334,-0.040927973
878,8.78,-0.1666911,0.33435842,0.92546505,0.02321288,-0.057421334,-0.040927973
879,8.79,-0.1670466479504879,0.3337065834396784,0.9229959728557612,0.02321288,-0.057421334,-0.040927973
880,8.8,-0.1706304471577394,0.3271362984895549,0.898108537279144,0.02321288,-0.057421334,-0.040927973
881,8.81,-0.17108414,0.32630453,0.8949579,-3.2365012876198,1.3247376914077071,0.8001126384129317
882,8.82,-0.17108414,0.32630453,0.8949579,-4.723821,1.9553796,1.1838568
883,8.83,-0.17108414,0.32630453,0.8949579,-4.723821,1.9553796,1.1838568
884,8.84,-0.17108414,0.32630453,0.8949579,-4.723821,1.9553796,1.1838568
885,8.85,-0.17108414,0.32630453,0.8949579,-4.723821,1.9553796,1.1838568
886,8.86,-0.17108414,0.32630453,0.8949579,-4.723821,1.9553796,1.1838568
887,8.87,-0.17108414,0.32630453,0.8949579,-4.723821,1.9553796,1.1838568
888,8.88,-0.1279699829322479,0.2998465585326432,0.9084610534547328,-4.723821,1.9553796,1.1838568
889,8.89,-0.017572122,0.23209843,0.94303715,-3.960338889123939,1.6365077663871868,0.9904282232968268
890,8.9,-0.017572122,0.23209843,0.94303715,-0.2156699964599742,0.072529489664395,0.0417144763545345
891,8.91,-0.017572122,0.23209843,0.94303715,0.016493361,-0.02443461,-0.017104227
892,8.92,-0.017572122,0.23209843,0.94303715,0.016493361,-0.02443461,-0.017104227
893,8.93,-0.017572122,0.23209843,0.94303715,0.016493361,-0.02443461,-0.017104227
894,8.94,-0.017572122,0.23209843,0.94303715,0.016493361,-0.02443461,-0.017104227
895,8.95,-0.017572122,0.23209843,0.94303715,0.016493361,-0.02443461,-0.017104227
896,8.96,-0.017572122,0.23209843,0.94303715,-0.0151921109109008,-0.0150628505069074,-0.0059473702797032
897,8.97,-0.017572122,0.23209843,0.94303715,-0.02687807,-0.01160644,-0.0018325958
898,8.98,-0.017572122,0.23209843,0.94303715,-0.02687807,-0.01160644,-0.0018325958
899,8.99,-0.017572122,0.23209843,0.94303715,-0.0093403925251238,-0.0237754404158554,0.0004938308181589
900,9.0,-0.0462644356450851,0.2459778833928169,0.9360162792948188,0.032986723,-0.053145275,0.0061086523
901,9.01,-0.1819247737026124,0.3116014285211053,0.9028208491491496,0.032986723,-0.053145275,0.0061086523
902,9.02,-0.1901206,0.31556603,0.90081537,0.032986723,-0.053145275,0.0061086523
903,9.03,-0.1901206,0.31556603,0.90081537,0.032986723,-0.053145275,0.0061086523
904,9.04,-0.1901206,0.31556603,0.90081537,0.032986723,-0.053145275,0.0061086523
905,9.05,-0.1901206,0.31556603,0.90081537,0.0379536261147698,-0.0514146467961433,0.0102275475090378
906,9.06,-0.1901206,0.31556603,0.90081537,0.1759002663071295,-0.0033496170124442,0.1246223207232741
907,9.07,-0.1809855060567934,0.3216044623586741,0.9084020887423524,0.20830505,0.007941248,0.15149458
908,9.08,-0.17572121,0.32508424,0.9127741,0.20830505,0.007941248,0.15149458
909,9.09,-0.17572121,0.32508424,0.9127741,0.20830505,0.007941248,0.15149458
910,9.1,-0.17572121,0.32508424,0.9127741,0.20830505,0.007941248,0.15149458
911,9.11,-0.17572121,0.32508424,0.9127741,0.20830505,0.007941248,0.15149458
912,9.12,-0.17572121,0.32508424,0.9127741,0.20830505,0.007941248,0.15149458
913,9.13,-0.17572121,0.32508424,0.9127741,0.20830505,0.007941248,0.15149458
914,9.14,-0.17572121,0.32508424,0.9127741,0.20830505,0.007941248,0.15149458
915,9.15,-0.17572121,0.32508424,0.9127741,0.1886057142155016,0.0132191831974087,0.1370731795346018
916,9.16,-0.17572121,0.32508424,0.9127741,0.04642576,0.05131268,0.032986723
917,9.17,-0.17572121,0.32508424,0.9127741,0.04642576,0.05131268,0.032986723
918,9.18,-0.1818914812077834,0.326781080225386,0.8867047419121218,0.04642576,0.05131268,0.032986723
919,9.19,-0.1784767424338235,0.3312183766319832,0.8971840072265728,0.04642576,0.05131268,0.032986723
920,9.2,-0.1696198,0.3355787,0.92961407,0.04642576,0.05131268,0.032986723
921,9.21,-0.1696198,0.3355787,0.92961407,0.04642576,0.05131268,0.032986723
922,9.22,-0.1696198,0.3355787,0.92961407,0.04642576,0.05131268,0.032986723
923,9.23,-0.1696198,0.3355787,0.92961407,0.04642576,0.05131268,0.032986723
924,9.24,-0.1696198,0.3355787,0.92961407,0.04642576,0.05131268,0.032986723
925,9.25,-0.1696198,0.3355787,0.92961407,0.013729193478528,0.043320186578167,0.0145797677078435
926,9.26,-0.1696198,0.3355787,0.92961407,-0.03604105,0.031154128,-0.013439035
927,9.27,-0.1696198,0.3355787,0.92961407,-0.03604105,0.031154128,-0.013439035
928,9.28,-0.1696198,0.3355787,0.92961407,-0.03604105,0.031154128,-0.013439035
929,9.29,-0.1696198,0.3355787,0.92961407,-0.03604105,0.031154128,-0.013439035
930,9.3,-0.1696198,0.3355787,0.92961407,-0.03604105,0.031154128,-0.013439035
931,9.31,-0.1696198,0.3355787,0.92961407,-0.03604105,0.031154128,-0.013439035
932,9.32,-0.1696198,0.3355787,0.92961407,-0.03604105,0.031154128,-0.013439035
933,9.33,-0.1696198,0.3355787,0.92961407,-0.03604105,0.031154128,-0.013439035
934,9.34,-0.1696198,0.3355787,0.92961407,-0.03604105,0.031154128,-0.013439035
935,9.35,0.3653695629154956,0.2445333665577523,0.6498964164882846,-0.03604105,0.031154128,-0.013439035
936,9.36,0.2426052816756155,0.2681025249005909,0.6981053339611134,-0.03604105,0.031154128,-0.013439035
937,9.37,-0.16034561,0.3392396,0.89349353,-0.03604105,0.031154128,-0.013439035
938,9.38,-0.16034561,0.3392396,0.89349353,-0.0168856448473954,0.0369490400956244,-0.0047466661977854
939,9.39,-0.16034561,0.3392396,0.89349353,0.036651913,0.053145275,0.019547688
940,9.4,-0.16034561,0.3392396,0.89349353,0.036651913,0.053145275,0.019547688
941,9.41,-0.16034561,0.3392396,0.89349353,0.036651913,0.053145275,0.019547688
942,9.42,-0.16034561,0.3392396,0.89349353,0.036651913,0.053145275,0.019547688
943,9.43,-0.16034561,0.3392396,0.89349353,0.0232030207537227,0.0339082518429995,0.0169941009810437
944,9.44,-0.16034561,0.3392396,0.89349353,0.2870766477409758,-0.0860177856929038,-0.245325310132123
945,9.45,-0.16034561,0.3392396,0.89349353,2.653575449433521,-0.6417073638003647,-2.2713437927997244
946,9.46,-0.16034561,0.3392396,0.89349353,3.5888333,-0.86132,-3.0720413
947,9.47,-0.16034561,0.3392396,0.89349353,3.5888333,-0.86132,-3.0720413
948,9.48,-0.1588619163084678,0.3401010929837902,0.8975617300977214,3.5888333,-0.86132,-3.0720413
949,9.49,-0.1528596879105183,0.3435862312447749,0.914019484346086,3.5888333,-0.86132,-3.0720413
950,9.5,-0.15277983,0.3436326,0.91423845,3.5888333,-0.86132,-3.0720413
951,9.51,-0.15277983,0.3436326,0.91423845,3.5888333,-0.86132,-3.0720413
952,9.52,-0.15277983,0.3436326,0.91423845,3.5888333,-0.86132,-3.0720413
953,9.53,-0.15277983,0.3436326,0.91423845,3.5888333,-0.86132,-3.0720413
954,9.54,-0.15277983,0.3436326,0.91423845,3.5888333,-0.86132,-3.0720413
955,9.55,-0.15277983,0.3436326,0.91423845,3.2489591037712575,-0.781992993462697,-2.7835742277813247
956,9.56,-0.15277983,0.3436326,0.91423845,0.0362670891268586,-0.0321471879384806,-0.0568127681350613
957,9.57,-0.15277983,0.3436326,0.91423845,-0.017715093,-0.019547688,-0.010995574
958,9.58,-0.15277983,0.3436326,0.91423845,-0.017715093,-0.019547688,-0.010995574
959,9.59,-0.15277983,0.3436326,0.91423845,-0.017715093,-0.019547688,-0.010995574
960,9.6,-0.15277983,0.3436326,0.91423845,-0.017715093,-0.019547688,-0.010995574
961,9.61,-0.1540477769507958,0.3429751467381719,0.9153185586593544,-0.017715093,-0.019547688,-0.010995574
962,9.62,-0.1592742388703902,0.3402651323841006,0.9197707534247568,-0.017715093,-0.019547688,-0.010995574
963,9.63,-0.15936938,0.3402158,0.9198518,-0.017715093,-0.019547688,-0.010995574
964,9.64,-0.15936938,0.3402158,0.9198518,-0.017715093,-0.019547688,-0.010995574
965,9.65,-0.282460132657253,0.4264053843328246,0.7189165326785594,-0.017715093,-0.019547688,-0.010995574
966,9.66,-0.38975942,0.5015376,0.5437595,-0.017715093,-0.019547688,-0.010995574
967,9.67,-0.38975942,0.5015376,0.5437595,-0.017715093,-0.019547688,-0.010995574
968,9.68,-0.38975942,0.5015376,0.5437595,-0.017715093,-0.019547688,-0.010995574
969,9.69,-0.38975942,0.5015376,0.5437595,-0.017715093,-0.019547688,-0.010995574
970,9.7,-0.38975942,0.5015376,0.5437595,0.0035142751214655,-0.024501206938734,0.0091723249913724
971,9.71,-0.2954339397493518,0.4206249020066002,0.7084201893786245,0.018936822,-0.028099801,0.023823744
972,9.72,-0.1786499,0.32044718,0.912286,0.018936822,-0.028099801,0.023823744
973,9.73,-0.1804468344437897,0.3197087139836528,0.9116952288006764,0.0172116959661425,-0.0295784804258933,0.0243782489990367
974,9.74,-0.1948112412297185,0.3138055346589672,0.906972698241021,0.0034213141339247,-0.0413988074572568,0.0288108733490916
975,9.75,-0.19646609,0.31312546,0.90642864,0.0018325958,-0.042760566,0.029321533
976,9.76,-0.0095498248853867,0.1939724218305915,0.968680006831286,-0.004659597753354,0.0067424078682057,0.0333791537217556
977,9.77,0.084931925,0.13374338,1.0001466,-0.007941248,0.03176499,0.035430185
978,9.78,0.084931925,0.13374338,1.0001466,-0.007941248,0.03176499,0.035430185
979,9.79,0.084931925,0.13374338,1.0001466,-0.007941248,0.03176499,0.035430185
980,9.8,0.084931925,0.13374338,1.0001466,-0.007941248,0.03176499,0.035430185
981,9.81,0.084931925,0.13374338,1.0001466,-0.007941248,0.03176499,0.035430185
982,9.82,0.084931925,0.13374338,1.0001466,-0.007941248,0.03176499,0.035430185
983,9.83,0.0209420992142183,0.1808142709147884,0.984677849784622,-0.007941248,0.03176499,0.035430185
984,9.84,-0.17352471,0.32386398,0.9376679,-0.007941248,0.03176499,0.035430185
985,9.85,-0.17352471,0.32386398,0.9376679,-0.007941248,0.03176499,0.035430185
986,9.86,-0.1864928606439181,0.3175342923186711,0.9245454091580309,-0.007941248,0.03176499,0.035430185
987,9.87,-0.1860181278362574,0.3206006934525143,0.9071245958649652,-0.007941248,0.03176499,0.035430185
988,9.88,-0.17547716,0.32947728,0.8942258,-0.007941248,0.03176499,0.035430185
989,9.89,-0.1754499788379516,0.3294500988379516,0.8947452597606045,-0.0084930727246158,0.0305025965231027,0.0352412039280614
990,9.9,-0.1736975492895076,0.3276976692895076,0.9282359777840689,-0.0440704314578115,-0.0508866990023615,0.0230571768444186
991,9.91,-0.17328064,0.32728076,0.93620354,-0.052534413,-0.070249505,0.020158553
992,9.92,-0.17328064,0.32728076,0.93620354,-0.0189140737175914,-0.0022177602988877,0.007105951229305
993,9.93,-0.17328064,0.32728076,0.93620354,-0.00061086525,0.03481932,0.0
994,9.94,-0.17328064,0.32728076,0.93620354,-0.00061086525,0.03481932,0.0
995,9.95,-0.1764117831593475,0.3257366357137964,0.9302415245772412,-0.00061086525,0.03481932,0.0
996,9.96,-0.1909687078061258,0.3185578835023487,0.9025236577039444,-0.00061086525,0.03481932,0.0
997,9.97,-0.19109683,0.3184947,0.9022797,-0.0390871375855489,-0.012144368126155,-0.0113165512999004
998,9.98,-0.19109683,0.3184947,0.9022797,-0.0421497,-0.015882496,-0.012217305
999,9.99,-0.19109683,0.3184947,0.9022797,-0.0421497,-0.015882496,-0.012217305
