id,timestamp,acc_x,acc_y,acc_z,gyro_x,gyro_y,gyro_z
0,4.77e-07,-0.16389675625,0.68218161,0.814510175,1.6050012,-0.98560205,0.12125318
1,0.010000477,-0.086590415,0.7185175699999999,0.483458085,1.4913836,-1.1279295,0.096208442
2,0.020000477,-0.2032653342857143,0.6999972685714286,0.1668999799999999,1.0164062214285714,-0.8571496285714286,0.0528382868571428
3,0.030000477,-0.34494607,0.7308222285714285,0.0195656007142857,0.3668137757142857,-0.5262449028571429,0.1851303451428571
4,0.040000477,-0.4616079328571428,0.7930906914285715,0.1234653795714285,-0.2478294599999999,-0.3613161542857143,0.3847901271428571
5,0.050000477,-0.5136667542857143,0.7837652742857143,0.4438629914285714,-0.6688122685714285,-0.3719623642857143,0.5851480642857142
6,0.060000477,-0.482802565,0.7539007349999999,0.694446,-0.75729785,-0.5879405000000001,0.7033906499999999
7,0.070000477,-0.3320838242857142,0.6755795142857143,0.9476075142857144,-0.6991801142857142,-1.0573329857142857,0.8240765985714287
8,0.080000477,-0.0721027816666666,0.5603325166666667,0.8229748166666666,-0.395676315,-1.5671287000000005,0.7369872150000001
9,0.090000477,-0.1070053714285714,0.7390762714285714,0.8214373142857143,-0.1305686014285714,-1.5058694428571429,0.6820109742857143
10,0.100000477,-0.0888161577142857,0.8748420257142857,0.7644043885714286,0.0748506028571428,-1.1184177142857143,0.9757412128571428
11,0.110000477,0.027654054,0.853718525,0.6266422216666667,0.2539597433333333,-0.617872,1.3315452333333333
12,0.120000477,0.0251582634285714,0.7849848228571429,0.6322624714285714,0.2975262428571428,-0.3382784794285714,1.4562162714285714
13,0.130000477,-0.1033190338333333,0.7141219383333333,0.739052275,0.4266768166666666,-0.0903035888333333,1.8137073666666663
14,0.140000477,-0.0833454542857142,0.7724405371428571,0.7623398071428572,0.4842709685714285,-0.1197696977142857,1.9126064428571428
15,0.150000477,0.0493321449999999,0.74952547,0.796586125,0.6649072,-0.1654378,1.8568739
16,0.160000477,0.1067048311428571,0.6842341857142857,0.8440039300000001,0.9727742285714286,-0.3454341142857143,1.4679096428571428
17,0.170000477,0.0501045486666666,0.7576153200000001,0.9301558566666668,1.1621369,-1.02103115,0.925128175
18,0.180000477,0.08947822,0.7527573228571429,0.8729995142857143,1.452900157142857,-1.2686861,0.6813128471428571
19,0.190000477,0.0980937042857142,0.6689414571428571,0.7375909399999999,1.4487115285714285,-0.8616873285714285,0.63209598
20,0.200000477,0.0791611233333333,0.63664284,0.5735192466666666,1.3380609,-0.36905356,0.6486179733333334
21,0.210000477,0.06938123,0.7399081457142858,0.5019500357142858,1.115014442857143,0.1404512514285714,0.7134259742857143
22,0.220000477,0.025641742,0.7861739,0.6176885033333334,0.8070310333333334,0.4910194133333332,0.7447246466666666
23,0.230000477,-0.0673994065714285,0.8181836142857143,0.7978688785714285,0.6724119214285713,0.1631398578571428,0.75217115
24,0.240000477,-0.1634895028571428,0.8790930828571428,0.9029098457142856,0.7935341942857143,-0.714036829142857,0.8392605
25,0.250000477,-0.2023898533333333,0.8932329800000001,0.9643957333333332,0.9068027333333334,-1.2645556533333333,0.9581139333333332
26,0.260000477,-0.1162001605714285,0.8236935142857142,1.0453310285714286,1.2340423714285715,-1.9908821142857145,1.209957542857143
27,0.270000477,0.1334224213333333,0.7773726,1.0974826666666668,1.6157928166666666,-2.334760033333333,1.2759581166666667
28,0.280000477,0.4085691428571428,0.7801369857142858,1.244554328571429,2.380515357142857,-2.9785349,0.841529357142857
29,0.290000477,0.4856990699999999,0.7432903,1.08553595,2.7975786333333335,-3.1467796666666668,0.4209755699999999
30,0.300000477,0.4817092785714285,0.6829579428571428,0.6240303,3.132555657142857,-2.6914367142857145,-0.0963829685714285
31,0.310000477,0.4461235699999999,0.7038418666666667,0.3920249,2.998751,-2.298516333333333,-0.3507281266666666
32,0.320000477,0.3794559371428571,0.7864570428571429,0.2497358357142857,2.6848917857142856,-1.9048398714285717,-0.5243251085714286
33,0.330000477,0.3440575257142857,0.8817151857142856,0.2945380971428571,2.379991771428571,-1.6617227285714284,-0.5861079457142857
34,0.340000477,0.2965925133333333,0.8715142333333333,0.2403189066666666,2.168813266666666,-1.5826034333333334,-0.6292745
35,0.350000477,0.21283473,0.8353100285714286,0.20532557,1.9384365714285712,-1.5177373,-0.6857633428571429
36,0.360000477,0.095757627,0.8025163000000001,0.2969279,1.7436635333333337,-1.5357718666666669,-0.6964677
37,0.370000477,0.1550656631428571,0.7383008928571428,0.6158024885714285,1.7291777571428573,-2.284961528571429,-0.6599331857142857
38,0.380000477,0.3766581366666666,0.7689117200000001,0.5325971333333334,1.881715,-2.4717934500000003,-0.7070557000000001
39,0.390000477,0.5031609285714286,0.81946861,0.1648049114285714,1.8691489428571428,-2.0195046428571426,-0.7639517714285714
40,0.400000477,0.5680340342857143,0.8166504571428571,-0.0200795685714285,1.516777385714286,-1.1688562428571427,-0.78035739
41,0.410000477,0.5002120866666667,0.7820984833333333,-0.2229601433333333,1.0432253,-0.1874283066666666,-0.7999044833333334
42,0.420000477,0.3419406857142857,0.7225857142857143,-0.2420872857142857,0.5151623857142857,0.6422186099999999,-0.80164976
43,0.430000477,0.24055266,0.65381864,-0.0730530422,-0.07187636,1.2834918666666668,-0.8104925
44,0.440000477,0.2132485014285714,0.5919291542857142,0.1155119614428571,-0.4513506971428572,1.6970646285714286,-0.9060173928571428
45,0.450000477,0.2274827842857142,0.5939719428571429,0.329061,-0.56444468,1.8583282857142855,-1.006545372857143
46,0.460000477,0.2442215628571428,0.6771170285714286,0.5200477628571428,-0.5330296657142857,1.8064934714285716,-1.0897951285714285
47,0.470000477,0.3053836733333333,0.8480678199999999,0.5696267666666667,-0.4213319,1.5392333,-1.1350560333333333
48,0.480000477,0.3953758514285714,0.8958144842857143,0.3650822971428571,-0.4909684714285714,1.6661731857142856,-1.1171960857142855
49,0.490000477,0.4080246742857142,0.8538695,0.1083033571428571,-0.7859204428571429,2.1886439714285713,-1.206205142857143
50,0.500000477,0.136755946,0.7838872,0.0221354373333333,-1.2038272333333333,2.9551262166666667,-1.1122510333333333
51,0.510000477,0.0091381632857142,0.6823177142857143,-0.1544994311428571,-1.534644642857143,3.5215563428571426,-0.9243427857142856
52,0.520000477,0.102272227,0.6466942566666667,-0.1755082033333333,-1.98693345,4.085804333333333,-0.8577313333333333
53,0.530000477,0.0513096137999999,0.6514622714285715,0.0572115271428571,-2.236769942857143,4.002205628571429,-0.9431918142857142
54,0.540000477,-0.1564159126285714,0.6336781,0.4051978771428571,-2.4147883142857145,3.4089858,-1.035866057142857
55,0.550000477,-0.4519318499999999,0.59210767,0.9156785,-2.3133295333333335,2.6258796,-0.9721633833333332
56,0.560000477,-0.4176419685714285,0.5948082542857142,1.0391852142857143,-1.2494662285714286,1.6658677857142856,-0.1340809857142857
57,0.570000477,-0.2963195514285714,0.6222837228571428,1.034794745714286,-0.3508226642857143,1.2949525714285712,0.3661156585714286
58,0.580000477,-0.17383636,0.6220027499999999,1.0315999,0.246400505,1.047297625,0.499978465
59,0.590000477,-0.1386884014285714,0.5600805457142858,0.9077010857142858,0.9956373571428572,0.4427333785714285,0.5135916714285714
60,0.600000477,-0.27803454,0.4721617,0.86611766,1.5789383833333333,-0.2794626216666666,0.54762455
61,0.610000477,-0.4037169399999999,0.4231823571428572,0.8434681885714286,2.0726484714285713,-1.0009604342857144,0.68009115
62,0.620000477,-0.55877246,0.3438716933333333,0.9103884666666668,2.7092093666666663,-1.9825048,0.8844050166666667
63,0.630000477,-0.69289326,0.2778951385714285,1.0423735857142855,3.651601199999999,-3.235352485714286,1.2403253428571428
64,0.640000477,-0.7955995714285714,0.2204788928571428,1.0166447157142855,4.530697714285714,-4.210853657142858,1.592696942857143
65,0.650000477,-0.8410551666666667,0.101621781,0.6975813233333333,5.380699,-4.9684788666666675,2.012436266666666
66,0.660000477,-0.7694264714285713,-0.1144970962857142,0.0706138764285714,6.401962857142856,-5.780207528571429,2.7913537857142856
67,0.670000477,-0.62531084,-0.112567544,-0.2503805,6.575821333333333,-5.7283727833333336,3.2216338
68,0.680000477,-0.5141110114285714,-0.1144840304285714,-0.3180238,6.568462285714285,-5.521731857142858,3.484381785714286
69,0.690000477,-0.4139919228571428,-0.1514461092857142,-0.3965388171428571,6.480325785714285,-5.181228,3.7547254857142858
70,0.700000477,-0.4123614566666667,-0.16593447,-0.3720847266666667,6.357341900000001,-4.762826866666667,4.004765533333333
71,0.710000477,-0.4086910914285714,-0.1930077814285714,-0.2290159828571429,6.326567,-4.462871871428571,4.316181285714285
72,0.720000477,-0.3770087916666667,-0.2336772416666666,-0.1336510933333333,6.508628333333333,-4.514212116666667,4.63393835
73,0.730000477,-0.3131846585714286,-0.2717710714285714,-0.1586590828571428,6.5815518285714285,-4.551182900000001,4.713232114285715
74,0.740000477,-0.0655983465,-0.39712682,-0.311755995,6.90242135,-4.56654145,4.9409905
75,0.750000477,0.1174066797142857,-0.4322464728571428,-0.4256694357142857,7.073894871428571,-4.2729858,4.899627714285714
76,0.760000477,0.34980192,-0.2895545,-0.8154692916666667,7.0573728,-3.7496350333333335,4.662037333333333
77,0.770000477,0.42619647,-0.1577182607142857,-1.2258816142857143,6.704768585714286,-3.1562697285714285,4.4587705714285715
78,0.780000477,0.6354508414285716,-0.0104535709714285,-1.5875490714285714,5.767270857142857,-2.1734382142857145,4.227346785714286
79,0.790000477,0.8576617783333335,0.0991419591166666,-1.6272900666666663,4.7368152,-1.2315699,3.9526399
80,0.800000477,1.000067042857143,0.1649791371428571,-1.5109809714285716,3.606922142857143,-0.2660239935714285,3.5466881999999997
81,0.810000477,1.0893536,0.2039796742857142,-1.3305654142857144,2.551029,0.6034734641428571,3.0365871714285717
82,0.820000477,1.1160306,0.16416608,-1.2100503,1.99227835,1.16274773,2.6849791999999995
83,0.830000477,1.038557977142857,0.1155642285714285,-1.0556365399999998,1.3989711571428571,1.7929457714285717,2.2822563
84,0.840000477,0.85116243,0.1251139999999999,-0.860995355,1.0851701466666668,2.1050305999999996,2.0653763333333335
85,0.850000477,0.5911407714285714,0.2032522771428571,-0.6591281371428571,0.8101143657142857,2.123065171428572,1.9750873142857144
86,0.860000477,0.5244121342857142,0.2371828314285714,-0.5783177,0.7331476114285714,1.8625824285714283,2.097954842857143
87,0.870000477,0.7290974599999999,0.20598255,-0.5278306133333334,0.7092955166666667,1.7137320166666663,2.310733416666667
88,0.880000477,0.9587188857142858,0.1665994485714285,-0.4295154557142857,0.7635154571428571,1.668616557142857,2.3613173714285716
89,0.890000477,1.1190243714285713,0.1484407185714285,-0.3790682657142857,0.9307130714285714,1.5616310285714283,2.2962185857142856
90,0.900000477,1.3476294666666666,0.1152709533333333,-0.44333888,1.1851454666666663,1.4883293666666668,2.08533065
91,0.910000477,1.4319216,0.1082859342857142,-0.6564320371428571,1.2698205571428571,1.5033387428571428,1.8871252857142855
92,0.920000477,1.4321110500000005,0.1108601275,-0.8534187000000001,1.2199637666666667,1.6104988,1.5848432
93,0.930000477,1.4038536857142856,0.1038954345714285,-0.9678874571428572,1.0649249214285714,1.7279559857142857,1.389721171428571
94,0.940000477,1.3085926333333333,0.1002294226666666,-1.0126302,0.7597922,1.889503266666667,1.1820913
95,0.950000477,1.0310314285714286,0.1111563171428571,-0.8758699285714285,0.31567714,2.0597114857142858,1.0809815
96,0.960000477,0.9582919142857144,0.0916865394285714,-0.5777166485714286,0.2184651557142857,2.0616312714285714,1.2424197
97,0.970000477,1.0184791333333332,0.1019114416666666,-0.4133930166666666,0.442151605,1.8263569166666669,1.4624701333333334
98,0.980000477,1.1787229428571429,0.1247111171428571,-0.4785209542857143,0.7567088342857142,1.5260272857142856,1.5815271285714287
99,0.990000477,1.3792355285714286,0.1675968857142857,-0.6710496014285715,0.9472931857142856,1.3410278714285713,1.5581404857142858
100,1.000000477,1.519590716666667,0.191261165,-0.884502855,0.955670525,1.3301199,1.4571761499999998
101,1.010000477,1.5229809,0.2098859428571428,-1.0154077,0.7575815057142857,1.4755888428571429,1.1921557142857142
102,1.020000477,1.4397007714285714,0.2317469771428571,-1.0510064428571428,0.5943980428571428,1.5872866428571428,1.0619579714285714
103,1.030000477,1.3475583,0.2554519,-0.9569054333333332,0.5199328666666666,1.5852504666666665,1.1295583333333334
104,1.040000477,1.3248638428571429,0.3043687971428571,-0.78177475,0.5584453242857143,1.4157257857142855,1.3450420285714286
105,1.050000477,1.9611292714285715,0.4420771857142857,-0.5790712328571429,1.1071606585714286,0.3971816257142856,1.693399457142857
106,1.060000477,2.385002,0.4835038,-0.74737591,1.3765443,-0.163401635,1.3893721
107,1.070000477,2.7232075714285715,0.47390395,-1.1818981714285717,1.3815184285714286,-0.5993720485714286,0.3722241457142857
108,1.080000477,2.5686210285714286,0.44659838,-1.4988461571428573,1.0403165571428572,-0.5508533000000001,-0.4068679228571428
109,1.090000477,2.2306688,0.3902361866666666,-1.5446327666666668,0.441133535,-0.3928766000000001,-1.1851455000000002
110,1.100000477,1.8606312428571428,0.3031143914285714,-1.2925013142857142,0.118526185,-0.4084386542857143,-1.4700912285714287
111,1.110000477,1.6907491,0.2770181999999999,-1.0110854,0.1060329103333333,-0.6895447533333333,-1.4978992666666666
112,1.120000477,1.736451442857143,0.2665355928571428,-0.8918464857142857,0.5374583414285715,-1.4353601428571428,-1.348968857142857
113,1.130000477,1.8732234142857145,0.2861578142857143,-1.0184262,0.8785292271428571,-1.9935000857142855,-1.2585634571428572
114,1.140000477,2.1064034,0.38259854,-1.4947671500000002,1.0448541999999998,-2.65871275,-1.2513206
115,1.150000477,2.384559857142857,0.4876112171428571,-2.026864857142857,0.8232039414285713,-3.2653494714285713,-1.4556054285714286
116,1.160000477,2.6088064857142856,0.5189893428571428,-2.279423142857143,-0.0299751442857142,-3.6277565,-2.078407885714286
117,1.170000477,2.5780265,0.4373832166666666,-2.0479599166666667,-1.288735,-3.8225293,-3.1432674000000005
118,1.180000477,2.2175335428571428,0.2568834514285714,-1.5723521857142857,-1.7515827142857143,-3.910491442857143,-3.599832085714286
119,1.190000477,1.7772683571428571,0.1414803814285714,-1.0903684857142857,-1.8636295,-4.012415728571429,-3.7684257714285714
120,1.200000477,1.1781785,0.11390909,-0.54542816,-1.1934428,-4.6373997,-3.4071534
121,1.210000477,1.1611740428571429,0.1299378957142857,-0.5344170685714286,-0.9930849314285712,-4.7735313,-3.2654368285714286
122,1.220000477,1.330214783333333,0.2027608083333333,-0.6538847083333333,-0.1657941316666666,-5.34089225,-2.747845566666667
123,1.230000477,1.5414618285714283,0.2704295442857142,-1.0454965285714286,0.1974781922857142,-5.669557057142858,-2.587047085714286
124,1.240000477,1.7588983,0.3259793849999999,-1.5050268000000002,0.1969473373333333,-5.769096,-2.5963552
125,1.250000477,1.8649606571428572,0.3276149385714286,-1.7524847,-0.2513418245714285,-5.7754952714285706,-2.8123625714285714
126,1.260000477,1.8155936428571429,0.2470832428571428,-1.6012475857142856,-1.1115892314285714,-5.741986085714286,-3.218663271428571
127,1.270000477,1.7174374666666667,0.1497750016666666,-1.13545745,-1.707369,-5.808190233333334,-3.5507024499999997
128,1.280000477,1.516050957142857,0.07500002,-0.7016698428571428,-1.8784644142857143,-6.095928214285714,-3.780468185714286
129,1.290000477,1.228586485714286,-0.02582468,-0.3450375685714286,-1.9028982428571428,-6.414266928571428,-3.9138074142857144
130,1.300000477,1.0206083333333331,-0.1372641176666666,-0.053356775,-1.8332035,-6.707357333333333,-3.961802666666667
131,1.310000477,0.7822407714285714,-0.2533815157142857,0.2880786714285714,-1.6788046285714286,-6.754421571428572,-3.937892342857143
132,1.320000477,0.5727011,-0.301831635,0.50762107,-1.45855055,-6.5798936999999995,-3.83230305
133,1.330000477,0.4024842785714285,-0.3328547857142857,0.6450201857142857,-1.2089758,-6.198550628571428,-3.6460818571428577
134,1.340000477,0.2521793499999999,-0.3837927133333332,0.7888468533333333,-0.87580227,-5.5707743,-3.3924929
135,1.350000477,0.2019238085714285,-0.3947573457142857,0.8868418357142858,-0.4892232208571428,-5.020837114285714,-3.1675266285714287
136,1.360000477,0.0571527266666666,-0.3082903349999999,0.9077054333333332,0.5425087378333334,-4.310800066666666,-2.7904012
137,1.370000477,0.0022170288571428,-0.26841722,0.5854348500000001,0.8450199185714286,-4.170014171428571,-2.6860044285714286
138,1.380000477,-0.1583890362857143,-0.2251525114285714,0.1780460985714285,0.9303640042857142,-3.9453968857142856,-2.578146242857143
139,1.390000477,-0.30668455,-0.1795226733333333,-0.0306623593333333,0.6983002333333334,-3.7317167333333336,-2.4578967
140,1.400000477,-0.4156557914285714,-0.1537502571428571,-0.0780141391428571,0.3235308857142857,-3.4509598,-2.2865104428571428
141,1.410000477,-0.4317934766666667,-0.1443072033333333,0.0084659366666666,0.0826934439999999,-3.270858,-2.15545095
142,1.420000477,-0.4111215357142857,-0.1571389657142857,0.0700084371428571,-0.0979319068571428,-3.0530581714285714,-2.0264858142857145
143,1.430000477,-0.4068051,-0.1843269599999999,0.1701797871428571,-0.1701864114285714,-2.884464342857143,-1.9629577
144,1.440000477,-0.4963094666666666,-0.15544606,0.2491913633333333,-0.1778074533333333,-2.8075558,-1.9104248
145,1.450000477,-0.5298741285714286,-0.1628797057142857,0.21459875,-0.12323843,-2.590036,-1.8062317142857145
146,1.460000477,-0.623217225,-0.1654059933333333,0.1666509783333333,-0.1387132333333333,-2.2461873,-1.74895745
147,1.470000477,-0.67770506,-0.1861824657142857,0.1768265228571428,-0.1679175528571428,-1.9043164,-1.6849349285714286
148,1.480000477,-0.8618033266666666,-0.1695576566666666,0.1924858266666667,-0.1712917533333333,-1.6856329666666667,-1.6571268333333335
149,1.490000477,-1.0115137142857142,-0.1570257157142857,0.1989140428571428,-0.1464506228571428,-1.4576996714285717,-1.5597985
150,1.500000477,-1.176471066666667,-0.15666564,0.18523438,-0.0605247786666666,-1.1537886333333334,-1.3073149333333334
151,1.510000477,-1.2669206142857143,-0.1419725628571428,0.1840568957142857,0.0366290197142857,-0.9609936214285714,-1.0700734885714287
152,1.520000477,-1.2634709571428573,-0.1185434971428571,0.1578053657142857,0.1965619257142857,-0.7866403928571428,-0.7419612542857142
153,1.530000477,-1.1245676666666666,-0.1308816166666666,0.0647598756666666,0.36131616,-0.536018475,-0.4327852699999999
154,1.540000477,-0.8901913285714286,-0.1967449242857142,-0.0745557451428571,0.4903794514285713,-0.2218684485714285,-0.25206176
155,1.550000477,-0.9608995416666666,-0.1517517416666666,-0.1828968516666666,0.6180756333333334,-0.0913216666666666,-0.1300086593333333
156,1.560000477,-1.0346596985714285,-0.1403696914285714,-0.2756127714285714,0.6931807571428571,0.0130459492857142,0.0500458482857142
157,1.570000477,-1.1143841666666667,-0.1225884566666666,-0.3863843366666666,0.6985038499999999,0.150573845,0.32344362
158,1.580000477,-1.1368389,-0.0200708574285714,-0.5506157242857143,0.5619358571428572,0.3472666628571428,0.8067983314285714
159,1.590000477,-1.0288317857142857,0.0395057905714285,-0.5710219857142856,0.4254551257142857,0.4727521728571428,1.012741087142857
160,1.600000477,-0.798801725,0.1205304133333333,-0.5578323333333334,0.1154246783333333,0.7457427,1.2368639
161,1.610000477,-0.6349542999999999,0.1638640957142857,-0.4488981357142857,-0.1462761028571428,0.9556705142857144,1.2551602285714287
162,1.620000477,-0.5308846333333334,0.1793092433333333,-0.3353955799999999,-0.2468331933333333,1.04017105,1.2380855833333333
163,1.630000477,-0.4165922628571428,0.16654717,-0.1085908257142857,-0.2516908757142857,1.1399718857142858,1.0183259999999998
164,1.640000477,-0.43337895,0.09999059,0.102749895,-0.05665608,1.137703,0.730878735
165,1.650000477,-0.6124573514285715,0.0278587678571428,-0.0200752128571428,0.1195297214285714,1.1877925142857144,0.5809593728571428
166,1.660000477,-0.7734685028571429,-0.0230414147142857,-0.1358223814285714,0.1254636628571428,1.4307351571428573,0.5985866971428572
167,1.670000477,-0.9594766966666668,-0.0917482423333333,-0.2032740583333333,-0.0454572183333333,1.9028910166666664,0.8318721783333333
168,1.680000477,-1.0145888414285713,-0.1438411442857143,-0.1585501928571428,-0.1708845171428571,2.221978642857142,1.0918022685714284
169,1.690000477,-1.0376113333333334,-0.1967696,-0.0723009653333333,-0.2164944466666666,2.4695027666666665,1.4174711333333334
170,1.700000477,-1.0018615342857145,-0.2123250928571428,-0.0272402639999999,-0.1996816042857143,2.577535514285714,1.5855413857142855
171,1.710000477,-0.62471632,-0.2026337699999999,0.15753968,0.147443265,2.6380966,1.97150955
172,1.720000477,-0.2461075642857143,-0.0821694285714285,0.07420729,0.5479736171428572,2.3248191428571423,2.025874914285714
173,1.730000477,-0.12575429,-0.0181260579999999,-0.2752752139999999,0.7076665449999999,2.116433,1.86400035
174,1.740000477,-0.1742523314285714,0.0558177154285714,-0.6859851428571427,0.4926483157142857,2.128999057142857,1.6291732571428572
175,1.750000477,-0.280245005,0.078754595,-0.7403175750000001,0.0975319446666666,2.3664731999999997,1.5905444666666666
176,1.760000477,-0.4693218228571429,0.060182085,-0.6408910214285715,-0.2752521391428572,2.7695161,1.6761213
177,1.770000477,-0.6317093571428571,0.0228018541428571,-0.4134997242857143,-0.5501333714285714,3.6088201857142854,2.0415825
178,1.780000477,-0.51773854,-0.0022968816666666,-0.2008501283333333,-0.4396573,4.3105965,2.5964062
179,1.790000477,-0.3361563657142857,0.0037719969714285,-0.0727263666857142,-0.3258651857142857,4.388784957142858,2.7150851142857144
180,1.800000477,0.5266110249999999,0.1846855756666666,0.04612566055,0.9690837333333332,3.688957633333333,2.774570133333333
181,1.810000477,0.8103391,0.2970687342857143,-0.5027209782857144,1.5129377714285714,3.1175244,2.533925371428571
182,1.820000477,0.7380526214285714,0.3682531857142857,-1.5556874714285711,1.1982641428571428,2.4373896,1.9190639
183,1.830000477,0.58465299,0.37941237,-1.9779965,0.4681380529999999,2.20134085,1.5139849
184,1.840000477,0.3255111442857142,0.3419058214285714,-1.9385321,-0.42150641,2.2302252142857144,1.2607450999999998
185,1.850000477,-0.0613450349999999,0.296206295,-1.3841051999999998,-1.7411692,2.5757902,1.2301446
186,1.860000477,-0.3763764857142857,0.3469322685714285,-0.3616630942857143,-2.019482942857143,2.8819119714285715,1.6541307285714286
187,1.870000477,-0.2038533566666666,0.32890131,0.10527036,-1.688229166666667,2.9508504666666666,2.0161015
188,1.880000477,0.2189849242857142,0.2744802957142857,0.4180514085714285,-0.8817362285714286,2.9836617,2.2850487142857143
189,1.890000477,0.9504430428571428,0.2120027771428571,0.3253630571428571,0.0568087857142857,3.001288985714286,2.1710820571428573
190,1.900000477,1.1832092333333335,0.22047018,-0.0134865666666666,0.7015580699999999,2.9050369000000003,1.8359014
191,1.910000477,1.030343207142857,0.2530156414285714,-0.4867879742857143,1.1530614285714285,2.6974360428571424,1.364240028571429
192,1.920000477,0.5897701966666666,0.3098758199999999,-1.1466827266666666,0.95648495,2.5004522999999996,1.116527
193,1.930000477,0.0541756364285714,0.4293543342857143,-1.4244297714285712,-0.0664514528571428,2.4101632714285715,1.4050796285714284
194,1.940000477,0.1743394583333333,0.49738678,-1.1353711333333332,-0.6400151933333333,2.6466485333333334,2.0046988333333333
195,1.950000477,0.6126576828571428,0.5439211428571429,-0.8211585714285714,-0.7770195285714285,2.9714447428571424,2.4168171428571426
196,1.960000477,1.129014,0.604684665,-0.56018514,-0.5487953666666666,3.327946733333333,2.516996033333333
197,1.970000477,1.4147253714285717,0.7099935157142857,-0.4473126828571429,-0.1391204642857142,3.4484290428571427,2.2827797285714286
198,1.980000477,1.340914457142857,0.7144929514285714,-0.538393792857143,0.4138708414285714,3.3367313,1.898993157142857
199,1.990000477,1.1151667166666668,0.7108341666666668,-0.800656445,0.8168046066666667,3.0954176,1.605612
200,2.000000477,0.9354204142857144,0.7122628171428572,-0.9890733142857142,0.9080244485714284,2.8941288714285713,1.5000226857142855
201,2.010000477,0.7806248,0.695101525,-1.1466522,0.7736380399999999,2.67169325,1.4529001500000005
202,2.020000477,0.7315671,0.6766858,-1.1968076,0.5793886199999999,2.661308883333333,1.4698002833333332
203,2.030000477,0.6637016542857143,0.5120072457142857,-1.0389586285714285,0.2563376828571428,3.1655194714285715,1.5434801714285713
204,2.040000477,0.5795358333333334,0.4283176866666667,-0.9147586266666666,0.25889742,3.401655666666666,1.6495930333333335
205,2.050000477,0.4924721085714285,0.3740592842857143,-0.8824251457142857,0.3627996357142857,3.5669334285714287,1.8607716571428572
206,2.060000477,0.54109864,0.3356140999999999,-0.925038725,0.46414211,3.539707066666667,2.1081357333333335
207,2.070000477,0.7545518314285715,0.3489445857142857,-0.9868346285714288,0.5626339714285714,3.296938957142857,2.2648035285714285
208,2.080000477,0.8573822999999999,0.4017460049999999,-1.07148025,0.5726692999999999,3.00093985,2.2732680999999997
209,2.090000477,0.9549816142857144,0.4401432857142857,-1.141721742857143,0.3565166228571428,2.613488171428571,2.219949785714286
210,2.100000477,1.0438457714285714,0.4508581814285714,-1.0745749142857142,0.1737205971428571,2.4511773285714287,2.170732942857143
211,2.110000477,1.0632328333333332,0.4428815233333333,-0.9346175166666666,0.1231366333333333,2.3856130666666666,2.0861452000000003
212,2.120000477,1.070201814285714,0.3596159414285714,-0.6862203785714286,0.1667394828571428,2.3948049428571427,1.9358185714285716
213,2.130000477,1.0833966333333331,0.2222589033333333,-0.5942521666666667,0.33708586,2.5888215666666667,1.8804933
214,2.140000477,1.2695906142857143,0.0867864221428571,-0.6184115071428572,0.5537330142857143,2.818732971428571,1.8490783285714285
215,2.150000477,1.5065904714285714,0.032314603,-0.7276774842857142,0.77102014,2.832346142857143,1.6703618857142857
216,2.160000477,1.5388702333333333,0.0767117936666666,-0.8996358533333333,0.9108751,2.3721744,1.2834919333333332
217,2.170000477,1.4648024,0.1363755514285714,-1.2264697028571427,0.8762603857142857,1.8760209571428572,0.9539252571428573
218,2.180000477,1.190953666666667,0.1530170533333333,-1.5073136,0.324359884,1.2391036333333332,0.5679861466666667
219,2.190000477,1.0169059914285714,0.1457924728571428,-1.5744473,-0.0570924022857142,1.0031420742857142,0.4326107542857142
220,2.200000477,0.93295074,0.1223764785714285,-1.3961137,-0.5965577971428572,0.9560195828571428,0.4678653642857143
221,2.210000477,0.9224166,0.0999905925,-1.023885935,-0.8106452233333333,0.96259346,0.5378510133333333
222,2.220000477,0.9342792,0.1038562342857142,-0.7002934414285714,-0.8778966142857143,0.98429308,0.6853269942857143
223,2.230000477,0.91326972,0.15124358,-0.562151705,-0.66322745,0.92512817,0.8035695650000001
224,2.240000477,1.1342168057142856,0.1832815971428571,-0.5083179914285714,-0.3750820428571429,0.7275627,0.9080244371428572
225,2.250000477,1.5436469166666666,0.2176702316666666,-0.53994,-0.1295505208333333,0.3366786333333333,0.7123496933333334
226,2.260000477,1.6577012285714283,0.2729863242857143,-0.6624036142857143,-0.0157293164285714,0.0280553399999999,0.3528515485714286
227,2.270000477,1.5793910000000002,0.321466925,-0.892353925,-0.0360908933333333,-0.2790553866666667,-0.1862066033333333
228,2.280000477,1.2950103142857146,0.3338348128571429,-1.0027153342857142,-0.3052709214285714,-0.2161090342857143,-0.45276874
229,2.290000477,1.1128785428571428,0.3424067342857143,-0.88400196,-0.4907939357142857,-0.07439247,-0.5110610114285714
230,2.300000477,1.0860542,0.3786958599999999,-0.666731,-0.379183415,-0.0620009949999999,-0.38208495
231,2.310000477,1.3248289999999998,0.4121973857142857,-0.6100138171428571,0.0372180542857142,-0.3229200371428571,-0.263057
232,2.320000477,1.5746852999999998,0.43987324,-0.87775449,0.558619825,-0.81517565,-0.327108705
233,2.330000477,1.7561172857142855,0.4945889557142857,-1.174876917142857,0.7270391428571428,-1.2103938,-0.5417778857142856
234,2.340000477,2.006956616666667,0.5405295,-1.4850866166666667,0.6600204333333334,-1.5760877333333332,-0.8483650333333334
235,2.350000477,2.0063671571428574,0.5651679900000001,-1.6012432285714286,0.4425588228571428,-1.9704623857142856,-1.206379657142857
236,2.360000477,1.7933538,0.61484424,-1.8036287285714283,-0.1825342385714285,-2.5504181142857143,-1.603604871428571
237,2.370000477,1.6830809166666667,0.5744237666666667,-1.6239463333333333,-0.6485670899999999,-2.9460144666666666,-1.7817396333333333
238,2.380000477,1.644865042857143,0.5366254285714286,-1.3960875,-0.9326983285714284,-3.2054210000000003,-1.8365995285714285
239,2.390000477,1.6556859833333333,0.4861513333333334,-1.1147093,-0.9199868833333332,-3.2591755333333334,-1.84852555
240,2.400000477,1.6037912285714289,0.4789565057142857,-0.9713284142857144,-0.7771940785714285,-3.3893078571428568,-1.8976842
241,2.410000477,1.5585563999999998,0.4610228133333333,-0.9367213,-0.635128435,-3.5794122,-1.9513515
242,2.420000477,1.538138557142857,0.4311706185714286,-0.9572466285714284,-0.4958552485714286,-3.8151992142857143,-2.0149668857142857
243,2.430000477,1.4966523,0.3846260966666666,-1.0413310666666666,-0.42560784,-4.02410915,-2.08825765
244,2.440000477,1.3962269428571428,0.3354812614285714,-1.091544514285714,-0.5117373142857143,-4.216962114285715,-2.194359614285714
245,2.450000477,1.2763113285714287,0.3299365057142857,-1.0630193714285714,-0.6258784714285716,-4.2965469999999994,-2.2123359999999996
246,2.460000477,1.2440664666666668,0.2863480233333333,-0.9379408733333332,-0.7898764083333334,-4.2802576666666665,-2.1720202333333334
247,2.470000477,1.212684,0.3068253914285714,-0.6221748028571429,-0.67684058,-4.168269,-2.0813311142857143
248,2.480000477,1.4284014166666663,0.3136056966666666,-0.4441519066666666,-0.37409304,-4.239127333333333,-2.0631366
249,2.490000477,1.5036939857142857,0.3122002742857143,-0.4521343628571428,-0.1483704337142857,-4.4084194142857145,-2.1515349142857145
250,2.500000477,1.3953122142857144,0.2940459028571429,-0.8030084942857142,-0.0014180371428571,-4.698484571428572,-2.4943729714285716
251,2.510000477,1.2411496333333334,0.2508174766666666,-0.9784513666666664,-0.0817008246666666,-4.846309533333334,-2.775537266666667
252,2.520000477,0.8706387999999999,0.1200984642857142,-0.8693407999999999,-0.5930672457142857,-4.7775454,-2.9406405714285713
253,2.530000477,0.656435665,0.0338891725,-0.4701087333333333,-0.9041048333333332,-4.619074166666667,-2.861259366666667
254,2.540000477,0.5785877557142857,-0.0138771161428571,-0.2337810651428571,-0.8185571428571429,-4.512786857142857,-2.708867514285714
255,2.550000477,0.4969243166666666,-0.0246863991666666,0.0682610976666666,-0.54309412,-4.401612633333333,-2.5051354333333333
256,2.560000477,0.5180006,0.0286558564285714,0.1125065685714285,0.0103625885714285,-4.397423842857143,-2.281972542857143
257,2.570000477,0.5723940542857143,0.0724127642857142,-0.0004573421428571,0.5436104257142856,-4.530414057142857,-2.1362418857142855
258,2.580000477,0.57257917,0.090721755,-0.3463007035,0.4926483133333333,-4.765677533333333,-2.2522447333333333
259,2.590000477,0.5434158571428571,0.0901272085714285,-0.7076240485714286,0.2677692571428571,-4.863238628571429,-2.360510185714286
260,2.600000477,0.4132253299999999,0.0122568134999999,-0.582899865,-0.1920605533333333,-4.7815596000000005,-2.4640051333333335
261,2.610000477,0.2417780457142857,-0.0568195164285714,-0.2560297471428571,-0.9045993228571428,-4.5639233,-2.590014071428571
262,2.620000477,0.0935522066666666,-0.1019876566666666,0.3289114666666666,-1.03340087,-4.1181794,-2.4542315
263,2.630000477,-0.0586576021428571,-0.0953888385714285,0.5390166200000001,-0.7040669114285715,-3.728458942857143,-2.2908735142857144
264,2.640000477,-0.1581407621428571,-0.0078750234285714,0.5627810857142858,-0.2118985457142857,-3.185393871428572,-2.047821742857143
265,2.650000477,-0.2061248283333333,0.0636266818333333,0.4322457583333333,0.5123735766666666,-2.5746193666666666,-1.7505864166666667
266,2.660000477,-0.2467696271428571,0.1541335468571428,0.2051556978571428,0.8622981785714285,-2.486541085714286,-1.6116332142857144
267,2.670000477,-0.1443885066666666,0.19378162,-0.2773840583333333,0.9006942833333333,-2.625930533333334,-1.6123313666666668
268,2.680000477,-0.0775132327142857,0.1931079571428571,-0.5810965871428572,0.7462371857142857,-2.7399552714285713,-1.6835386714285714
269,2.690000477,-0.0881758782857142,0.0848263810285714,-0.7836911485714285,0.0426284114285714,-2.6486772857142857,-1.9191512285714285
270,2.700000477,-0.175055955,-0.04619171785,-0.793994455,-0.6620057199999999,-2.4487848,-2.128344633333333
271,2.710000477,-0.3714502457142857,-0.13087436,-0.5944815157142856,-1.4637863285714283,-2.058773342857143,-2.2989019
272,2.720000477,-0.7221356166666667,-0.224662495,-0.1734298316666666,-1.8946954666666669,-1.6646606333333331,-2.2530592666666664
273,2.730000477,-0.8838451428571429,-0.2456545771428571,0.069076326,-1.8763700571428572,-1.3955678571428574,-2.0659508571428575
274,2.740000477,-1.025476533333333,-0.2551876533333333,0.19418815,-1.7216221,-1.3089438666666668,-1.8892487333333332
275,2.750000477,-1.0648138571428571,-0.3350151942857143,0.2421090571428571,-1.4927579857142856,-1.2976577285714286,-1.6105860285714289
276,2.760000477,-1.0691578666666668,-0.3810283266666667,0.3005155,-1.16575105,-1.3060932333333333,-1.3227897666666666
277,2.770000477,-1.1200784,-0.3926317857142857,0.3162989385714286,-0.9625425428571428,-1.2861388571428571,-1.1891014714285717
278,2.780000477,-1.1737444571428572,-0.3993220685714286,0.2900474042857142,-0.7876657285714286,-1.2442522142857142,-1.0602999557142856
279,2.790000477,-1.3122310666666666,-0.3968829,0.17142261,-0.5333205666666667,-0.9302185666666666,-0.6785494766666668
280,2.800000477,-1.4119813857142858,-0.3746037285714285,0.1050322668571428,-0.3934074428571428,-0.5918673514285714,-0.3295520742857143
281,2.810000477,-1.4680125333333331,-0.3422150833333333,0.086575175,-0.3054745233333333,-0.23670332,0.0072283583333333
282,2.820000477,-1.439108385714286,-0.2740055428571428,0.14351447,-0.0731489622857143,0.4717049628571428,0.6949260357142857
283,2.830000477,-1.3349813166666664,-0.2180462666666666,0.1351806533333333,0.2032848743333333,0.9790863833333332,1.27840155
284,2.840000477,-1.1171253428571428,-0.1674879871428571,0.1487412614285714,0.52633219,1.2698206285714286,1.7239418571428573
285,2.850000477,-0.8354400166666668,-0.09785632,0.1113733766666666,0.9306258116666668,1.33276695,2.0236352333333336
286,2.860000477,-0.6766509542857143,-0.0532740142857142,-0.0613537528571428,1.1422407571428572,1.2802922142857145,2.077709657142857
287,2.870000477,-0.5794501942857143,-0.0265041588571428,-0.2531071071428571,1.2966978142857144,1.2321225285714286,2.085912542857143
288,2.880000477,-0.4993177666666666,0.0064333026666666,-0.4884838,1.26353755,1.27147855,2.0521415
289,2.890000477,-0.48074669,0.04654017,-0.6271446,0.9968591114285712,1.491470842857143,1.9724695285714284
290,2.900000477,-0.4925643016666667,0.091321381,-0.7043855833333333,0.5850898733333333,1.7790926666666669,1.8898596333333335
291,2.910000477,-0.5526367714285715,0.13576576,-0.5954310914285715,0.2459969257142857,1.9320226285714284,1.8677527857142855
292,2.920000477,-0.6220877142857143,0.17091154,-0.4726059585714285,-0.0529037328571428,2.1042161285714287,1.9379129142857143
293,2.930000477,-0.6370494,0.17687008,-0.4551485,-0.09636115,2.1481972,1.9708986
294,2.940000477,-0.4951072828571428,0.1763299714285714,-0.1490330799999999,0.0560016028571428,2.5429790571428574,2.3344400428571426
295,2.950000477,-0.2371632233333333,0.1549683899999999,0.00941112,0.4484382533333333,2.5550214833333333,2.36754225
296,2.960000477,-0.0920044971428571,0.1917751214285714,-0.0271226622857142,0.9125621571428572,2.3459371285714288,2.294647714285714
297,2.970000477,0.0186748716666666,0.20735967,-0.394743579,1.36351285,1.98619535,2.1360309999999996
298,2.980000477,0.0089116705714285,0.23493967,-0.7421339128571428,1.3499288,1.8520453,1.9688043
299,2.990000477,-0.0464559626666666,0.2758595866666666,-1.0403554,1.1596935333333334,1.8850237333333333,1.8756065
300,3.000000477,-0.1436930599999999,0.3210858085714285,-1.2299454285714284,0.5669971671428572,2.1557017285714286,1.8017812714285717
301,3.010000477,-0.2008566657142857,0.3346231799999999,-1.1038754285714285,-0.0816353814285714,2.520813957142857,1.8443660142857143
302,3.020000477,-0.2411929333333333,0.3598990533333333,-0.7867227400000001,-0.4455621683333333,2.8258303333333337,2.0285220333333336
303,3.030000477,-0.1485888157142857,0.3544980299999999,-0.3571114385714286,-0.2394739428571428,2.788016,2.2979638
304,3.040000477,0.0998228953333333,0.3703874633333333,-0.16456245,0.20101966,2.4552497333333334,2.4351426000000003
305,3.050000477,0.41357816,0.4050802557142857,-0.2951130314285714,0.6450110685714285,2.0344922857142858,2.360270142857143
306,3.060000477,0.5837535933333333,0.4357063366666667,-0.6687585400000001,0.9255354,1.6895017333333333,2.0450148
307,3.070000477,0.5860098085714286,0.4543775728571429,-1.0331700285714285,0.8118596428571428,1.6508147285714287,1.7473286142857145
308,3.080000477,0.4777616133333333,0.4645189666666667,-1.2183434333333334,0.29771168625,1.8194085,1.36677075
309,3.090000477,0.1932778235714285,0.4860300999999999,-1.1759832857142858,-0.2420918442857143,2.129958857142857,1.2385800714285715
310,3.100000477,0.0153319053714285,0.4876939857142857,-0.9333297428571428,-0.5735201,2.436516957142857,1.3118817857142857
311,3.110000477,-0.0035063022833333,0.451545675,-0.3495122666666666,-0.3824413,2.9105346,1.98189385
312,3.120000477,0.0418839802857142,0.43217242,-0.32155185,0.1622235785714285,2.8381055,2.4080907714285713
313,3.130000477,0.42589881,0.3408938666666667,-0.5070367283333334,0.6249985750000001,2.6334133833333335,2.733032533333333
314,3.140000477,0.94438,0.3268701342857142,-0.6790770828571429,0.8043549285714287,2.3759559285714285,2.625028785714286
315,3.150000477,1.225041,0.3861709,-0.9904948333333332,0.8104924766666667,2.0122581166666667,1.99390725
316,3.160000477,1.0135434571428572,0.4705196,-1.5061027714285713,0.3741439428571428,1.7838048571428573,1.3155468142857143
317,3.170000477,0.6386602333333333,0.4012124333333333,-1.676622166666667,-0.66442363,1.76321055,0.6400661166666667
318,3.180000477,0.3076616828571428,0.3051484642857143,-1.3840529,-1.5526209857142856,1.9546021,0.3973561314285714
319,3.190000477,0.0781883617142857,0.2161188785714285,-0.8751817285714285,-2.117742014285714,2.1822299857142857,0.4088749714285714
320,3.200000477,-0.1171816336666666,0.0805128283333333,-0.1300583933333333,-2.241656733333333,2.48171975,0.733118525
321,3.210000477,-0.2718146357142857,0.0418273554285714,0.5517743668571429,-1.3135179714285716,2.653455028571429,1.5672159857142858
322,3.220000477,-0.2479326,0.0581567024285714,0.7735643000000001,-0.7393215142857142,2.6541531714285713,1.9834647714285711
323,3.230000477,0.2807379166666667,0.0493829619999999,0.6688601666666667,0.7947631999999999,2.4572858666666666,2.7764025333333335
324,3.240000477,1.0029853142857144,0.0736933287142857,0.1958781542857142,2.2592186,2.141564971428571,3.169729942857143
325,3.250000477,1.3565832,0.1761383283333333,-0.602951848,2.8916491499999997,1.85119805,2.824863066666667
326,3.260000477,1.4218861142857142,0.2737964599999999,-1.3394988714285714,2.5890762142857144,1.8569320714285715,2.3934304285714285
327,3.270000477,1.28580675,0.3556304999999999,-2.1179590000000004,1.60622295,2.11452415,1.82185195
328,3.280000477,0.9977629285714286,0.3510352885714285,-2.2138443714285714,0.2431826728571428,2.609823028571429,1.3722683857142857
329,3.290000477,0.7149451833333335,0.3149015033333333,-1.9138310833333332,-0.796392075,3.0361653333333334,1.1843310666666669
330,3.300000477,0.3035063785714285,0.2325832557142857,-0.4834123428571428,-1.6323801571428571,3.1930950714285715,1.4933906857142856
331,3.310000477,0.2503761128571428,0.2732999328571429,0.1040435199999999,-1.182098517142857,2.8611431,1.940530828571429
332,3.320000477,0.4279822899999999,0.32134497,0.329470435,-0.10399675,2.428779533333333,2.5894833
333,3.330000477,1.048837357142857,0.3576341028571428,0.0936814214285714,0.9626516828571428,2.2406968,3.035692742857143
334,3.340000477,1.6480535000000005,0.4608602266666666,-0.5073670166666666,1.7587310333333337,2.2948004,2.8647718
335,3.350000477,1.8542283285714285,0.5723591971428571,-0.9652305428571428,2.0234315,2.386951071428572,2.5288639714285712
336,3.360000477,1.756121528571429,0.6580523628571429,-1.3294939714285714,1.8108566714285712,2.5126111,2.1623556
337,3.370000477,1.57548825,0.6961991799999999,-1.6285248999999995,1.297134135,2.6955162500000003,1.77298415
338,3.380000477,1.4392042285714286,0.6289086571428572,-1.5766424857142858,0.3826085362857143,2.837058414285714,1.4056032142857142
339,3.390000477,1.4578595,0.5378057833333333,-1.2290961,-0.0696874933333333,2.7775735666666663,1.21609511
340,3.400000477,1.5686237714285711,0.5281536285714286,-0.7572393000000001,-0.0279462642857142,1.7060091142857143,0.7476334028571429
341,3.410000477,1.5127712000000002,0.4943733399999999,-0.80766905,0.143956334,1.2370675,0.57124399
342,3.420000477,1.3970196857142856,0.4195279514285714,-1.0217494857142857,0.3619270085714285,0.6378554571428572,0.3530260914285715
343,3.430000477,1.3065831857142858,0.3909069585714286,-1.0897368714285716,0.3209129671428571,0.5673462285714285,0.3298138885714285
344,3.440000477,1.3355098666666667,0.3897839133333333,-1.0003429166666666,0.2882181033333333,0.5708367733333334,0.33586418
345,3.450000477,1.3982001,0.3814682485714286,-0.9128276714285716,0.4134127071428571,0.4853181628571428,0.2947338057142857
346,3.460000477,1.4970284333333332,0.3666067583333334,-0.9178127166666666,0.5981212800000001,0.4146634883333333,0.2639878316666667
347,3.470000477,1.5580220857142857,0.3545328714285714,-0.9666287,0.7293079857142858,0.3694317057142857,0.2165453557142857
348,3.480000477,1.6229736285714285,0.3719685571428571,-1.0993934428571428,0.7896945971428572,0.2807715885714286,0.1275361814285714
349,3.490000477,1.7176561333333331,0.4262342333333333,-1.4379447833333334,0.7272136466666667,-0.14385453,-0.2729469133333334
350,3.500000477,1.7565659,0.46020976,-1.5799397,0.3504081714285714,-0.6875086142857142,-0.7592395214285714
351,3.510000477,1.64289065,0.4488016016666666,-1.5400745333333334,-0.0521510833333333,-1.18901415,-1.2331988333333337
352,3.520000477,1.4324050285714287,0.4121974057142857,-1.4547233571428573,-0.3829357828571428,-1.4828317428571427,-1.5179118142857142
353,3.530000477,1.2424404,0.3525713933333333,-1.2662629,-0.6705575666666667,-1.6219013333333334,-1.596856533333333
354,3.540000477,1.1396876285714286,0.3292744428571428,-0.8894290357142857,-0.5422796428571429,-1.6749868428571428,-1.3599641571428571
355,3.550000477,1.2966567142857142,0.3559223342857143,-0.7704064471428571,-0.1412148,-1.8226373285714288,-1.0810687857142856
356,3.560000477,1.4250831833333333,0.3754283966666666,-0.8316491333333333,0.0510566483333333,-1.9370983833333335,-1.04831565
357,3.570000477,1.5914909857142858,0.4212615,-0.9974362428571428,0.1957110971428571,-2.1936833428571427,-1.1973042285714286
358,3.580000477,1.74205285,0.472527575,-1.20569535,0.256861275,-2.49256215,-1.449846
359,3.590000477,1.7648372857142858,0.4947414042857143,-1.4003169,0.1070291691428571,-2.7259931142857146,-1.7920949571428573
360,3.600000477,1.55519245,0.4647222116666666,-1.5014849333333335,-0.313008309,-2.9757425333333334,-2.2224915
361,3.610000477,1.3912659142857142,0.4259046257142857,-1.3670397285714286,-0.6187228200000001,-3.0876147,-2.3530054714285713
362,3.620000477,1.2269821666666667,0.33915596,-1.0315846333333332,-0.82265853,-3.16266165,-2.40780715
363,3.630000477,1.0830074,0.2880525357142857,-0.6731490428571428,-0.7040668971428571,-3.1848267714285714,-2.3046612142857144
364,3.640000477,1.2564351333333337,0.3220817966666667,-0.5588537466666667,-0.1543152849999999,-3.2726905,-2.0436658
365,3.650000477,1.430070442857143,0.3763459871428571,-0.8972126428571429,0.5308698842857142,-3.5750490285714283,-1.8982078285714283
366,3.660000477,1.464514957142857,0.4090177485714286,-1.2653656000000002,0.7195344142857143,-3.840680414285714,-1.9763963285714288
367,3.670000477,1.4337727333333332,0.4359603833333333,-1.5398357666666669,0.4498380883333333,-4.044877866666667,-2.1413759999999997
368,3.680000477,1.3596394428571428,0.4597088842857143,-1.8218049857142855,-0.346110425,-4.3475090000000005,-2.478316371428572
369,3.690000477,1.3937957833333332,0.388930205,-1.34139945,-1.4785049,-4.4779687500000005,-2.87551255
370,3.700000477,1.3387672,0.2813274,-0.8490435,-1.862582442857143,-4.507201857142857,-3.155658628571429
371,3.710000477,1.1583298,0.2447195533333333,-0.60888718,-1.9877479,-4.544143333333333,-3.3882170000000005
372,3.720000477,0.9056451571428572,0.1930861728571428,-0.3291307057142857,-1.971313157142857,-4.546470542857143,-3.474171942857143
373,3.730000477,0.4712861971428572,0.0952799542857142,0.03307249,-1.7770638,-4.530239771428572,-3.494940742857142
374,3.740000477,0.2952306466666667,0.0579200466666666,0.1595418333333333,-1.5941586666666667,-4.480208266666666,-3.424664266666667
375,3.750000477,0.1889483157142857,0.0399065092857142,0.3917170857142857,-1.3684942,-4.347509028571428,-3.2780027142857144
376,3.760000477,0.26178357,0.0594699325,0.56730443,-1.0472467,-4.193924666666667,-3.1286069
377,3.770000477,0.3516058742857142,0.1186436814285714,0.6460002485714285,-0.339303814,-3.9851892857142857,-2.9680413857142858
378,3.780000477,0.3820243133333333,0.1922469933333333,0.5198270933333333,0.3154008093333333,-3.8115341,-2.8740873
379,3.790000477,0.5264026885714286,0.2146205371428571,0.0616499428571428,1.0349061542857143,-3.5228652142857144,-2.769952442857143
380,3.800000477,0.48978905,0.1817832557142857,-0.4977773028571429,1.2183348571428572,-3.487959757142857,-2.873272828571429
381,3.810000477,0.250553225,0.1521277883333333,-0.9175738166666668,0.8210805333333333,-3.700359983333333,-3.0689475166666664
382,3.820000477,0.0869388671428571,0.0812721657142857,-0.9008757,0.0789083785714285,-3.680463757142858,-2.987239457142857
383,3.830000477,0.1535048966666666,-0.0110473946666666,-0.7147266333333334,-0.5318952583333334,-3.520363716666667,-2.8577979666666664
384,3.840000477,0.1187743528571428,-0.0385954584285714,-0.4499739714285714,-0.7553780714285715,-3.4795822857142857,-2.876065285714286
385,3.850000477,0.0203365519999999,0.0211699356666666,-0.27780076,-0.8238802249999999,-3.4212027999999997,-2.85128235
386,3.860000477,0.0204236648571428,0.0486003971428571,-0.2485685171428571,-0.7838261157142857,-3.1683121142857145,-2.731207128571429
387,3.870000477,0.0649907242857142,0.0367355917142857,-0.3194698657142857,-0.8246656342857143,-3.0274027142857145,-2.736966485714286
388,3.880000477,0.0594191183333333,-0.0934912298333333,-0.5552813633333333,-1.270409653333333,-3.125603533333333,-3.0170255333333333
389,3.890000477,0.0191561705714285,-0.2792148914285714,-0.5841368571428571,-1.8039410285714284,-3.227934971428571,-3.2781773571428574
390,3.900000477,-0.1134364995,-0.553324965,-0.419994015,-2.586581733333333,-3.3117084,-3.6144342333333337
391,3.910000477,-0.6771736471428572,-0.9785544328571428,0.3659534014285714,-3.7926852571428578,-2.8837663142857144,-3.934750842857143
392,3.920000477,-1.460451,-1.1341516,1.3139486,-3.6347956333333338,-2.4239437833333333,-3.6461982
393,3.930000477,-1.7918292142857144,-1.0647659571428572,1.5518979571428573,-2.9329613428571433,-2.0010047285714285,-3.068045842857143
394,3.940000477,-2.122542633333333,-0.95631594,1.6233365666666668,-2.0822256500000003,-1.5585768,-2.3900163
395,3.950000477,-2.229685942857143,-0.8857441614285714,1.5668031142857142,-1.237074782857143,-1.1187668,-1.6938358285714286
396,3.960000477,-1.9804406666666663,-0.7218002499999999,1.1284906666666668,-0.1335464799999999,-0.525023235,-0.7076665384999999
397,3.970000477,-1.6581324,-0.5615223142857142,0.6571245971428572,0.9937176285714286,0.10572021,0.3350497098571429
398,3.980000477,-1.3315106333333333,-0.3568602466666666,0.14822003444,1.41808195,0.3973561349999999,0.81578645
399,3.990000477,-1.1829348714285717,-0.2256969651428571,-0.1029851038142857,1.577164,0.5586198057142857,1.0776653714285716
400,4.000000477,-0.9845696,0.0428886813333333,-0.4793775666666667,1.5449345,0.81273228,1.4382399
401,4.010000477,-0.8082092000000001,0.3935421214285713,-0.82907282,1.212575442857143,1.0664956885714283,1.6605882714285711
402,4.020000477,-0.6876620571428571,0.4697138071428571,-0.8569097428571428,0.9054065428571428,1.2696460142857142,1.7502956142857145
403,4.030000477,-0.47694856,0.54878205,-0.7977903999999999,0.6740699416666667,1.2676098999999998,1.7076236
404,4.040000477,-0.4155773742857143,0.5737181571428572,-0.7824367571428572,0.4863653028571429,1.141019042857143,1.5663432714285714
405,4.050000477,-0.3665457666666666,0.5780825133333334,-0.7739374333333333,0.3830775783333333,1.0725459616666666,1.4759087666666666
406,4.060000477,-0.3079622142857143,0.5561909971428571,-0.7437062714285715,0.08619491,0.9595101642857145,1.208037757142857
407,4.070000477,-0.298797915,0.5004713049999999,-0.601696675,-0.215476365,0.92207395,0.86526515
408,4.080000477,-0.3556217885714286,0.4010382314285713,-0.4063303085714285,-0.3471575771428571,0.87591134,0.5408179785714285
409,4.090000477,-0.4802109333333333,0.2835836333333333,-0.2037720466666666,-0.3335735016666666,0.7549054100000001,0.2224502083333333
410,4.100000477,-0.7357441285714286,0.1802718457142857,-0.1579186171428571,-0.1951438785714285,0.6413460000000001,0.1727388771428571
411,4.110000477,-0.9649597333333334,0.0938418533333333,-0.1559643816666666,-0.0071774541666666,0.5893658333333334,0.2621552766666666
412,4.120000477,-1.0391198428571429,0.0516624194285714,-0.1650706071428571,0.0600157441428571,0.7113316514285716,0.4315635714285714
413,4.130000477,-1.1156399857142858,0.0147830918571428,-0.1715300471428571,0.1594965871428571,1.0349061114285714,0.7718928057142858
414,4.140000477,-1.138338766666667,0.0273796478333333,-0.1915254016666666,0.2564031433333333,1.3677887666666668,1.1205993
415,4.150000477,-1.104694257142857,0.0385606131428571,-0.2221383857142857,0.3278940857142857,1.6159091285714289,1.4117116285714284
416,4.160000477,-0.9959118,0.0621682619999999,-0.293690905,0.38575004,1.87255225,1.7876445
417,4.170000477,-0.8703164857142857,0.08011356,-0.3449547928571428,0.3800778857142856,1.972513057142857,2.010691
418,4.180000477,-0.6286647333333334,0.0956763153333333,-0.39558201,0.3224255466666666,2.0054370666666665,2.183269866666667
419,4.190000477,-0.3838595057142857,0.1087519977142857,-0.4198546457142857,0.1761639925714286,1.9567619142857144,2.2140160285714283
420,4.200000477,-0.2001292742857143,0.1462454742857142,-0.2979137142857143,0.0533836881428571,1.977356242857143,2.0527521571428573
421,4.210000477,-0.2288802233333333,0.1679620433333333,-0.2177159583333333,0.158973,2.1653008,1.9403564
422,4.220000477,-0.3321230514285714,0.2294733214285714,-0.2222864942857143,0.3135391714285714,2.3049230857142855,1.986606257142857
423,4.230000477,-0.404947415,0.276067925,-0.29748688,0.48776154,2.49271495,2.1162803
424,4.240000477,-0.4288316385714285,0.3023042171428571,-0.4010599828571429,0.6490252114285715,2.6805068142857142,2.3021523428571427
425,4.250000477,-0.2352576333333333,0.3295618933333333,-0.5332323666666666,0.7589777133333334,2.7427551666666665,2.5487601333333334
426,4.260000477,0.0060238614285714,0.3473199014285714,-0.6344098714285714,0.7830625571428572,2.6770163714285715,2.626250471428571
427,4.270000477,0.2975913857142856,0.3565887571428571,-0.7532930857142857,0.7003363871428572,2.468455685714286,2.4779018571428573
428,4.280000477,0.45385268,0.3473373499999999,-0.8621997,0.5154532733333334,2.2353448,2.1606685
429,4.290000477,0.2878303742857143,0.3029445142857143,-0.8633125428571429,0.0213360228571428,1.9491481714285717,1.5157301857142855
430,4.300000477,-0.0689267908333333,0.2522352383333333,-0.7290770833333333,-0.365744795,1.9132754166666668,1.1965479666666667
431,4.310000477,-0.2936626042857143,0.23314079,-0.5831916785714285,-0.4827657,2.0294745428571432,1.2966978285714286
432,4.320000477,-0.4590054299999999,0.218595075,-0.44074218,-0.4368067,2.2630364000000003,1.7277814000000002
433,4.330000477,-0.5528719857142858,0.1940487714285714,-0.3303895085714285,-0.3529169942857142,2.412083114285714,2.058337042857143
434,4.340000477,-0.4796534357142857,0.1392154414285714,-0.2663482957142857,-0.1471487364285714,2.599875071428571,2.6667410714285715
435,4.350000477,-0.382491825,0.1051128425,-0.234038045,-0.038941511595,2.6674173000000003,2.9720774
436,4.360000477,-0.0299843,0.0625384912857142,-0.2273477642857143,0.1143593296057142,2.617851342857143,3.1916114571428573
437,4.370000477,0.4005366166666667,0.0331980735,-0.2480276883333333,0.2986024949999999,2.501266783333333,3.3148899000000003
438,4.380000477,0.6553997714285714,0.1221543411428571,-0.4261877657142857,0.4950917114285714,2.2005554,3.0308059714285713
439,4.390000477,0.5664812499999999,0.2206683599999999,-0.531768815,0.570836785,2.1127679,2.8609031999999996
440,4.400000477,0.5467174714285715,0.3807147371428571,-0.6102228857142856,0.6797420914285713,2.4366915142857137,3.0672822857142856
441,4.410000477,0.7600138485714286,0.4833426828571428,-0.7228340171428572,0.8146520857142857,2.8436903,3.3283104571428574
442,4.420000477,0.9503298,0.5109698833333334,-0.9032488266666668,0.8605819666666666,3.1565022166666665,3.450116233333334
443,4.430000477,1.0980997857142858,0.5039187885714286,-1.0247113257142857,0.6423931428571429,3.1735477714285714,3.317097
444,4.440000477,1.25908265,0.5016908649999999,-1.0703826,0.3649812349999999,3.0351473500000004,3.06920205
445,4.450000477,1.4238069285714283,0.5298959142857143,-0.9673648085714286,0.1550461272857142,2.679459714285714,2.6019912
446,4.460000477,1.4347686,0.53926928,-0.92330587,-0.0491222986666666,2.2446599666666667,1.9452432
447,4.470000477,1.1459684,0.4643171599999999,-0.96948169,-0.39305841,1.9237761857142857,1.2139716571428572
448,4.480000477,0.6689196885714285,0.3121393142857142,-0.7902159657142857,-0.7707365285714286,1.9337243285714287,0.8680576071428572
449,4.490000477,0.3763583283333333,0.2513409,-0.42219435,-0.8310068,2.2196408333333335,1.137092145
450,4.500000477,0.2565872685714286,0.2255967885714285,-0.1650357628571428,-0.5958596714285714,2.4225548,1.517126457142857
451,4.510000477,0.243688,0.1987006116666666,0.0818442083333333,-0.0694838666666666,2.6010384666666666,2.0995838
452,4.520000477,0.40752378,0.1876721014285714,-0.1026627685714285,0.5286882714285714,2.726058542857143,2.7046134428571427
453,4.530000477,0.7330000733333333,0.201017825,-0.5424605450000001,1.1421825666666667,2.915828533333334,3.4476219666666665
454,4.540000477,0.8540480714285714,0.2111011671428571,-0.6557700000000001,1.1665001285714285,3.014902157142857,3.622258828571429
455,4.550000477,1.1778256857142857,0.23387254,-0.8044938171428572,0.968062,3.121713085714286,3.588225885714286
456,4.560000477,1.67520955,0.2973801666666666,-0.8911597566666667,0.5227834266666667,3.2053700000000003,3.2073044
457,4.570000477,1.6808341285714286,0.3242044599999999,-0.9126534428571428,0.2511891171428571,3.1728497142857144,2.7700614
458,4.580000477,1.4586217333333331,0.36595633,-0.95310435,-0.1733279083333333,3.1025441666666667,2.1861205833333335
459,4.590000477,1.3357922714285717,0.3718161357142857,-0.9271533628571428,-0.2811860828571428,3.0911707857142856,2.0869597142857144
460,4.600000477,1.08950464,0.3699402833333333,-0.8159317516666666,-0.6772769200000001,3.07729575,1.9947217
461,4.610000477,0.8560298714285715,0.3459522342857143,-0.5433461685714286,-0.7574724428571429,3.0564395714285717,2.1778886
462,4.620000477,0.7066527,0.2795285057142857,-0.1512936685714286,-0.4843364142857143,2.949977714285714,2.7660473142857143
463,4.630000477,0.83260953,0.20370091,0.03125182,-0.06398624725,2.8616665666666665,3.2853656
464,4.640000477,1.099153865714286,0.1528050814285714,0.0603693742857142,0.2561195343714286,2.8276338142857145,3.565711871428572
465,4.650000477,1.6637252,0.095844005,0.060049236,0.5826464866666666,2.7692251999999997,3.613416133333333
466,4.660000477,2.3153703714285716,0.0799523985714285,-0.0647642337142857,1.257429114285714,2.580851414285714,3.236137842857143
467,4.670000477,2.5310469999999996,0.160756325,-0.46952434,1.63248935,2.3491657499999996,2.345348
468,4.680000477,2.229786057142857,0.2847248,-1.030983485714286,1.409966357142857,2.042433314285714,1.175400957142857
469,4.690000477,1.8716844,0.3390746733333333,-1.2583051333333335,0.96910918,1.9424433666666665,0.7304714999999998
470,4.700000477,1.5478777714285716,0.3465184957142857,-1.2271317428571429,0.4559974814285714,1.9064978571428572,0.4947426514285714
471,4.710000477,1.2406560285714283,0.3426855057142857,-0.7416896071428571,0.0719272628571428,1.7836303142857144,0.6586242328571429
472,4.720000477,1.3067022666666668,0.3415239866666666,-0.3825019766666666,0.2743213173333333,1.5062474666666663,0.9687019566666666
473,4.730000477,1.469872357142857,0.3345839914285714,-0.2724157085714285,0.57013866,1.2459102000000002,1.1368303714285717
474,4.740000477,1.662769733333333,0.3075789333333333,-0.3267670266666667,0.979493615,0.86037835,1.15541755
475,4.750000477,1.9663210285714283,0.2722414857142857,-0.5463123742857142,1.3708721857142856,0.3671628314285714,0.930189442857143
476,4.760000477,2.3782266857142855,0.40263236,-1.3572612857142856,1.5225368142857143,-0.3866226942857143,0.0853004571428571
477,4.770000477,2.3000629333333333,0.4929860733333333,-1.5806715333333334,1.00128048,-1.017366166666667,-0.8943821999999999
478,4.780000477,2.110014185714286,0.4966666057142857,-1.6419947428571429,0.3660065914285714,-1.4564780714285714,-1.5318740857142856
479,4.790000477,1.9978604857142856,0.4435319614285714,-1.5441406285714283,-0.13318652,-1.5894682428571427,-1.8013449714285714
480,4.800000477,2.0090044666666667,0.385230795,-1.0928228666666666,-0.62087534,-1.666085933333333,-2.031881633333333
481,4.810000477,1.996262,0.35188464,-0.8828345714285714,-0.7192508642857142,-1.9099011857142856,-2.213383257142857
482,4.820000477,1.933497,0.30145052,-0.7262618500000001,-0.5988848333333333,-2.3901434666666668,-2.405771
483,4.830000477,1.8760764142857145,0.2555114285714285,-0.6452031142857143,-0.5208127171428572,-2.6205783142857144,-2.4770947142857147
484,4.840000477,1.8857111,0.2295865771428571,-0.5563826285714286,-0.2207994691428571,-3.284569285714286,-2.6146225857142857
485,4.850000477,1.8965741,0.2268221866666666,-0.5701755466666666,0.018070896,-3.8176427,-2.7388863333333333
486,4.860000477,1.8498205,0.2170248542857142,-0.8245603228571429,0.0940486611428571,-4.293754785714286,-2.9319142
487,4.870000477,1.77636895,0.1715852199999999,-0.99959591,-0.2211776121666666,-4.332790500000001,-3.090530783333333
488,4.880000477,1.7032656857142856,0.1278907357142857,-0.9656748285714284,-0.5560673571428572,-4.145231428571429,-3.164908657142857
489,4.890000477,1.4875970333333333,0.0637587983333333,-0.6356163833333334,-0.9091952666666666,-3.8449271333333335,-3.2206412666666666
490,4.900000477,1.3081555714285713,0.0262515308571428,-0.2969598428571429,-0.9834859214285716,-3.686921357142857,-3.224248157142857
491,4.910000477,1.1534208428571429,0.0032493184285714,-0.0914774685714285,-0.7564252771428571,-3.7256664857142856,-3.1841068
492,4.920000477,1.055254666666667,-0.0400023321666666,-0.0502570006666666,-0.3675773583333333,-3.8559225,-3.1314576000000005
493,4.930000477,0.9222707285714286,-0.0654088715714285,-0.055351664,-0.0893800528571428,-3.897750942857143,-3.055305342857143
494,4.940000477,0.8109619333333334,-0.0535295506666666,-0.1117646533333333,0.18508672,-3.9104914,-2.930285266666667
495,4.950000477,0.7214968142857143,-0.0135286637142857,-0.2820983485714285,0.5041671442857142,-3.880472657142857,-2.6692498571428573
496,4.960000477,0.7749436333333334,0.0768947353333333,-0.5298886533333333,0.714996685,-3.8219186,-2.3778757
497,4.970000477,0.8793588142857143,0.1791611431428571,-0.8376620714285714,0.8059256857142857,-3.7925105857142856,-2.124439457142857
498,4.980000477,0.9992961,0.26049283,-1.2037084333333334,0.4751373533333333,-3.846963233333333,-2.1353184666666665
499,4.990000477,1.0558107142857145,0.2992378514285714,-1.3727151142857144,0.0096208407142857,-3.923057414285714,-2.266439685714286
500,5.000000477,1.09727435,0.3070605999999999,-1.2530457000000002,-0.516216865,-3.9846075666666665,-2.4762220666666668
501,5.010000477,1.1297479714285714,0.3259118657142857,-0.8933666057142856,-0.8004062571428572,-4.096537942857142,-2.6645376285714284
502,5.020000477,1.0881253714285717,0.3515710457142857,-0.6401244742857142,-0.8339155571428571,-4.223245014285714,-2.7886268571428574
503,5.030000477,1.0573788,0.36014298,-0.57131386,-0.8134958,-4.267226,-2.8231833
504,5.040000477,0.9571812742857144,0.4081161514285714,-0.5395872542857142,-0.5352985214285714,-4.4089428,-2.8484899
505,5.050000477,0.8104131,0.4487457000000001,-0.6206155,-0.18554485,-4.5812016,-2.8977067
506,5.060000477,0.5326399657142857,0.44224707,-0.6601386928571429,-0.3729876914285714,-4.5314612571428565,-2.8903765
507,5.070000477,0.5300004100000001,0.432631955,-0.4480596749999999,-0.4799732249999999,-4.40649935,-2.7620985499999997
508,5.080000477,0.6413570928571428,0.3547985828571428,-0.3802399428571429,-0.5258740514285715,-4.5604328,-2.8636738142857143
509,5.090000477,0.6114337214285716,0.2739837742857143,-0.3557786114285714,-0.7517130342857142,-4.700753371428571,-3.1167391
510,5.100000477,0.5541583333333334,0.2075324366666666,-0.2223910266666666,-0.9271134333333334,-4.6528745,-3.288649
511,5.110000477,0.3878841214285714,0.1431529485714286,0.0167518471428571,-1.0424763428571429,-4.553277428571429,-3.444153228571429
512,5.120000477,0.28056515,0.101941925,0.149856305,-1.0391020666666666,-4.473692666666667,-3.4975587333333333
513,5.130000477,0.1464806785714285,0.0422585660571428,0.2555985428571428,-0.9970990285714284,-4.409291857142857,-3.5101247285714288
514,5.140000477,-0.02041786,0.0192186018666666,0.3547768066666666,-0.8570696333333333,-4.1975896666666666,-3.468238033333334
515,5.150000477,-0.0743379657142857,0.06453774,0.44128012,-0.6265765857142858,-3.812581285714286,-3.3170970142857144
516,5.160000477,0.0976755657142857,0.0484566605714285,0.3339045128571428,-0.2242900334285714,-3.319474928571428,-3.2238991857142856
517,5.170000477,-0.0117994699999999,0.038803077,0.0461307406666666,-0.0454572153333333,-3.1993126333333333,-3.3819049
518,5.180000477,-0.1729369242857143,-0.0608484978571428,-0.2464385888571428,-0.3836338788571428,-3.1804635714285716,-3.4898794714285715
519,5.190000477,-0.3493191733333333,-0.21841721,-0.3470934166666666,-1.1211592166666666,-3.1080925999999995,-3.5500916166666667
520,5.200000477,-0.5018846857142857,-0.3942172342857142,-0.1743350885714285,-1.5669322714285714,-2.952181228571429,-3.497907842857143
521,5.210000477,-0.5855880083333332,-0.5550069666666667,0.099624705,-1.9651465833333337,-2.7299781666666667,-3.3737603833333334
522,5.220000477,-0.6767163142857143,-0.6432779428571429,0.3409519457142857,-2.0430440714285716,-2.5540831428571424,-3.245191514285714
523,5.230000477,-0.8133444714285715,-0.6846958799999999,0.4588900085714286,-1.9837046142857144,-2.344649885714286,-3.0937014
524,5.240000477,-1.0794989499999998,-0.7283046999999999,0.5628986850000001,-1.8702616,-2.1099682666666664,-2.911959833333333
525,5.250000477,-1.3131951285714287,-0.7731984000000001,0.6945614328571429,-1.516668342857143,-1.5987181714285714,-2.4243218714285715
526,5.260000477,-1.52096785,-0.7991116666666667,0.827045225,-0.982089675,-1.0674556333333334,-1.8214447
527,5.270000477,-1.6321117428571428,-0.7639644457142857,0.7353957114285714,-0.4342469482857143,-0.7393433771428572,-1.2543748428571428
528,5.280000477,-1.7303651,-0.6925099333333332,0.4910246,0.3246398446666667,-0.2419973266666666,-0.3053218166666667
529,5.290000477,-1.682092814285714,-0.6070737285714286,0.2340424142857142,0.6060913428571428,0.0734325671428571,0.2790263
530,5.300000477,-1.535181,-0.4965184928571428,0.0241738885714285,0.7670059714285715,0.3645449414285714,0.7984209800000001
531,5.310000477,-1.3778954,-0.36890363,-0.1393374053333333,0.8261709,0.6889339333333333,1.3498706333333337
532,5.320000477,-1.2204152714285714,-0.2340119128571428,-0.2588609142857143,0.7624682785714285,0.9825477857142858,1.7565785
533,5.330000477,-1.1148516428571429,-0.1497822614285714,-0.3078838142857142,0.68253456,1.2045471428571428,1.9789269
534,5.340000477,-0.8842690733333333,-0.033253974,-0.31993738,0.5235979199999999,1.5754769333333334,2.262476433333333
535,5.350000477,-0.69547612,0.027514672,-0.2877868414285714,0.4463984457142857,1.6996825285714288,2.3302514285714286
536,5.360000477,-0.3791329,0.1650706076666666,-0.2396887716666666,0.3969489,1.6072409166666668,2.1238139666666664
537,5.370000477,-0.3344881642857143,0.2016798885714285,-0.27092608,0.3821722185714286,1.4726218285714283,1.907196
538,5.380000477,-0.3474440383333333,0.2080507633333333,-0.3152928,0.3383075766666666,1.3824491333333333,1.7245236000000002
539,5.390000477,-0.4705282971428571,0.1859646885714285,-0.3250146114285714,0.2283259857142857,1.3881503857142856,1.5687866285714287
540,5.400000477,-0.6581074933333333,0.1470919133333333,-0.2520777166666667,0.13331742,1.4867004333333331,1.500139
541,5.410000477,-0.7479399971428571,0.1315407685714285,-0.18846483,0.1434400257142857,1.5668668428571428,1.5453999142857142
542,5.420000477,-0.8287853085714286,0.1404263057142857,-0.19495911,0.2517345228571429,1.7658285,1.777871
543,5.430000477,-0.8977149833333334,0.1698981233333333,-0.2514475949999999,0.322629175,1.9411962166666663,1.96886255
544,5.440000477,-0.8544052428571428,0.2430368285714285,-0.3864946542857143,0.3896769357142857,2.3379088,2.3141948
545,5.450000477,-0.50028326,0.2804228466666666,-0.4495384066666667,0.4022429299999999,2.7162850666666665,2.7474891333333336
546,5.460000477,-0.1551092285714286,0.3389439771428571,-0.4917185828571428,0.4589644657142857,2.534776085714286,2.7356794571428575
547,5.470000477,0.1286253983333333,0.3803880366666667,-0.6516741933333333,0.4580336333333333,2.0529813333333333,2.44287995
548,5.480000477,0.22361932,0.3672165342857142,-0.8143462985714285,0.2990097314285714,1.8150454285714288,2.169162242857143
549,5.490000477,0.1485888085714286,0.3590627571428571,-0.8461338642857142,-0.0396396285714285,1.6303949285714283,1.7756021000000002
550,5.500000477,-0.09217002,0.3489228,-0.72902626,-0.4441368666666667,1.6862438,1.505433133333333
551,5.510000477,-0.2550758628571428,0.3347582028571429,-0.5147556428571428,-0.6414114328571429,1.9160096571428569,1.500197257142857
552,5.520000477,-0.31270117,0.32742763,-0.39584628,-0.6697431083333334,2.11561855,1.566721383333333
553,5.530000477,-0.4743308,0.3600384371428571,-0.0748475757,-0.3328463157142857,2.541582728571428,1.880493314285714
554,5.540000477,-0.4308265314285714,0.3937947542857142,-0.0472414324714285,0.2651949799999999,2.7906337999999997,2.389416285714286
555,5.550000477,-0.0845984333333333,0.3735685366666666,-0.2032943913333333,0.676513335,2.7810348,2.6794815
556,5.560000477,0.4092007057142857,0.3851618514285714,-0.4636028542857143,1.0589910057142855,2.5513562857142853,2.774773757142857
557,5.570000477,0.6751613383333334,0.39830069,-0.7503181716666667,1.0428181,2.3249354666666666,2.4929694333333337
558,5.580000477,0.6981679,0.3869171714285714,-0.9436874857142856,0.7717182371428571,2.1920035142857146,2.063747428571429
559,5.590000477,0.47857466,0.36006164,-1.0337798,0.220923082,2.195436033333334,1.5685539666666666
560,5.600000477,0.1821491257142857,0.3212687457142857,-0.8708608857142857,-0.2052664972857143,2.275777,1.3919899999999998
561,5.610000477,-0.0193303928571428,0.2954397228571429,-0.6855931285714286,-0.4585063257142857,2.395328457142857,1.496183114285714
562,5.620000477,-0.2088231533333333,0.2747314866666666,-0.4462760466666666,-0.45635381,2.521221166666667,1.7623962000000002
563,5.630000477,-0.1754109321428571,0.2336503942857142,-0.2574235714285714,-0.1981108455571429,2.7279785142857143,2.304246742857143
564,5.640000477,0.2178480974999999,0.17173258,-0.203396015,0.1985253558,2.8148351666666667,2.721019066666667
565,5.650000477,0.8033482814285714,0.1748098542857143,-0.3806711671428572,0.8109870071428571,2.7134926,2.9185847
566,5.660000477,1.0486180666666665,0.2078881383333333,-0.6602163366666667,0.902526815,2.6179386499999997,2.72834935
567,5.670000477,1.0553926142857142,0.2425402714285714,-0.9182983142857142,0.7546145285714285,2.544026214285714,2.3077373428571426
568,5.680000477,0.7979531,0.2850572933333333,-1.0113090333333332,0.3655921,2.6226218666666665,1.9464647666666668
569,5.690000477,0.5063840885714286,0.3300236299999999,-0.9067210342857144,0.0762904614285714,2.9213552285714286,2.0209881571428574
570,5.700000477,0.3905628585714286,0.3569720514285714,-0.6140471171428572,0.0968411131428571,3.1686610428571425,2.4248455142857144
571,5.710000477,0.4874064949999999,0.38003743,-0.4303604649999999,0.35085539,3.16403605,2.76377845
572,5.720000477,0.6229457571428572,0.4129291714285714,-0.3685624585714285,0.8108124371428571,3.0325293714285713,3.0907343999999997
573,5.730000477,0.725956965,0.4462913,-0.6506172650000001,1.27575445,3.0009399,3.3399601000000003
574,5.740000477,0.9591239271428572,0.4483798285714285,-1.0505056285714287,1.281339342857143,3.369368142857143,3.497646085714286
575,5.750000477,1.3592561,0.4893273599999999,-1.2485383333333333,0.9414174166666666,3.853275333333334,3.2923905
576,5.760000477,1.3748754857142855,0.5853607628571428,-1.3762039142857143,0.6258130142857142,3.963111571428571,2.846679114285714
577,5.770000477,1.08709595,0.6098323166666667,-1.3980896833333334,0.0966920308333333,3.873840566666667,2.350235
578,5.780000477,0.8149952714285714,0.6317659542857142,-1.2492889571428571,-0.2616389765714286,3.5999192714285715,2.168115142857143
579,5.790000477,0.5607382999999999,0.6203933142857142,-1.0268194857142858,-0.4654874442857143,3.236726942857143,2.2227423
580,5.800000477,0.4529888333333333,0.5830421316666666,-0.7986695333333333,-0.4575754966666667,2.9720263999999994,2.5121092333333332
581,5.810000477,0.5089625971428572,0.56064247,-0.6614627828571429,-0.3007331885714285,2.8105301428571425,2.8677969142857145
582,5.820000477,0.7099295933333334,0.5257624,-0.5586199833333333,-0.0413849,2.7077332999999997,3.1871719000000005
583,5.830000477,1.2352855,0.4788171571428571,-0.5176216785714286,0.2846766414285714,2.626752314285714,3.2619897285714288
584,5.840000477,1.821913857142857,0.4879117642857142,-0.7004372285714285,0.8441472914285714,2.4496066714285716,2.6789578714285716
585,5.850000477,1.8266106666666664,0.49614682,-0.9859315,0.7958321333333332,2.39782995,2.0568245166666665
586,5.860000477,1.7624591285714286,0.4929991214285714,-1.087249814285714,0.6003319285714286,2.433549942857143,1.6918287142857142
587,5.870000477,1.4601984857142856,0.4602446214285714,-1.091605457142857,0.1436363657142857,2.493762085714286,1.221127342857143
588,5.880000477,1.224136516666667,0.369096755,-0.9069888666666668,-0.1611109733333333,2.4479194833333335,1.0648086333333333
589,5.890000477,1.0303910428571428,0.2844416828571429,-0.6513054142857142,-0.2949737785714285,2.309984385714286,1.0623069857142855
590,5.900000477,0.8985483666666667,0.20366533,-0.4334653416666666,-0.1043021716666666,1.913911666666667,1.3038535
591,5.910000477,0.8644014828571428,0.1464327585714286,-0.3638409228571428,0.0308696011428571,1.710677742857143,1.4352728857142856
592,5.920000477,0.8545620399999999,0.11390909,-0.33873928,0.068567604,1.6593666,1.4687822
593,5.930000477,1.0573352057142855,0.0193478191428571,-0.4637465714285714,0.2938393548571428,1.3521977142857142,1.7546588
594,5.940000477,1.5601011500000002,0.027618483,-0.5203403183333334,0.40957308,1.2073396,1.5640744
595,5.950000477,1.5785546428571429,0.12850053,-0.6443363699999999,0.37187508,1.1242644,1.2925091428571427
596,5.960000477,1.5211776,0.1623309057142857,-0.7675883257142857,0.1811816614285714,1.0200712857142855,0.7973738428571429
597,5.970000477,1.413924,0.1689834399999999,-0.8096610666666667,-0.0841442086666666,1.0310084,0.4706578333333333
598,5.980000477,1.2341792,0.1965924785714285,-0.6813289514285714,-0.3256906671428571,0.9924959071428572,0.2521490214285714
599,5.990000477,1.1311737666666668,0.23185296,-0.5453468733333334,-0.3797942766666666,0.7931851833333333,0.1921114633333333
600,6.000000477,1.0610854571428572,0.2645886042857143,-0.4274117085714285,-0.2267334085714285,0.36279965,0.2467386571428571
601,6.010000477,1.0582832666666668,0.2737558033333333,-0.3745137266666666,-0.1077636353333333,0.138356905,0.2890325599999999
602,6.020000477,1.1748420142857143,0.2389468642857142,-0.4278080542857143,0.0796064871428571,-0.1108687778571428,0.3142809199999999
603,6.030000477,1.309135642857143,0.1961351285714285,-0.5247997571428572,0.25686127,-0.29412296,0.28984702
604,6.040000477,1.5258766833333333,0.1615592216666666,-0.5673450999999999,0.3159098433333333,-0.3605016933333333,0.0984482133333333
605,6.050000477,1.7876478142857144,0.2803343085714285,-0.6785413142857142,0.4701342514285714,-0.5332260285714286,-0.3580001314285714
606,6.060000477,1.8905219,0.3719272,-0.8933651333333333,0.5388691166666667,-0.77872845,-0.7640681016666666
607,6.070000477,1.872774757142857,0.3910027814285714,-1.0840179828571428,0.4329598285714285,-0.9739086714285714,-1.070248
608,6.080000477,1.8273474,0.398468375,-1.20132005,0.1822361066666666,-1.1146944333333333,-1.3557754333333332
609,6.090000477,1.7362380571428573,0.3838464514285714,-1.1993033571428573,-0.15343174,-1.2458229714285716,-1.602557757142857
610,6.100000477,1.6809111,0.3597262866666667,-1.1333384333333334,-0.35291701,-1.3875395499999998,-1.72472725
611,6.110000477,1.6092402142857145,0.3095433285714285,-1.0035776714285716,-0.4695015771428571,-1.5315249857142856,-1.7915714142857142
612,6.120000477,1.6028504714285714,0.29128006,-0.8195295285714286,-0.4300582857142857,-2.0425422714285717,-1.8460240714285712
613,6.130000477,1.6822118666666668,0.3637203933333333,-0.7363539666666666,-0.026113725,-3.1004316000000003,-1.9269177
614,6.140000477,1.8169875285714288,0.37840186,-0.9427336142857144,0.1894499142857142,-3.790067285714286,-2.065514614285714
615,6.150000477,1.905238166666667,0.4004146183333333,-1.1395633833333332,0.10934166,-4.013113933333334,-2.2819727000000003
616,6.160000477,1.8894003571428573,0.3975275642857143,-1.2050179714285714,-0.1775165828571428,-3.946967828571428,-2.5580757142857142
617,6.170000477,1.7310613333333331,0.3706364833333333,-1.188936233333333,-0.6009209716666667,-3.677962266666667,-2.8343822999999997
618,6.180000477,1.546226957142857,0.3334645928571428,-0.9798263071428572,-0.864981527142857,-3.499653085714286,-2.9364518857142854
619,6.190000477,1.3782206333333331,0.3255576233333333,-0.61262719,-0.919783275,-3.48045505,-2.9264165
620,6.200000477,1.3294982285714287,0.3320794914285714,-0.3728266357142856,-0.733038557142857,-3.6586478857142857,-2.8146314857142856
621,6.210000477,1.4517876,0.3456125142857143,-0.3006578,-0.2846766558571428,-4.053255214285715,-2.6622687714285713
622,6.220000477,1.537732,0.41097929,-0.57772678,0.2983225215,-4.73635695,-2.6692499
623,6.230000477,1.5195573285714286,0.4444379828571428,-0.8378014785714285,0.5130680571428571,-5.235855428571429,-2.774664657142857
624,6.240000477,1.4627378,0.4320221849999999,-1.20010055,-0.01730734,-5.39933,-2.9144031666666663
625,6.250000477,1.4539916000000002,0.3770559728571428,-1.1924476714285714,-0.6668924814285714,-5.090124857142857,-3.0095791
626,6.260000477,1.4126739285714287,0.2678553471428571,-0.9175709657142858,-1.16290045,-4.706861771428572,-3.1446635
627,6.270000477,1.2535945166666669,0.1745731916666666,-0.61524426,-1.6222576,-4.259081666666667,-3.3851628
628,6.280000477,1.0497171714285711,0.0922135678571428,-0.3219003328571428,-1.7884080714285715,-4.010146885714286,-3.602100828571429
629,6.290000477,0.9133917,0.0231111049999999,-0.0563752475,-1.7413728,-3.88911185,-3.74678435
630,6.300000477,0.7631281485714286,-0.0356684558571428,0.3249754035714285,-1.1417825785714286,-3.918694257142857,-3.8528972857142856
631,6.310000477,0.5960931328571428,-0.0269789247428571,0.4837520899999999,-0.58922762,-4.006481757142857,-3.867208514285714
632,6.320000477,0.4248825,-0.0084456149333333,0.37088546,0.0828716133333333,-4.138948466666666,-3.816828133333334
633,6.330000477,0.2875516328571428,-0.0492929442857142,-0.1415674871428571,0.6544355657142857,-4.270367571428571,-3.7153694
634,6.340000477,0.17892813,-0.0885265069999999,-0.479662135,0.4221972666666667,-4.237905666666667,-3.6930298
635,6.350000477,0.0251190617142857,-0.1750537657142857,-0.7228819000000001,-0.2380558971428571,-4.053254857142857,-3.637879114285714
636,6.360000477,-0.0944160809333333,-0.2642074783333333,-0.5179773833333333,-0.7318458883333333,-3.7190925,-3.4900249666666667
637,6.370000477,-0.1547956171428571,-0.2530853214285714,-0.1890179971428571,-0.9045993114285712,-3.284678314285714,-3.2244227999999997
638,6.380000477,-0.1369897028571428,-0.1887435985714285,0.0310645271428571,-0.688359432857143,-2.973299085714286,-2.940815
639,6.390000477,-0.149917295,-0.1217601516666666,0.04759424,-0.3148408666666666,-2.948050666666667,-2.7403116666666665
640,6.400000477,-0.15723915,-0.0921395194285714,0.0016464391428571,-0.2136438327142857,-2.9821999142857143,-2.6880987857142853
641,6.410000477,-0.18856791,0.0363740726666666,-0.35751068,-0.0523801526666666,-3.2457877666666666,-2.550338266666667
642,6.420000477,-0.2140978642857142,0.1139308614285714,-0.5940372428571428,-0.4195866171428571,-3.4458984285714287,-2.4811088714285714
643,6.430000477,-0.146624415,0.1147475474999999,-0.5425164,-0.9678365333333332,-3.3394510000000004,-2.506357233333333
644,6.440000477,-0.1093138671428571,0.0907762057142857,-0.30682975,-1.3592442571428571,-3.1469541571428574,-2.5877454285714285
645,6.450000477,-0.1317977514285714,0.0647816535714285,-0.1574046528571428,-1.5861304285714284,-2.795629757142857,-2.6652357714285713
646,6.460000477,-0.2289564566666666,-0.0263023475,0.0154226483333333,-1.7289523000000002,-2.3099189333333334,-2.763727533333333
647,6.470000477,-0.3816599028571428,-0.0813375005714285,0.256147364,-1.736922342857143,-2.1114808285714286,-2.889329371428571
648,6.480000477,-0.5108733033333334,-0.1256424966666667,0.4197297716666666,-1.5927333500000005,-2.1299226,-2.95309025
649,6.490000477,-0.6975319785714287,-0.27221972,0.4362623928571428,-1.4215506714285715,-2.171169257142857,-2.9476216714285712
650,6.500000477,-0.88490935,-0.3884373066666666,0.49143113,-1.21787675,-2.157207,-2.87815955
651,6.510000477,-1.0468947,-0.4401345771428571,0.5470920257142857,-0.9916887285714284,-2.041146085714286,-2.707645857142857
652,6.520000477,-1.29352055,-0.47853401,0.54692215,-0.632685035,-1.7870337,-2.34672245
653,6.530000477,-1.4984541714285713,-0.4951725857142857,0.39250984,-0.2024740477142857,-1.2194693142857145,-1.6359580714285715
654,6.540000477,-1.5668249428571428,-0.4720135828571429,0.2841498628571428,0.1955802048571428,-0.50949024,-0.7615083685714286
655,6.550000477,-1.5081977999999998,-0.4187642533333333,0.2108558066666666,0.4185321633333332,-0.25910104,-0.32588701
656,6.560000477,-1.4121207714285713,-0.3634140571428572,0.0485611977142857,0.6301762000000001,-0.0197652685714285,0.1132249085714285
657,6.570000477,-1.2776559,-0.2834108466666666,-0.195712648,0.7593849533333333,0.2829240933333333,0.5712439800000001
658,6.580000477,-1.1676900428571428,-0.1754414299999999,-0.3626126242857143,0.74972777,0.5088793985714286,0.8802745357142857
659,6.590000477,-1.0734772333333331,-0.0714980766666666,-0.4725580833333334,0.6490252333333334,0.7284353666666666,1.1812768333333332
660,6.600000477,-1.0399692,-0.0357033,-0.5088407,0.6099310000000001,0.7895201,1.2647593
661,6.610000477,-0.9252586571428572,0.0478207342857142,-0.5597234371428571,0.3908986085714286,1.0261797571428573,1.4686077285714287
662,6.620000477,-0.71188094,0.17823194,-0.2859313066666666,0.2299839933333333,1.0925003,1.6345255
663,6.630000477,-0.5864801742857143,0.2181834757142857,-0.1886738942857143,0.3165497728571428,0.9432790714285714,1.572975342857143
664,6.640000477,-0.5602766,0.2138387,-0.21743647,0.37658733,0.9039521266666668,1.4610448666666669
665,6.650000477,-0.5656122714285715,0.1984741228571428,-0.2630292757142857,0.36838453,0.9839440028571428,1.357782614285714
666,6.660000477,-0.6200107666666667,0.1702436716666666,-0.2205972133333333,0.328330395,1.09677625,1.27086775
667,6.670000477,-0.6851532142857143,0.1563288071428571,-0.1914963614285714,0.3079979114285714,1.1582973142857145,1.2207782
668,6.680000477,-0.7605234571428572,0.1265230628571428,-0.2150038342857143,0.3085215028571428,1.175051957142857,1.2595233714285714
669,6.690000477,-0.778582,0.096087925,-0.26490876,0.2662275966666667,1.2651664333333332,1.3747117
670,6.700000477,-0.80026446,0.070740192,-0.2897773714285714,0.2217157414285714,1.418343671428571,1.4878057142857142
671,6.710000477,-0.8265943885714285,0.0794514991428571,-0.1926898142857142,0.23936487,1.7326682857142857,1.7698427
672,6.720000477,-0.7104988,0.1106466959999999,-0.19189128,0.42789849,1.953489466666667,2.075964433333333
673,6.730000477,-0.5430412857142858,0.1438759897142857,-0.30411184,0.5732801642857143,2.1251594428571425,2.289761042857143
674,6.740000477,-0.393361375,0.17502546,-0.375463995,0.6050442233333334,2.2231276999999996,2.363062633333333
675,6.750000477,-0.1562983214285714,0.2512864428571428,-0.4073800342857143,0.6422186428571429,2.2365080571428573,2.3508457285714286
676,6.760000477,-0.0418113826666666,0.3057902066666667,-0.4710742466666666,0.7121460833333333,2.13598,2.2376353666666664
677,6.770000477,0.0532653017142857,0.3421889714285714,-0.5796592714285714,0.7268646,2.0339686571428572,2.0852144285714287
678,6.780000477,0.0727263671428571,0.3785412571428571,-0.6779837857142857,0.6889920571428572,1.9806723,1.8906159142857144
679,6.790000477,0.0203060624999999,0.39040388,-0.74225365,0.6164466666666667,1.9570528,1.7566949
680,6.800000477,-0.0661144828571428,0.3952974685714286,-0.7869013142857143,0.4242334285714286,1.8689744142857143,1.6213195
681,6.810000477,-0.1439108366666666,0.40627372,-0.8429353666666667,0.13626985,1.7913096,1.5608165000000005
682,6.820000477,-0.2239068071428571,0.3904365428571429,-0.9422849571428572,-0.5136571,1.9542530428571427,1.5759422285714284
683,6.830000477,-0.2813883766666666,0.3807945866666666,-0.7974449266666666,-0.9554160833333332,2.3043704166666665,1.6862438666666666
684,6.840000477,-0.2061618599999999,0.4056421214285715,-0.3954237571428572,-1.0471885428571428,2.584167571428572,1.867229142857143
685,6.850000477,0.0319705071428571,0.4198285042857143,-0.0392705814285714,-0.7588686142857143,2.7607897285714285,2.0417569714285717
686,6.860000477,0.2258363433333333,0.4434506866666667,0.1494497733333333,0.0076865,2.62669405,2.0887923333333336
687,6.870000477,0.4308091071428571,0.4858907285714285,0.1397032757142857,0.8011697857142858,2.3031778,1.9986486285714289
688,6.880000477,0.474966735,0.49082132,-0.174369925,1.38570695,2.0528286,1.86338955
689,6.890000477,0.4148369171428571,0.4754023071428571,-0.7186395114285714,1.7098050571428571,1.9124318571428571,1.7201022428571429
690,6.900000477,0.245791775,0.453364865,-1.2920876,1.5392333,1.9835738,1.5901372333333332
691,6.910000477,0.0131714957142857,0.4302123771428571,-1.5594376428571428,0.37946706,2.461300028571429,1.6391213285714286
692,6.920000477,-0.0673906937142857,0.4049147285714286,-1.3813566714285714,-0.7794628628571428,2.8782468571428574,1.8607716285714289
693,6.930000477,0.058418046,0.4088348216666666,-0.8217857333333334,-1.2689842166666667,2.9706012166666667,2.0881814333333333
694,6.940000477,0.2519789794285714,0.4192361485714285,-0.4949983885714286,-1.2536549142857143,2.853638485714286,2.2223932714285715
695,6.950000477,0.4208172466666666,0.4218843766666666,-0.3509350933333333,-0.9975644666666668,2.6694534,2.282430833333333
696,6.960000477,0.5505504428571429,0.43812227,-0.2563825371428571,-0.5515296142857143,2.461823485714286,2.258171471428571
697,6.970000477,0.6228920733333333,0.46288271,-0.2907283466666666,-0.1134648766666666,2.293578666666667,2.1989483666666665
698,6.980000477,0.6695817914285714,0.4649138828571428,-0.4623919685714285,0.2117676464285714,2.1989847,2.080502142857142
699,6.990000477,0.6501250514285715,0.4507884814285714,-0.68924752,0.3111394085714286,2.191829014285714,1.943846857142857
700,7.000000477,0.519008925,0.445071685,-0.9222337,0.1504974935,2.3033522,1.8743848
701,7.010000477,0.4444292399999999,0.4972633228571428,-0.9059544571428572,-0.1258563531428571,2.548912942857142,1.959379842857143
702,7.020000477,0.5519021266666667,0.5771424166666667,-0.7006557,-0.262308,2.8062831666666668,2.2174773
703,7.030000477,0.6605481657142857,0.5669668857142857,-0.6884896857142857,-0.1707099957142857,2.7574735285714285,2.292378957142857
704,7.040000477,0.7012756916666666,0.5512262666666666,-0.7353529083333333,-0.06357902,2.6519425333333335,2.3262083
705,7.050000477,0.7878508342857142,0.51523915,-0.72661907,-0.035450958,2.6021438714285714,2.3253647285714285
706,7.060000477,0.9806147,0.4912917628571429,-0.5984539228571428,0.0652515788571428,2.494111157142857,2.2616620857142857
707,7.070000477,1.05237845,0.48728454,-0.557883175,0.23968119,2.3699347,2.07901865
708,7.080000477,0.9531043714285714,0.4541989714285714,-0.6801877557142857,0.4036391342857142,2.2600694142857143,1.8426207
709,7.090000477,0.72670397,0.381256995,-0.840247155,0.3602980733333333,2.2960221,1.7864227999999998
710,7.100000477,0.4693653485714285,0.3182415485714286,-0.8725944357142857,0.127972504,2.440880242857143,1.9051017714285712
711,7.110000477,0.3272751966666666,0.29084014,-0.7408359,-0.0387378955,2.5018776,2.2724537333333332
712,7.120000477,0.29665929,0.2631207628571428,-0.6308207642857143,-0.0672150145714285,2.5255261142857144,2.545269757142857
713,7.130000477,0.27938478,0.2397962171428571,-0.5503805428571429,-0.0818753528571428,2.625006928571428,3.0510512857142857
714,7.140000477,0.3157145666666667,0.1834609016666666,-0.5125400833333333,-0.1134648783333333,2.77675895,3.4830764833333334
715,7.150000477,0.4068486585714286,0.0893301221428571,-0.4214183142857143,-0.1258563528571428,2.9707465857142856,3.9496730714285713
716,7.160000477,0.7165662300000001,-0.0254892911666666,-0.3137124083333333,-0.08943822,3.1687193,4.282090366666666
717,7.170000477,1.1353014571428572,-0.103520848,-0.2236410985714285,0.0418648514285714,3.3672736285714286,4.560520299999999
718,7.180000477,1.43723325,-0.097200795,-0.14433769,0.26167169,3.3986014,4.56287645
719,7.190000477,1.5247536,0.0413220985714285,-0.2615265671428571,0.6401242771428571,3.1808780142857143,4.297332514285714
720,7.200000477,1.3941515000000002,0.133544375,-0.513337875,0.86831935,2.6918511499999997,3.87445165
721,7.210000477,1.2610840142857145,0.1295197494285714,-0.6752354071428571,0.663685542857143,2.3131258285714287,3.6637963857142855
722,7.220000477,1.324463142857143,0.0920044968571428,-0.6459566857142857,0.3594836071428571,2.175597857142858,3.566758914285714
723,7.230000477,1.469001228571429,0.0653740277142857,-0.49157484,0.1944893968571428,2.266352357142857,3.478622442857143
724,7.240000477,1.5071153,0.0152702008333333,-0.29341143,-0.0173582423333333,2.6201785166666665,3.261440783333333
725,7.250000477,1.6770838857142856,-0.0379595325714285,-0.0971136807142857,0.0406431562857142,2.745256642857143,3.0899709142857144
726,7.260000477,1.9287101333333332,-0.045866498,0.068174705,0.3276686433333333,2.695923366666667,2.746267466666666
727,7.270000477,1.9803725714285711,0.0218261871428571,0.0513880126857142,0.8225058485714286,2.374210485714286,2.168289542857143
728,7.280000477,1.8577811666666664,0.0925053966666666,-0.1312170055333333,1.1022739,2.0680997,1.7571021
729,7.290000477,1.553391985714286,0.1296939782857143,-0.5553067928571428,1.1260096785714286,1.7780454571428572,1.3891975714285714
730,7.300000477,1.2999974142857142,0.0839508937142857,-0.7245240071428573,0.66612893,1.5750697,1.1780189
731,7.310000477,1.27054665,0.0560551009999999,-0.62474683,0.5398871766666666,1.4569725666666666,1.1837201666666666
732,7.320000477,1.2653133428571428,-0.0159765425714285,-0.3927276114285715,0.4680398928571428,1.2373584285714283,1.1944245142857142
733,7.330000477,1.4717728666666667,-0.0468015116666666,-0.2405272366666666,0.5958814716666666,0.8717808333333333,1.16091525
734,7.340000477,1.6927991428571427,-0.0732142042857142,-0.2473707014285714,0.75409093,0.6471053914285714,1.0258307428571427
735,7.350000477,1.9646572333333336,-0.0618125493333333,-0.42478091,1.0815051233333337,0.2381286266666666,0.5850898666666667
736,7.360000477,2.1097790142857145,0.0981677474285714,-0.7163745857142858,1.2165896285714286,-0.09411411,0.1657577657142857
737,7.370000477,2.1258964,0.1768497533333333,-0.8864541666666668,1.21161555,-0.5170822300000001,-0.32527615
738,7.380000477,2.066993371428571,0.2122031571428571,-1.126616242857143,0.973995957142857,-0.9068900571428572,-0.8056638857142858
739,7.390000477,1.9684336714285713,0.1809034,-1.2812812714285715,0.2779137068571428,-1.2753181857142857,-1.4735818
740,7.400000477,1.8074631833333337,0.0309672508333333,-1.01108545,-0.2812442546666666,-1.1623405,-1.8375304
741,7.410000477,1.6684423285714285,-0.0774958111428571,-0.7524524142857143,-0.4845109399999999,-0.9437153571428571,-1.9413162142857143
742,7.420000477,1.472159042857143,-0.1268105377142857,-0.4310225285714286,-0.28903984,-0.8522628428571429,-1.7479394428571429
743,7.430000477,1.5140669999999998,-0.0699837566666666,-0.3591927166666666,0.2702999,-1.2604833,-1.3545538
744,7.440000477,1.6063480857142858,-0.0058583545714285,-0.5160841171428572,0.46716725,-1.5563079,-1.3048133714285712
745,7.450000477,1.7501529,0.0999042016666666,-0.8903466999999999,0.759588575,-2.2995345,-1.28919315
746,7.460000477,1.8895135285714288,0.1758465,-1.155097914285714,0.6198790714285715,-2.9101199571428573,-1.4990628142857143
747,7.470000477,2.00879095,0.19211487,-1.2963714,0.2347944079999999,-3.1938148500000003,-1.82612785
748,7.480000477,2.0603685,0.136562844,-1.2896702285714288,-0.1773420599999999,-3.2738358857142855,-2.149745957142857
749,7.490000477,2.047275585714286,0.0201057014285714,-1.1221778285714286,-0.6558972714285715,-3.2453879428571426,-2.540797242857143
750,7.500000477,1.8681934166666665,-0.08931924,-0.7430260333333334,-0.8727480233333335,-3.2473912833333336,-2.803636166666667
751,7.510000477,1.6355179285714283,-0.1305781771428571,-0.5606293642857143,-0.6471708471428572,-3.5279265571428575,-2.799273
752,7.520000477,1.5558529333333333,-0.0788714666666666,-0.6651455216666666,-0.4378247799999999,-3.6944551166666666,-2.650720683333333
753,7.530000477,1.6343157285714285,-0.0332031557142857,-0.7854726571428571,-0.3773508914285714,-3.819213357142857,-2.570292485714286
754,7.540000477,1.8159240833333332,0.0376444716666666,-0.9832026433333332,-0.4465802466666666,-4.003747566666666,-2.610201333333333
755,7.550000477,1.984162171428571,0.0653740207142857,-1.1399532714285714,-0.7045905,-4.1565758285714285,-2.832258857142857
756,7.560000477,2.035306,0.0056754171428571,-1.197461,-1.1321835457142857,-4.154132285714286,-3.2005124
757,7.570000477,1.99744875,-0.021312219,-1.16397035,-1.45122035,-4.1212337,-3.4615186
758,7.580000477,1.7472621857142858,0.0381686062857142,-1.0436715,-1.58072,-4.250646085714286,-3.5445066000000005
759,7.590000477,1.49324255,0.091316305,-0.94604605,-1.7511464,-4.6563360000000005,-3.5971268
760,7.600000477,1.3441289285714286,0.0660186608571428,-0.8303794428571428,-2.0524686857142855,-5.0721484285714284,-3.6015772285714287
761,7.610000477,1.1906182333333335,-0.0100005813333333,-0.52176822,-2.2355482,-5.108973866666667,-3.6156558666666663
762,7.620000477,1.0890618,-0.0370274239999999,-0.0505430157142857,-2.2634726,-5.015077928571428,-3.5677188571428573
763,7.630000477,1.070376,-0.0221833502857142,0.3914601157142857,-1.9074359857142855,-4.771785971428571,-3.4553229428571433
764,7.640000477,1.08276135,0.012363527,0.4922543,-1.43167325,-4.6062465,-3.3772217
765,7.650000477,1.269808457142857,0.1133776925714285,0.4358529314285714,-0.493411865142857,-4.472122,-3.4101201428571426
766,7.660000477,1.39648395,0.194325365,0.2688418999999999,0.079639208,-4.487742,-3.5458155
767,7.670000477,1.2410828571428572,0.2336286214285714,-0.1343414528571428,0.19904894,-4.65014,-3.761444571428571
768,7.680000477,0.95057372,0.2150125466666666,-0.5954514,0.06897484,-4.973772833333333,-4.1493326
769,7.690000477,0.72237666,0.06671992,-0.5244469857142857,-0.9037267600000002,-5.072672,-4.329532528571429
770,7.700000477,0.6212383499999999,-0.0611882391428571,-0.2093937542857143,-1.3775696142857143,-5.028691,-4.3579808
771,7.710000477,0.5013605333333333,-0.1755895183333333,0.20724278,-1.5573042166666664,-4.941805333333333,-4.30733865
772,7.720000477,0.3447587871428571,-0.2024247028571428,0.4473562399999999,-1.4327204428571427,-4.8178614714285715,-4.162684157142857
773,7.730000477,0.232132445,-0.1939747349999999,0.497986375,-1.1800041666666667,-4.572242500000001,-3.954879766666666
774,7.740000477,0.0903885471428571,-0.2021459485714285,0.46498793,-0.9176889,-4.185023628571429,-3.7085627714285714
775,7.750000477,-0.0168302506666666,-0.2316801866666666,0.3601429466666666,-0.7520038666666666,-3.783028,-3.523214233333333
776,7.760000477,-0.0889729628571428,-0.2318907057142857,0.3259162114285714,-0.7267555214285714,-3.612397942857143,-3.4682379857142855
777,7.770000477,-0.16834824,-0.19115444,0.308112485,-0.651010475,-3.1981672000000003,-3.33324075
778,7.780000477,-0.1922455385714285,-0.15192959,0.2720411271428571,-0.5593833885714286,-2.8300118000000003,-3.229309485714286
779,7.790000477,-0.4249681885714285,-0.0471760964285714,0.1298072271428571,-0.3185350314285715,-2.216372,-3.099460742857143
780,7.800000477,-0.51201162,-0.0253774963333333,-0.01943203,-0.280837025,-2.1205562500000004,-3.0027724
781,7.810000477,-0.5081786285714286,-0.0716505242857142,-0.1802108657142857,-0.4047517428571429,-2.2292870857142857,-2.916730285714286
782,7.820000477,-0.4904859399999999,-0.13906299,-0.27320192,-0.6662816500000001,-2.4076545,-2.97161925
783,7.830000477,-0.5510992314285714,-0.3212469599999999,-0.2363683228571428,-1.2834992142857142,-2.4059091714285716,-3.117611757142857
784,7.840000477,-0.7655455571428572,-0.49192328,0.0513662442857142,-1.7055074142857145,-2.1744852714285714,-3.1846304285714284
785,7.850000477,-0.914397865,-0.531723075,0.22454054,-1.8539723333333331,-1.9230489,-3.166479433333333
786,7.860000477,-1.09455865,-0.5428017042857143,0.3954063357142857,-1.7323845857142857,-1.6920905142857143,-3.0006779571428575
787,7.870000477,-1.37325095,-0.53100155,0.6265609333333334,-1.4363564083333331,-1.5139849666666667,-2.7042462166666668
788,7.880000477,-1.5814947,-0.4444510142857143,0.5781696,-0.4344214814285714,-1.3069076857142858,-1.7547460857142858
789,7.890000477,-1.54806285,-0.39836165,0.4029350849999999,-0.00221432,-1.18657075,-1.26109415
790,7.900000477,-1.5034108428571429,-0.2921642628571428,0.1186088364285714,0.36279964,-0.9978189714285712,-0.6594096071428571
791,7.910000477,-1.4850155,-0.1909156133333333,-0.0985931456666666,0.4600698,-0.84225656,-0.1853921493333333
792,7.920000477,-1.4203267571428573,-0.1115701,-0.2622321842857143,0.39665804,-0.6292162942857142,0.2596537232857143
793,7.930000477,-1.2104582714285714,-0.0186509142857142,-0.3487659928571429,0.1635761742857142,-0.1040621799999999,0.77555786
794,7.940000477,-1.0315134333333331,0.04183171,-0.28503695,-0.0419957475,0.468214415,1.12792945
795,7.950000477,-0.9411001571428572,0.0875878598571428,-0.1832336814285714,-0.1450544057142857,0.9794063,1.3473108571428571
796,7.960000477,-0.911714725,0.1224461675,-0.114320692,-0.1611109633333333,1.2114119,1.4443483
797,7.970000477,-0.9004270714285714,0.1484494285714286,-0.0683184433428571,-0.1338846308571428,1.334046742857143,1.514857542857143
798,7.980000477,-0.8532713333333333,0.1767074566666666,0.0024493302,-0.0092136126666666,1.473058166666667,1.6726016166666666
799,7.990000477,-0.6722822857142857,0.1549306485714285,0.0268613239999999,0.1922641691428571,1.4110135142857143,1.7429653857142855
800,8.000000477,-0.55591225,0.1260700728571428,0.0478730032857142,0.3470921442857143,1.3851834571428572,1.6563995714285713
801,8.010000477,-0.544543975,0.106698297,0.0435696175,0.5060869633333333,1.3700285333333333,1.5522646666666668
802,8.020000477,-0.6446020571428571,0.0915079559999999,-0.0801832514285714,0.6097564628571428,1.4148531285714283,1.5410367285714286
803,8.030000477,-0.7400380833333333,0.0925358833333333,-0.3197798433333333,0.5655427566666668,1.6440954333333335,1.6500002333333337
804,8.040000477,-0.7965838857142857,0.1191968542857142,-0.4303561285714286,0.3912476814285714,1.9559984,1.8024793571428572
805,8.050000477,-0.8301602133333333,0.1368372533333333,-0.4667752,0.24301541,2.1925854,1.9313972333333336
806,8.060000477,-0.8271519257142856,0.15214302,-0.4455486414285715,0.12068597,2.401786,2.0855634857142857
807,8.070000477,-0.7636377428571429,0.1792395471428571,-0.34886183,-0.0953139871428571,2.8152422285714285,2.451722814285714
808,8.080000477,-0.3466361,0.15488708,-0.08149865,-0.0531946153333333,2.9101272333333337,2.734864933333333
809,8.090000477,-0.2504109645714286,0.1533190485714285,-0.0636099791428571,0.0682621821428571,2.846308214285714,2.7665708714285713
810,8.100000477,-0.079811568,0.16019228,-0.1097218526666666,0.4433733133333333,2.603074666666666,2.6306137333333335
811,8.110000477,-0.1184433171428571,0.1984741285714285,-0.2709086771428571,0.6396007242857144,2.538615714285714,2.501114057142857
812,8.120000477,-0.14235586,0.21199408,-0.32139072,0.6667397916666666,2.5871926000000003,2.498059833333333
813,8.130000477,-0.4342674914285714,0.3689152485714286,-0.63207084,0.4603606857142857,3.0717981714285716,2.8972921428571428
814,8.140000477,-0.3080057571428572,0.3812591942857142,-0.5919117199999999,0.2851347857142857,3.345108771428571,3.316987857142857
815,8.150000477,-0.1716004416666667,0.3833150666666666,-0.5325056666666667,0.2373141633333333,3.4032846333333335,3.461926
816,8.160000477,0.3694902071428571,0.3391792142857142,-0.3924619285714286,0.2605263628571428,3.379141557142858,3.5681552
817,8.170000477,0.780396165,0.32425673,-0.284925165,0.4323780666666666,3.2359123666666663,3.291601333333333
818,8.180000477,0.9476685714285714,0.3833281342857143,-0.2947602157142857,0.7108080714285715,2.9407277142857144,2.632533571428571
819,8.190000477,0.6726307066666667,0.4303808166666666,-0.5751351416666667,0.7766923,2.65092435,2.0594715999999997
820,8.200000477,0.3001220357142857,0.4342544285714286,-0.7704804785714285,0.6012045857142857,2.3707199857142855,1.5546499285714288
821,8.210000477,-0.1687990471428571,0.43132744,-0.72201949,0.1605655651428571,2.667417242857143,1.9047526714285716
822,8.220000477,-0.2060536966666666,0.4040784499999999,-0.5287910083333333,0.0622555176666666,3.0675222499999997,2.47403315
823,8.230000477,-0.1321418608571428,0.3709580628571429,-0.3553517471428571,0.1648196825714285,3.2768682285714283,2.905320442857142
824,8.240000477,0.100798562,0.32605562,-0.17431912,0.4954989333333333,3.4179447999999995,3.4614678666666663
825,8.250000477,0.6644551685714285,0.2585865228571428,-0.13306525,0.91465644,3.3285285,3.728895228571429
826,8.260000477,1.046788726666667,0.2539070933333333,-0.1778152466666666,1.2482662999999998,3.1377697,3.5604759
827,8.270000477,1.4583690142857144,0.3287691714285715,-0.4062170857142857,1.5235839142857144,2.842294171428571,2.982723514285714
828,8.280000477,1.3139587333333334,0.47402154,-1.1270068333333334,1.3563862999999998,2.5806769,2.06069325
829,8.290000477,1.0392940685714287,0.4824758771428571,-1.3822714428571428,0.68857755,2.5635731714285717,1.3485326142857144
830,8.300000477,0.4596391885714285,0.3317746,-1.0833123714285715,-0.6319869428571429,2.8915110428571427,0.8355954285714285
831,8.310000477,0.2000421599999999,0.1764635533333333,-0.5488531666666666,-1.0781963666666667,3.232654566666666,1.0183841866666663
832,8.320000477,0.0809367792857142,0.0567890278571428,-0.1069226121428571,-0.9574812714285714,3.478796857142857,1.4782067571428572
833,8.330000477,0.0606996788333333,-0.0122415685,0.0711931805,-0.40707878,3.6020136,2.2278618333333333
834,8.340000477,0.1360401671428571,-0.0393968985714285,0.0448196891428571,0.2416118842857143,3.533075157142857,3.0165820285714284
835,8.350000477,0.3960466228571428,-0.055077254,-0.0409518665714285,0.7348928714285714,3.382283114285714,3.603584357142857
836,8.360000477,0.93778846,0.0045734426666666,-0.2394042066666666,1.03569155,3.1597601666666666,3.83494995
837,8.370000477,1.5042166714285714,0.1901766042857142,-0.7317064485714286,1.3932116714285716,2.511738557142857,3.521141885714286
838,8.380000477,1.40551895,0.3214059549999999,-1.3079473333333331,0.87931458,2.3748215499999996,2.8718984000000005
839,8.390000477,1.2668421714285714,0.2822856342857143,-1.2571334714285716,-0.0814608485714286,2.6232618000000003,2.3281570857142855
840,8.400000477,1.0224020916666663,0.1112514058333333,-0.6785660166666667,-0.91000971,3.0644680999999996,2.048272666666666
841,8.410000477,0.8546361142857143,0.0121914771428571,-0.1538373757142857,-1.0878534857142856,3.3376040714285713,2.0909737285714285
842,8.420000477,0.6777122999999999,-0.0360285233333333,0.2394143779999999,-0.6937697533333335,3.3580818999999997,2.426183566666667
843,8.430000477,0.6128929214285714,-0.055983229,0.3152884371428571,-0.05229289,3.2831512857142857,2.9757425142857143
844,8.440000477,0.8254314557142858,-0.0681964858571428,0.0578518114285714,0.8029587314285713,3.2510382428571427,3.867121371428571
845,8.450000477,1.14718585,-0.0643787575,-0.17069593,1.2788087499999998,3.2238991,4.421770599999999
846,8.460000477,1.6571045000000002,0.0572115214285714,-0.3539535628571428,1.5462725714285714,3.030260514285714,4.454407142857143
847,8.470000477,2.1674739666666665,0.3389120366666667,-0.7922515133333333,1.76015635,2.65397875,4.0283849
848,8.480000477,2.1843259857142856,0.4725711057142857,-1.1450885571428573,1.3944334,2.2975928714285714,3.1912406857142854
849,8.490000477,2.1334782142857143,0.5118722042857142,-1.2565541428571427,0.7629918714285714,2.1796121285714287,2.500590557142857
850,8.500000477,2.0280248333333333,0.4603622366666666,-1.151896466666667,0.1394767933333333,2.2825835666666667,1.9550167
851,8.510000477,1.928231,0.4007507428571428,-1.0226249571428572,-0.2804879771428571,2.4660122571428573,1.633187442857143
852,8.520000477,1.6541413,0.29522048,-0.6396409666666667,-0.576487095,2.7083440999999997,1.4321314
853,8.530000477,1.370864,0.1857077,-0.2107875614285714,-0.6562462642857143,2.8566054142857142,1.3712212142857143
854,8.540000477,1.2309660666666666,0.08608226,0.0331929946666666,-0.323596311,2.6784124499999997,1.5390297000000002
855,8.550000477,1.2932548571428573,-0.0097174671428571,0.1167751078571428,0.1735242588571428,2.3352907999999997,1.7597200857142856
856,8.560000477,1.4583371333333333,-0.0709187733333333,0.1051179239999999,0.5374437916666667,2.04025525,1.85259795
857,8.570000477,1.7734484571428573,-0.1127766142857142,-0.1742305497142857,1.221301857142857,1.3958296428571428,1.5813527
858,8.580000477,1.800176166666667,-0.1111853506666666,-0.4636754333333333,1.3612731,1.1348523666666666,1.2069323666666667
859,8.590000477,1.7098951285714286,-0.0911725702857142,-0.8018890942857143,1.1610897285714288,1.0185005714285713,0.7767795714285715
860,8.600000477,1.559206842857143,-0.0791858085714285,-0.9550077714285712,0.7094118285714286,1.0753966428571429,0.4666437
861,8.610000477,1.3522638333333334,-0.08159013,-0.9428294,0.2066699899999999,1.217927633333333,0.32283278
862,8.620000477,1.217510057142857,-0.0920436957142857,-0.7747316428571429,-0.1755967635714285,1.316419485714286,0.3135827971428572
863,8.630000477,1.1671615,-0.1280003533333333,-0.3371690833333333,-0.36513394,1.1108257666666663,0.4152743299999999
864,8.640000477,1.1964896285714286,-0.1318326028571428,-0.2211975814285714,-0.33895478,0.8975527885714286,0.4666436714285714
865,8.650000477,1.2735296,-0.1195801446666666,-0.2082438566666666,-0.208349825,0.6638891433333334,0.47554458
866,8.660000477,1.4417870857142856,-0.060939964,-0.4065393942857143,0.2276496871428571,-0.0227322371428571,0.4146343914285714
867,8.670000477,1.4758744571428573,-0.0094125685714285,-0.5689356428571429,0.2615735257142857,-0.2002270028571428,0.3156771371428571
868,8.680000477,1.5000773333333337,0.0502061849999999,-0.6986891333333333,0.0893618633333333,-0.3089869183333333,0.1493521483333333
869,8.690000477,1.5110289142857145,0.1119185528571428,-0.6960162285714285,-0.1035167934285714,-0.3925566285714286,0.0048431428571428
870,8.700000477,1.5036242666666666,0.1174865366666666,-0.6209610416666667,-0.33133373,-0.54843903,-0.18722468
871,8.710000477,1.5468367285714284,0.0726305457142857,-0.4643432914285714,-0.4075441928571428,-0.7082774285714286,-0.2927267285714285
872,8.720000477,1.7634057,0.0453989913333333,-0.2839901466666666,-0.329704805,-0.8829797500000001,-0.344212425
873,8.730000477,2.006205885714286,0.047838157,-0.2784526571428571,-0.0277717314285714,-1.1861345285714286,-0.4543394585714285
874,8.740000477,2.145308,0.0855668415714285,-0.4888917571428571,0.2377504857142857,-1.4693931142857142,-0.6423058857142857
875,8.750000477,2.2145195,0.169674545,-0.8607513999999999,0.3011986033333333,-1.8428244000000005,-1.0149227066666666
876,8.760000477,2.1631881428571424,0.2176825642857142,-1.1456504285714286,-0.2305730257142857,-2.3802537285714283,-1.7666139285714286
877,8.770000477,2.07823095,0.187221285,-1.0822125,-0.652843,-2.4986707,-2.08581435
878,8.780000477,1.9332966714285715,0.0691416617142857,-0.6928061428571429,-1.1939664428571428,-2.5409936714285712,-2.4680192285714284
879,8.790000477,1.93113915,-0.035002043,-0.3333477,-1.2891423,-2.6348895666666667,-2.7209682
880,8.800000477,1.9066662142857145,-0.0808496657142857,-0.1380786107142857,-1.0936130142857143,-2.834374885714286,-2.9036405714285713
881,8.810000477,1.8119655666666663,-0.0907776546666666,-0.1212773983333333,-0.7072084333333333,-3.1182734,-2.9131814666666664
882,8.820000477,1.8093215714285713,-0.0273709351428571,-0.3370492757142856,-0.2246390748571428,-3.4910357142857142,-2.6727404
883,8.830000477,1.872918442857143,0.0304634505714285,-0.5365034142857142,0.0760723024285714,-3.7965248285714286,-2.4695900285714285
884,8.840000477,1.95685195,0.061253575,-0.64561185,0.1113269166666666,-3.995602833333333,-2.4813124666666666
885,8.850000477,2.1419236857142856,0.1495906099999999,-0.8998391142857143,-0.03073871,-4.686267428571428,-2.8305135714285714
886,8.860000477,2.1262266166666666,0.1399624378333333,-0.96666715,-0.2482585149999999,-4.813323666666666,-3.1127249999999997
887,8.870000477,1.9854774142857143,-0.0263473537142857,-0.8451625714285714,-0.8593966114285714,-4.533206642857143,-3.6738317142857144
888,8.880000477,1.8187952333333337,-0.0699431026666666,-0.7193610933333333,-1.0207766666666669,-4.3462293333333335,-3.8261945
889,8.890000477,1.3259701857142858,-0.0718683022857143,-0.4358224685714286,-1.0531225142857144,-3.950109285714286,-3.7881475142857144
890,8.900000477,1.179114885714286,-0.0428204428571428,-0.3875661585714285,-0.8243165642857143,-3.872444414285714,-3.4603843285714286
891,8.910000477,1.237186,0.0331066035,-0.4448938333333332,-0.3297048083333333,-4.3101895500000005,-2.9123670166666664
892,8.920000477,1.4664313714285715,0.0645595135714285,-0.5812708328571429,-0.1223657948571428,-4.668116742857143,-2.822310714285714
893,8.930000477,1.6757990000000005,0.077778927,-0.74798573,-0.029167956,-4.9489317,-2.8830464
894,8.940000477,1.727539857142857,0.0712280237142857,-0.9432649857142856,-0.3684499811428571,-5.287515642857143,-3.4446768
895,8.950000477,1.6650514,0.027272934,-1.053781,-0.93261105,-5.350258350000001,-4.0057835
896,8.960000477,1.365436814285714,-0.0523723962857142,-0.8080872714285714,-1.564139857142857,-5.177912157142857,-4.431107742857143
897,8.970000477,1.0559413857142856,-0.1158996157142857,-0.4965228857142857,-2.0690487285714285,-4.935667714285714,-4.632687371428572
898,8.980000477,0.6436452500000001,-0.1696745266666667,-0.0279386199999999,-2.250819416666667,-4.734931666666666,-4.578350833333333
899,8.990000477,0.3598903285714286,-0.1173152028571428,0.3809237594285714,-2.0514214571428573,-4.697786571428572,-4.257452428571429
900,9.000000477,0.2500755666666667,-0.0618125466666666,0.7155600066666666,-1.3571499333333332,-4.756311333333334,-3.6278726
901,9.010000477,0.42208908,0.0021560514285714,0.8301921685714285,-0.5119118342857143,-4.902158285714285,-3.1109796285714286
902,9.020000477,0.74339268,0.0874963914285714,0.5902565785714285,0.2887125871428572,-5.149289714285715,-2.9073057714285713
903,9.030000477,0.9914095,0.1610764666666666,0.1386361366666666,0.82963237,-5.392814166666668,-2.9225478333333332
904,9.040000477,0.9971009,0.17687008,-0.09662149,0.90191597,-5.535345,-3.040645
905,9.050000477,0.9971009,0.17687008,-0.09662149,0.90191597,-5.535345,-3.040645
906,9.060000477,0.6721021816666667,-0.0657202976666666,-0.7007725933333333,-1.6039322619666667,-5.146439133333334,-4.0057835
907,9.070000477,0.3419711557142856,-0.2747503728571429,0.03029794,-2.864371857142858,-4.303004357142857,-4.198112971428571
908,9.080000477,0.1377214466666666,-0.37354824,0.50210245,-3.1571132,-3.756150566666667,-4.2370909999999995
909,9.090000477,-0.1989837314285714,-0.3984248114285714,1.0262750285714286,-2.954602785714286,-3.331648128571428,-4.187292428571429
910,9.100000477,-0.3864046333333333,-0.4227584,1.2283745333333334,-2.1337403666666668,-2.9794075,-3.9870508
911,9.110000477,-0.3764723,-0.5032697928571429,1.0746533,-1.394149771428571,-2.8884785714285712,-3.9544722857142856
912,9.120000477,-0.2468436757142857,-0.6036632928571429,0.77739726,-1.1529523714285712,-2.967365142857143,-4.148198342857143
913,9.130000477,-0.2273710033333333,-0.6694801166666666,0.5974332333333333,-1.11545795,-3.0242030666666664,-4.463308333333333
914,9.140000477,-0.6613844485714286,-0.7388671285714287,0.4091440828571429,-1.2930981428571429,-2.901219114285714,-4.662880842857143
915,9.150000477,-1.4127043833333337,-0.7741101733333333,0.3467275433333333,-1.6849712,-2.4500066,-4.639028433333333
916,9.160000477,-2.017752828571429,-0.6702655685714286,0.5080479442857143,-1.7313374285714285,-1.9922783714285712,-4.1267311428571425
917,9.170000477,-2.4606416,-0.5045924333333334,0.7141778433333333,-1.2040308333333334,-0.7015580666666666,-2.5267188333333332
918,9.180000477,-2.3238636857142856,-0.4458012714285714,0.7462674285714286,-0.4927137571428571,0.0170600999999999,-1.4149841142857142
919,9.190000477,-1.9160655285714283,-0.3876881199999999,0.5057089685714286,0.2628824828571429,0.3092196171428571,-0.5255468385714286
920,9.200000477,-1.0660835666666666,-0.2321985083333333,-0.24040527,1.1947154,0.267856525,0.45620111
921,9.210000477,-0.7964707142857144,-0.09653438,-0.6583441499999999,1.1588208857142857,0.1620926785714285,0.5327896928571428
922,9.220000477,-0.7009047333333333,0.0109051093333333,-0.9057337233333334,0.9882490666666666,0.12451103,0.5211545233333333
923,9.230000477,-0.7735773428571429,0.1951943354285714,-1.0437716857142856,0.2639078330714285,0.18844638,0.4717049785714286
924,9.240000477,-0.8587187666666667,0.30018014,-0.9968264666666666,-0.1733279157999999,0.27477946,0.4959061466666667
925,9.250000477,-0.9714416714285716,0.3972618714285714,-0.7874501771428571,-0.5838172857142857,0.4558229571428571,0.6539119571428572
926,9.260000477,-0.9601518142857144,0.4805245314285714,-0.2199518514285714,-0.6623547928571428,0.6687468428571428,1.054453242857143
927,9.270000477,-0.8792586,0.481796385,-0.0891972767,-0.4335488549999999,0.64230588,1.25742905
928,9.280000477,-0.6758016428571428,0.4533931714285714,-0.0617326952571428,0.0090536271428571,0.5265067028571428,1.446442657142857
929,9.290000477,-0.5420692333333333,0.4038345333333333,-0.20910264,0.1461452056666666,0.6058586633333333,1.4451628333333335
930,9.300000477,-0.4892228,0.3660405071428571,-0.2616703199999999,0.0938741342857142,0.7457136285714286,1.3871032428571428
931,9.310000477,-0.4452190666666666,0.3096318766666666,-0.2277571866666666,-0.09228884,1.007389,1.2138553666666667
932,9.320000477,-0.4134300142857143,0.2365948171428571,-0.1347421885714285,-0.2117240171428571,1.1677218285714286,1.0757456714285714
933,9.330000477,-0.4008160571428571,0.1777281414285714,-0.0529124971428571,-0.24383714,1.2434668857142857,0.9364724885714286
934,9.340000477,-0.55993104,0.100961174,0.0065247713333333,-0.207535365,1.31668125,0.752258415
935,9.350000477,-0.8334719171428572,0.0435696137142857,0.0841381795714285,-0.0714036814285714,1.3638910285714287,0.7036524285714286
936,9.360000477,-0.9193320733333332,0.0480007666666666,0.1184520266666666,0.0405195353333333,1.3588297333333337,0.80784552
937,9.370000477,-1.0483669,0.0623773342857142,0.1283655071428571,0.4249315357142857,1.3305561714285716,1.2801177371428571
938,9.380000477,-0.9874864733333334,0.0458868246666666,0.0344938846666666,0.5740946166666667,1.4036251333333334,1.5644816
939,9.390000477,-0.8667187099999999,0.0355508562857142,-0.0809193594285714,0.6495488142857143,1.6099751999999998,1.8794460714285717
940,9.400000477,-0.762609837142857,0.0363174499999999,-0.1684897914285714,0.5991102428571429,1.911668285714286,2.1297190571428573
941,9.410000477,-0.6710452533333333,0.029696856,-0.2140267066666666,0.4266768,2.3554778666666665,2.360212
942,9.420000477,-0.5554592485714286,0.0250624395714285,-0.1584935657142857,0.3191677,2.6724785285714283,2.4909914285714287
943,9.430000477,-0.3749304149999999,0.0101835214999999,-0.0102445025,0.38086327,3.0834042,2.6330571
944,9.440000477,-0.25120367,-0.0013154077142857,0.0782798278571428,0.5797376857142857,3.3264341,2.724858714285714
945,9.450000477,-0.2352677833333333,0.013760966,-0.061009656,0.95078375,3.3503445500000004,2.813257
946,9.460000477,-0.2339204399999999,0.0254805814285714,-0.2985975682857143,1.1481747,3.2861182857142857,2.9348157142857145
947,9.470000477,-0.2466041085714285,0.0512137908571428,-0.4985743871428571,1.0680664285714283,3.3341133571428574,3.0767067571428575
948,9.480000477,-0.1938527749999999,0.0694857649999999,-0.65610535,0.84327465,3.3918821,3.20610825
949,9.490000477,0.0309469228571428,0.1183910528571428,-0.6475813371428573,0.5476245914285715,3.4116037857142856,3.3145664285714287
950,9.500000477,0.4216302966666667,0.21566299,-0.4340700466666667,0.1907879599999999,3.3434215666666667,3.3576747
951,9.510000477,0.8395437585714286,0.2676941985714285,-0.3290305214285714,0.2742704085714286,3.3398728857142856,3.0654060142857142
952,9.520000477,0.9957898,0.2833600333333333,-0.3855001333333334,0.358872755,3.36805915,2.7491181
953,9.530000477,0.9985904714285716,0.2997605171428571,-0.6378682142857144,0.3288976157142857,3.4395282714285713,2.3581759285714283
954,9.540000477,0.4261122533333333,0.3038490333333333,-0.9014956533333334,-0.13240114,3.67165015,1.74610695
955,9.550000477,-0.0455470842857142,0.2983667028571428,-0.8334109785714287,-0.6723028600000001,3.874451399999999,1.7628615428571428
956,9.560000477,-0.3252585271428571,0.28015572,-0.47751914,-0.9649859457142858,3.909531428571429,2.4335718428571433
957,9.570000477,-0.142635355,0.2462542016666666,-0.0970280175,-0.81227412,3.786489333333334,3.0420193333333336
958,9.580000477,0.38608522,0.1970498157142857,0.079743325,-0.2712380028571428,3.563442857142857,3.797659285714286
959,9.590000477,0.9272288333333332,0.1553037699999999,0.0447587073333333,0.121176815,3.46335125,3.9624135
960,9.600000477,1.3772144714285712,0.1487891671428571,-0.1481488959999999,0.8914443,3.340920142857143,3.748442428571429
961,9.610000477,1.659190857142857,0.2555724085714285,-0.5539347685714285,1.2073396285714286,3.2669202857142854,3.183212314285714
962,9.620000477,1.6314569333333333,0.3779488833333333,-0.9693451666666668,1.14544045,3.1923386666666667,2.8142750999999997
963,9.630000477,1.2053054857142858,0.5005387857142857,-1.4308413285714283,0.6329686685714285,2.9895955142857145,2.3621900428571427
964,9.640000477,0.8947574666666668,0.5359357433333333,-1.4227863,0.1629689499999999,2.824812233333333,2.2972948333333334
965,9.650000477,0.8077867028571429,0.5304534128571429,-1.0464635,-0.4880015285714286,2.4747385428571427,2.688382285714286
966,9.660000477,1.0063798216666666,0.4840374166666666,-0.6558157166666666,-0.51743854,2.2878775333333334,3.0040449333333332
967,9.670000477,1.2034674428571428,0.4296287085714286,-0.5130787142857143,-0.3208038885714286,2.1860695714285714,3.203413842857143
968,9.680000477,1.2531349571428572,0.3994788785714286,-0.4980647857142857,-0.0705310412142857,2.2038715142857144,3.208475214285715
969,9.690000477,1.1656473,0.3886100766666667,-0.5809790066666666,0.0518711154333333,2.3009090000000003,3.1701954333333333
970,9.700000477,1.2789727,0.3613974085714285,-0.5988415542857143,0.0177800197142857,2.4883518,3.1006170285714285
971,9.710000477,1.4307745333333333,0.3546142066666666,-0.5630105099999999,-0.0234667156666666,2.590450533333333,3.006895633333333
972,9.720000477,1.4513477857142856,0.4198938457142857,-0.5428975457142857,-0.0028142601428571,2.4752622571428575,2.715259714285714
973,9.730000477,1.3824587,0.47679612,-0.5739969,-0.0316113459999999,2.3452972333333335,2.4257762666666665
974,9.740000477,0.9551472,0.4701406742857142,-0.5834486571428571,-0.1378987685714285,2.4068471857142852,2.4330482142857144
975,9.750000477,0.8769632571428572,0.4909084371428571,-0.4323117999999999,-0.0452245123571428,2.435295357142857,2.7206701285714283
976,9.760000477,0.8902043699999999,0.46850294,-0.44243434,0.17485502,2.2948005,3.0618718
977,9.770000477,0.8849776242857142,0.4691301457142857,-0.4750756257142857,0.2577120885714285,2.2602438428571427,3.293426542857143
978,9.780000477,1.0302125666666668,0.4506766933333333,-0.4701087266666666,0.2831277,2.28808105,3.4774007499999997
979,9.790000477,1.5392230999999998,0.4257173428571428,-0.3662278057142857,0.3806014742857143,2.3984699857142857,3.594159871428571
980,9.800000477,1.9064745,0.4686815428571428,-0.3732055514285713,0.6003319514285714,2.4115594857142857,3.0830334
981,9.810000477,2.0689469,0.507926,-0.452694085,0.6649072450000001,2.3784864999999997,2.73323605
982,9.820000477,2.064001,0.5081829742857142,-0.5145683571428571,0.6453601428571429,2.363913485714286,2.4457887428571428
983,9.830000477,1.8417436333333337,0.48281273,-0.5966710000000001,0.4891868283333333,2.3424464166666668,1.5707936833333331
984,9.840000477,1.514587542857143,0.4083165142857142,-0.4855422857142857,0.3324318071428571,2.0751571285714285,1.0776654428571428
985,9.850000477,1.3898329,0.3061241328571428,-0.3940909342857143,0.3257997528571428,1.7981161714285714,0.9317602428571428
986,9.860000477,1.3640531666666666,0.1895435766666666,-0.35646388,0.3949127566666666,1.633711,0.8933641133333333
987,9.870000477,1.3214621,0.0620506571428571,-0.3839204914285714,0.4874124628571428,1.6593665428571427,0.8909207328571428
988,9.880000477,1.26554635,-0.014101434,-0.436717555,0.5183038999999999,1.7497719500000002,0.906191915
989,9.890000477,1.205401328571429,-0.1014432001428571,-0.4881469514285714,0.5017237571428571,1.8553612714285712,1.0420618428571429
990,9.900000477,1.308355957142857,-0.0881061857142857,-0.4474607785714286,0.5296482085714286,1.7028240142857145,1.100354128571429
991,9.910000477,1.3648763666666666,-0.059546158,-0.4336533466666666,0.5675789166666666,1.527627216666667,1.0957582166666668
992,9.920000477,1.409720742857143,0.0232809762857142,-0.5377186514285714,0.6326195714285714,0.8725952857142857,0.9057556028571428
993,9.930000477,1.4275121333333332,0.1209725033333333,-0.7671077666666667,0.5519005,0.109647077,0.62520215
994,9.940000477,1.396849785714286,0.1442244371428571,-0.8316948428571429,0.2623589028571428,-0.1611327854285714,0.4395918514285714
995,9.950000477,1.3768232166666667,0.146959805,-0.6729508750000001,-0.1264962866666666,-0.2220429816666666,0.3218147033333333
996,9.960000477,1.3971895142857145,0.1478831928571428,-0.4549917142857143,-0.2220211571428571,-0.2794626057142856,0.2914177757142857
997,9.970000477,1.5506393142857144,0.1378477657142857,-0.2407936671428571,-0.0049085928571428,-0.4506743571428571,0.2767574428571429
998,9.980000477,1.815065266666667,0.1522243333333333,-0.1988835566666666,0.3297048033333333,-0.7050195533333333,0.1460943
999,9.990000477,1.9964709571428572,0.2327836228571428,-0.3121262328571428,0.5999828857142857,-0.9964228142857144,-0.10004805
