id,timestamp,acc_x,acc_y,acc_z,gyro_x,gyro_y,gyro_z
1,0.01,-0.2401618405399573,0.7574570992768037,0.5886946784680414,-0.00061086525,-0.00061086525,-0.00061086525
2,0.02,-0.25284332,0.73583263,0.6889736,-0.00061086525,-0.00061086525,-0.00061086525
3,0.03,-0.25284332,0.73583263,0.6889736,-0.2951986513038364,0.2446610340071124,-0.1158681093811864
4,0.04,-0.25284332,0.73583263,0.6889736,-0.9639453,0.8014552,-0.37751472
5,0.05,-0.25284332,0.73583263,0.6889736,-0.9639453,0.8014552,-0.37751472
6,0.06,-0.25284332,0.73583263,0.6889736,-0.9639453,0.8014552,-0.37751472
7,0.07,-0.25284332,0.73583263,0.6889736,-0.9639453,0.8014552,-0.37751472
8,0.08,-0.25284332,0.73583263,0.6889736,-0.9639453,0.8014552,-0.37751472
9,0.09,-0.25284332,0.73583263,0.6889736,-0.9639453,0.8014552,-0.37751472
10,0.1,-0.25284332,0.73583263,0.6889736,-0.9639453,0.8014552,-0.37751472
11,0.11,-0.25284332,0.73583263,0.6889736,-0.9639453,0.8014552,-0.37751472
12,0.12,-0.25284332,0.73583263,0.6889736,-0.9639453,0.8014552,-0.37751472
13,0.13,-0.25284332,0.73583263,0.6889736,-0.9639453,0.8014552,-0.37751472
14,0.14,-0.2462153254883664,0.7532746926846019,0.6107633385168172,-0.9639453,0.8014552,-0.37751472
15,0.15,-0.22965786,0.7968469,0.41538543,-0.9639453,0.8014552,-0.37751472
16,0.16,-0.22965786,0.7968469,0.41538543,-0.9639453,0.8014552,-0.37751472
17,0.17,-0.22965786,0.7968469,0.41538543,-0.9639453,0.8014552,-0.37751472
18,0.18,-0.22965786,0.7968469,0.41538543,-0.9639453,0.8014552,-0.37751472
19,0.19,-0.22965786,0.7968469,0.41538543,-0.9639453,0.8014552,-0.37751472
20,0.2,-0.2226610023763517,0.8010539658796343,0.4188614805482109,-0.9639453,0.8014552,-0.37751472
21,0.21,-0.1315723317006489,0.8558237009569611,0.464114484206299,-0.9639453,0.8014552,-0.37751472
22,0.22,-0.11519502,0.86567104,0.47225076,-0.9639453,0.8014552,-0.37751472
23,0.23,-0.11519502,0.86567104,0.47225076,-0.9639453,0.8014552,-0.37751472
24,0.24,-0.11519502,0.86567104,0.47225076,-0.9639453,0.8014552,-0.37751472
25,0.25,-0.11519502,0.86567104,0.47225076,-0.9639453,0.8014552,-0.37751472
26,0.26,-0.11519502,0.86567104,0.47225076,-0.9639453,0.8014552,-0.37751472
27,0.27,-0.11519502,0.86567104,0.47225076,-0.9639453,0.8014552,-0.37751472
28,0.28,-0.11519502,0.86567104,0.47225076,-0.9639453,0.8014552,-0.37751472
29,0.29,-0.11519502,0.86567104,0.47225076,-0.9639453,0.8014552,-0.37751472
30,0.3,-0.11519502,0.86567104,0.47225076,-0.9639453,0.8014552,-0.37751472
31,0.31,-0.11519502,0.86567104,0.47225076,-0.9639453,0.8014552,-0.37751472
32,0.32,-0.11519502,0.86567104,0.47225076,-0.9639453,0.8014552,-0.37751472
33,0.33,-0.1847187820796129,0.8238678387628651,0.4377112389336113,-0.9639453,0.8014552,-0.37751472
34,0.34,-0.1136090381354917,0.8072427345774381,0.4923370047637715,-0.9639453,0.8014552,-0.37751472
35,0.35,0.020988923,0.81930023,0.58158845,-0.9639453,0.8014552,-0.37751472
36,0.36,-0.0023856269452744,0.8272163201844522,0.5816563972525625,-0.9639453,0.8014552,-0.37751472
37,0.37,-0.1375676737235524,0.8729974486391646,0.5820493566334216,-0.9639453,0.8014552,-0.37751472
38,0.38,-0.14692247,0.87616557,0.58207655,-0.9639453,0.8014552,-0.37751472
39,0.39,-0.14692247,0.87616557,0.58207655,-0.9639453,0.8014552,-0.37751472
40,0.4,-0.14692247,0.87616557,0.58207655,-0.9639453,0.8014552,-0.37751472
41,0.41,-0.14692247,0.87616557,0.58207655,-0.9639453,0.8014552,-0.37751472
42,0.42,-0.14692247,0.87616557,0.58207655,-0.9639453,0.8014552,-0.37751472
43,0.43,-0.14692247,0.87616557,0.58207655,-0.9639453,0.8014552,-0.37751472
44,0.44,-0.14692247,0.87616557,0.58207655,-0.9593232587882394,0.7885443446110884,-0.3719888444633121
45,0.45,-0.14692247,0.87616557,0.58207655,-0.6534307136189045,-0.0659124276865151,-0.0062793981897689
46,0.46,-0.14692247,0.87616557,0.58207655,-0.4423423626132896,0.1832243162489729,0.4728909145741337
47,0.47,-0.14692247,0.87616557,0.58207655,-0.3726278,0.41416663,0.6713409
48,0.48,-0.14692247,0.87616557,0.58207655,-0.3726278,0.41416663,0.6713409
49,0.49,-0.14692247,0.87616557,0.58207655,-0.3726278,0.41416663,0.6713409
50,0.5,-0.14692247,0.87616557,0.58207655,-0.3726278,0.41416663,0.6713409
51,0.51,-0.14692247,0.87616557,0.58207655,-0.3726278,0.41416663,0.6713409
52,0.52,-0.14692247,0.87616557,0.58207655,-0.3726278,0.41416663,0.6713409
53,0.53,-0.14692247,0.87616557,0.58207655,-0.3726278,0.41416663,0.6713409
54,0.54,-0.14692247,0.87616557,0.58207655,-0.3726278,0.41416663,0.6713409
55,0.55,-0.14692247,0.87616557,0.58207655,-0.3726278,0.41416663,0.6713409
56,0.56,-0.14692247,0.87616557,0.58207655,-0.3726278,0.41416663,0.6713409
57,0.57,-0.14692247,0.87616557,0.58207655,-0.3718782965103104,0.3107352777436229,0.6696919987028354
58,0.58,-0.14692247,0.87616557,0.58207655,-0.36957347,-0.007330383,0.6646214
59,0.59,-0.14692247,0.87616557,0.58207655,-0.36957347,-0.007330383,0.6646214
60,0.6,-0.14692247,0.87616557,0.58207655,-0.36957347,-0.007330383,0.6646214
61,0.61,-0.14692247,0.87616557,0.58207655,-0.5992792233281486,0.0025141486715599,0.119234322726134
62,0.62,-0.14692247,0.87616557,0.58207655,-0.79717916,0.010995574,-0.35063666
63,0.63,-0.14692247,0.87616557,0.58207655,-0.7103703383850724,0.1685443281522508,-0.0767271460661539
64,0.64,-0.14692247,0.87616557,0.58207655,-0.51007247,0.5320636,0.5552765
65,0.65,-0.14692247,0.87616557,0.58207655,-0.51007247,0.5320636,0.5552765
66,0.66,-0.14692247,0.87616557,0.58207655,-0.51007247,0.5320636,0.5552765
67,0.67,-0.14692247,0.87616557,0.58207655,-0.7587133071388135,0.0940579769244921,-0.0561809495671223
68,0.68,-0.14692247,0.87616557,0.58207655,-0.8918633,-0.14049901,-0.38362336
69,0.69,-0.14692247,0.87616557,0.58207655,-0.8918633,-0.14049901,-0.38362336
70,0.7,-0.14692247,0.87616557,0.58207655,-0.8918633,-0.14049901,-0.38362336
71,0.71,-0.14692247,0.87616557,0.58207655,-0.8918633,-0.14049901,-0.38362336
72,0.72,-0.14692247,0.87616557,0.58207655,-0.8918633,-0.14049901,-0.38362336
73,0.73,-0.14692247,0.87616557,0.58207655,-0.8918633,-0.14049901,-0.38362336
74,0.74,-0.14692247,0.87616557,0.58207655,-0.8918633,-0.14049901,-0.38362336
75,0.75,-0.14692247,0.87616557,0.58207655,-0.8918633,-0.14049901,-0.38362336
76,0.76,-0.14692247,0.87616557,0.58207655,-0.8918633,-0.14049901,-0.38362336
77,0.77,-0.14692247,0.87616557,0.58207655,-0.8918633,-0.14049901,-0.38362336
78,0.78,-0.14692247,0.87616557,0.58207655,-0.8918633,-0.14049901,-0.38362336
79,0.79,-0.14692247,0.87616557,0.58207655,-0.8918633,-0.14049901,-0.38362336
80,0.8,-0.14692247,0.87616557,0.58207655,-0.8918633,-0.14049901,-0.38362336
81,0.81,-0.14692247,0.87616557,0.58207655,-0.8918633,-0.14049901,-0.38362336
82,0.82,-0.14692247,0.87616557,0.58207655,-0.8918633,-0.14049901,-0.38362336
83,0.83,-0.14692247,0.87616557,0.58207655,-0.6191373356926688,-0.1493095358646244,-0.0536289965847893
84,0.84,-0.14692247,0.87616557,0.58207655,-0.5120944510990524,-0.1678479301363307,0.3083218550924165
85,0.85,-0.14692247,0.87616557,0.58207655,-0.54428095,-0.18020524,0.47586402
86,0.86,-0.14692247,0.87616557,0.58207655,-0.54428095,-0.18020524,0.47586402
87,0.87,-0.14692247,0.87616557,0.58207655,-0.54428095,-0.18020524,0.47586402
88,0.88,-0.14692247,0.87616557,0.58207655,-0.54428095,-0.18020524,0.47586402
89,0.89,-0.14692247,0.87616557,0.58207655,-0.54428095,-0.18020524,0.47586402
90,0.9,-0.14692247,0.87616557,0.58207655,-0.54428095,-0.18020524,0.47586402
91,0.91,-0.14692247,0.87616557,0.58207655,-0.54428095,-0.18020524,0.47586402
92,0.92,-0.14692247,0.87616557,0.58207655,-0.4790318157242314,0.0457285687030133,0.5501690775589688
93,0.93,-0.14692247,0.87616557,0.58207655,-0.3726278,0.41416663,0.6713409
94,0.94,-0.1307960639701228,0.7859577033306215,0.623430145943172,-0.337958798722358,0.3610992782913536,0.5922405076333521
95,0.95,0.0047324914337453,0.0278382666058386,0.9709715081381842,-0.0465956982430211,-0.0848861137952071,-0.0725301727941098
96,0.96,0.010494461,-0.0043930304,0.98574716,-0.034208454,-0.103847094,-0.100792766
97,0.97,0.010494461,-0.0043930304,0.98574716,-0.034208454,-0.103847094,-0.100792766
98,0.98,-0.0589338022247148,0.5555414085271607,0.6773775058094098,-0.393044791365535,-0.1489837379401427,0.0981846161241249
99,0.99,-0.1495101434013918,0.8665605057493175,0.5512376817534426,-0.6169739,-0.17715092,0.22235495
100,1.0,-0.21306199,0.81490713,0.64040625,-0.6169739,-0.17715092,0.22235495
101,1.01,-0.21306199,0.81490713,0.64040625,-0.6169739,-0.17715092,0.22235495
102,1.02,-0.21306199,0.81490713,0.64040625,-0.6169739,-0.17715092,0.22235495
103,1.03,-0.21306199,0.81490713,0.64040625,-0.6169739,-0.17715092,0.22235495
104,1.04,-0.21306199,0.81490713,0.64040625,-0.6169739,-0.17715092,0.22235495
105,1.05,-0.21306199,0.81490713,0.64040625,-0.6169739,-0.17715092,0.22235495
106,1.06,-0.21306199,0.81490713,0.64040625,-0.6169739,-0.17715092,0.22235495
107,1.07,-0.21306199,0.81490713,0.64040625,-0.6169739,-0.17715092,0.22235495
108,1.08,-0.21306199,0.81490713,0.64040625,-0.6169739,-0.17715092,0.22235495
109,1.09,-0.2011332003843598,0.7680867311090773,0.6016377647015994,-0.6169739,-0.17715092,0.22235495
110,1.1,-0.19353738,0.7382732,0.5769514,-0.6169739,-0.17715092,0.22235495
111,1.11,-0.19353738,0.7382732,0.5769514,-0.6169739,-0.17715092,0.22235495
112,1.12,-0.19353738,0.7382732,0.5769514,-0.6169739,-0.17715092,0.22235495
113,1.13,-0.19353738,0.7382732,0.5769514,-0.6169739,-0.17715092,0.22235495
114,1.14,-0.19353738,0.7382732,0.5769514,-0.6169739,-0.17715092,0.22235495
115,1.15,-0.1739069457016798,0.7515828369493703,0.6185247387409268,-0.4069317177651988,-0.0449259595835494,0.2933551214295503
116,1.16,-0.10030753,0.801484,0.7743936,0.2810682688917969,0.3839703158993034,0.5207892223228702
117,1.17,-0.10030753,0.801484,0.7743936,-0.525279317613926,-0.1577632160667265,0.2066538104134108
118,1.18,-0.10030753,0.801484,0.7743936,-0.6041457,-0.21074851,0.17592919
119,1.19,-0.1370333353757387,0.7775032148789405,0.6695825031275202,-0.6041457,-0.21074851,0.17592919
120,1.2,-0.0833945527359995,0.787308478065646,0.5555900845502779,-0.6041457,-0.21074851,0.17592919
121,1.21,-0.01952458,0.8061211,0.49543622,-0.6041457,-0.21074851,0.17592919
122,1.22,-0.049303283758072,0.801900036314448,0.5348134925557942,-0.5992249559518469,-0.1993150074175378,0.1805604807457703
123,1.23,-0.14521407,0.7883049,0.6616392,-0.5833763,-0.16249016,0.19547687
124,1.24,-0.14521407,0.7883049,0.6616392,-0.5833763,-0.16249016,0.19547687
125,1.25,-0.14521407,0.7883049,0.6616392,-0.5833763,-0.16249016,0.19547687
126,1.26,-0.14521407,0.7883049,0.6616392,-0.5833763,-0.16249016,0.19547687
127,1.27,-0.14521407,0.7883049,0.6616392,-0.5833763,-0.16249016,0.19547687
128,1.28,-0.1750257796060418,0.7432900556956985,0.6543349125461089,-0.5833763,-0.16249016,0.19547687
129,1.29,-0.2108554940888181,0.6885752258015929,0.6588819277014558,-0.5833763,-0.16249016,0.19547687
130,1.3,-0.1244692,0.8163715,0.737541,-0.5833763,-0.16249016,0.19547687
131,1.31,-0.1244692,0.8163715,0.737541,-0.5833763,-0.16249016,0.19547687
132,1.32,-0.2038256907319209,0.6989748231779458,0.6652829177696975,-0.5833763,-0.16249016,0.19547687
133,1.33,-0.23087814,0.65895456,0.6406503,-0.5833763,-0.16249016,0.19547687
134,1.34,-0.23087814,0.65895456,0.6406503,-0.5833763,-0.16249016,0.19547687
135,1.35,-0.23087814,0.65895456,0.6406503,-0.5833763,-0.16249016,0.19547687
136,1.36,-0.23087814,0.65895456,0.6406503,-0.5833763,-0.16249016,0.19547687
137,1.37,-0.23087814,0.65895456,0.6406503,-0.5833763,-0.16249016,0.19547687
138,1.38,-0.23087814,0.65895456,0.6406503,-0.5833763,-0.16249016,0.19547687
139,1.39,-0.23087814,0.65895456,0.6406503,-0.5833763,-0.16249016,0.19547687
140,1.4,-0.23087814,0.65895456,0.6406503,-0.5833763,-0.16249016,0.19547687
141,1.41,-0.23087814,0.65895456,0.6406503,-0.5833763,-0.16249016,0.19547687
142,1.42,-0.23087814,0.65895456,0.6406503,-0.5833763,-0.16249016,0.19547687
143,1.43,-0.23087814,0.65895456,0.6406503,-0.5833763,-0.16249016,0.19547687
144,1.44,-0.23087814,0.65895456,0.6406503,-0.5833763,-0.16249016,0.19547687
145,1.45,-0.23087814,0.65895456,0.6406503,-0.5833763,-0.16249016,0.19547687
146,1.46,-0.23087814,0.65895456,0.6406503,-0.5833763,-0.16249016,0.19547687
147,1.47,-0.23087814,0.65895456,0.6406503,-0.5833763,-0.16249016,0.19547687
148,1.48,-0.23087814,0.65895456,0.6406503,-0.5833763,-0.16249016,0.19547687
149,1.49,-0.23087814,0.65895456,0.6406503,-0.5833763,-0.16249016,0.19547687
150,1.5,-0.23087814,0.65895456,0.6406503,-0.5833763,-0.16249016,0.19547687
151,1.51,-0.23087814,0.65895456,0.6406503,-0.5833763,-0.16249016,0.19547687
152,1.52,-0.23087814,0.65895456,0.6406503,-0.5833763,-0.16249016,0.19547687
153,1.53,-0.23087814,0.65895456,0.6406503,-0.5833763,-0.16249016,0.19547687
154,1.54,-0.23087814,0.65895456,0.6406503,-0.4360272677254746,-0.1536035838622096,0.1405962615453455
155,1.55,-0.23087814,0.65895456,0.6406503,0.1617259689641234,-0.1175532646476525,-0.082038803163768
156,1.56,-0.23087814,0.65895456,0.6406503,0.16615535,-0.11728613,-0.08368854
157,1.57,-0.2077648491365409,0.6997258507153555,0.6143786527309364,0.16615535,-0.11728613,-0.08368854
158,1.58,-0.19158493,0.72826684,0.5959878,0.16615535,-0.11728613,-0.08368854
159,1.59,-0.19158493,0.72826684,0.5959878,0.16615535,-0.11728613,-0.08368854
160,1.6,-0.19158493,0.72826684,0.5959878,0.16615535,-0.11728613,-0.08368854
161,1.61,-0.19158493,0.72826684,0.5959878,0.16615535,-0.11728613,-0.08368854
162,1.62,-0.19158493,0.72826684,0.5959878,0.16615535,-0.11728613,-0.08368854
163,1.63,-0.19158493,0.72826684,0.5959878,0.1373919931273803,-0.1011366040160413,-0.0688768447828964
164,1.64,-0.19158493,0.72826684,0.5959878,-0.017715093,-0.014049901,0.010995574
165,1.65,-0.19158493,0.72826684,0.5959878,-0.017715093,-0.014049901,0.010995574
166,1.66,-0.1859886173157078,0.7932562814417848,0.5577162456285949,-0.017715093,-0.014049901,0.010995574
167,1.67,-0.18401916,0.8161274,0.5442477,-0.017715093,-0.014049901,0.010995574
168,1.68,-0.18401916,0.8161274,0.5442477,-0.0105145643274325,-0.0083923429001007,0.0061095013969245
169,1.69,-0.18401916,0.8161274,0.5442477,-0.00061086525,-0.00061086525,-0.00061086525
170,1.7,-0.18401916,0.8161274,0.5442477,-0.00061086525,-0.00061086525,-0.00061086525
171,1.71,-0.18401916,0.8161274,0.5442477,-0.00061086525,-0.00061086525,-0.00061086525
172,1.72,-0.18401916,0.8161274,0.5442477,-0.00061086525,-0.00061086525,-0.00061086525
173,1.73,-0.18401916,0.8161274,0.5442477,-0.00061086525,-0.00061086525,-0.00061086525
174,1.74,-0.18401916,0.8161274,0.5442477,-0.00061086525,-0.00061086525,-0.00061086525
175,1.75,-0.18401916,0.8161274,0.5442477,-0.00061086525,-0.00061086525,-0.00061086525
176,1.76,-0.18401916,0.8161274,0.5442477,-0.00061086525,-0.00061086525,-0.00061086525
177,1.77,-0.2186002205580368,0.7001367510759595,0.6153910357822172,-0.00061086525,-0.00061086525,-0.00061086525
178,1.78,-0.23087814,0.65895456,0.6406503,-0.00061086525,-0.00061086525,-0.00061086525
179,1.79,-0.23087814,0.65895456,0.6406503,0.0545083884155468,-0.0391741528116278,-0.0280695409873151
180,1.8,-0.23087814,0.65895456,0.6406503,0.16615535,-0.11728613,-0.08368854
181,1.81,-0.23087814,0.65895456,0.6406503,0.16615535,-0.11728613,-0.08368854
182,1.82,-0.23087814,0.65895456,0.6406503,0.16615535,-0.11728613,-0.08368854
183,1.83,-0.23087814,0.65895456,0.6406503,0.16615535,-0.11728613,-0.08368854
184,1.84,-0.23087814,0.65895456,0.6406503,0.16615535,-0.11728613,-0.08368854
185,1.85,-0.23087814,0.65895456,0.6406503,0.16615535,-0.11728613,-0.08368854
186,1.86,-0.1562646134217982,0.7632508900531219,0.6937132968867824,0.16615535,-0.11728613,-0.08368854
187,1.87,-0.14130914,0.78415596,0.7043492,0.16615535,-0.11728613,-0.08368854
188,1.88,-0.14130914,0.78415596,0.7043492,0.16615535,-0.11728613,-0.08368854
189,1.89,-0.14130914,0.78415596,0.7043492,0.16615535,-0.11728613,-0.08368854
190,1.9,-0.14130914,0.78415596,0.7043492,0.16615535,-0.11728613,-0.08368854
191,1.91,-0.14130914,0.78415596,0.7043492,0.16615535,-0.11728613,-0.08368854
192,1.92,-0.14130914,0.78415596,0.7043492,0.16615535,-0.11728613,-0.08368854
193,1.93,-0.14130914,0.78415596,0.7043492,0.16615535,-0.11728613,-0.08368854
194,1.94,-0.14130914,0.78415596,0.7043492,0.16615535,-0.11728613,-0.08368854
195,1.95,-0.14130914,0.78415596,0.7043492,0.16615535,-0.11728613,-0.08368854
196,1.96,-0.14130914,0.78415596,0.7043492,0.16615535,-0.11728613,-0.08368854
197,1.97,-0.14130914,0.78415596,0.7043492,0.16615535,-0.11728613,-0.08368854
198,1.98,-0.14130914,0.78415596,0.7043492,0.16615535,-0.11728613,-0.08368854
199,1.99,-0.14130914,0.78415596,0.7043492,0.16615535,-0.11728613,-0.08368854
200,2.0,-0.14130914,0.78415596,0.7043492,0.16615535,-0.11728613,-0.08368854
201,2.01,-0.14130914,0.78415596,0.7043492,0.16615535,-0.11728613,-0.08368854
202,2.02,-0.14130914,0.78415596,0.7043492,0.16615535,-0.11728613,-0.08368854
203,2.03,-0.14130914,0.78415596,0.7043492,0.16615535,-0.11728613,-0.08368854
204,2.04,-0.14130914,0.78415596,0.7043492,0.16615535,-0.11728613,-0.08368854
205,2.05,-0.14130914,0.78415596,0.7043492,0.16615535,-0.11728613,-0.08368854
206,2.06,-0.14130914,0.78415596,0.7043492,0.16615535,-0.11728613,-0.08368854
207,2.07,-0.14130914,0.78415596,0.7043492,0.16615535,-0.11728613,-0.08368854
208,2.08,-0.14130914,0.78415596,0.7043492,0.16615535,-0.11728613,-0.08368854
209,2.09,-0.14130914,0.78415596,0.7043492,0.16615535,-0.11728613,-0.08368854
210,2.1,-0.14130914,0.78415596,0.7043492,0.16615535,-0.11728613,-0.08368854
211,2.11,-0.14130914,0.78415596,0.7043492,0.16615535,-0.11728613,-0.08368854
212,2.12,-0.14130914,0.78415596,0.7043492,0.16615535,-0.11728613,-0.08368854
213,2.13,-0.14130914,0.78415596,0.7043492,0.16615535,-0.11728613,-0.08368854
214,2.14,-0.14130914,0.78415596,0.7043492,0.16615535,-0.11728613,-0.08368854
215,2.15,-0.14130914,0.78415596,0.7043492,0.16615535,-0.11728613,-0.08368854
216,2.16,-0.14130914,0.78415596,0.7043492,0.16615535,-0.11728613,-0.08368854
217,2.17,-0.14130914,0.78415596,0.7043492,0.16615535,-0.11728613,-0.08368854
218,2.18,-0.14130914,0.78415596,0.7043492,0.16615535,-0.11728613,-0.08368854
219,2.19,-0.14130914,0.78415596,0.7043492,0.16615535,-0.11728613,-0.08368854
220,2.2,-0.14130914,0.78415596,0.7043492,0.16615535,-0.11728613,-0.08368854
221,2.21,-0.14130914,0.78415596,0.7043492,0.16615535,-0.11728613,-0.08368854
222,2.22,-0.14130914,0.78415596,0.7043492,0.16615535,-0.11728613,-0.08368854
223,2.23,-0.14130914,0.78415596,0.7043492,0.16615535,-0.11728613,-0.08368854
224,2.24,-0.14130914,0.78415596,0.7043492,0.16615535,-0.11728613,-0.08368854
225,2.25,-0.14130914,0.78415596,0.7043492,0.16615535,-0.11728613,-0.08368854
226,2.26,-0.14130914,0.78415596,0.7043492,0.16615535,-0.11728613,-0.08368854
227,2.27,-0.14130914,0.78415596,0.7043492,0.16615535,-0.11728613,-0.08368854
228,2.28,-0.14130914,0.78415596,0.7043492,0.16615535,-0.11728613,-0.08368854
229,2.29,-0.14130914,0.78415596,0.7043492,0.16615535,-0.11728613,-0.08368854
230,2.3,-0.14130914,0.78415596,0.7043492,0.16615535,-0.11728613,-0.08368854
231,2.31,-0.14130914,0.78415596,0.7043492,0.16615535,-0.11728613,-0.08368854
232,2.32,-0.14130914,0.78415596,0.7043492,0.16615535,-0.11728613,-0.08368854
233,2.33,-0.14130914,0.78415596,0.7043492,0.16615535,-0.11728613,-0.08368854
234,2.34,-0.14130914,0.78415596,0.7043492,0.16615535,-0.11728613,-0.08368854
235,2.35,-0.14130914,0.78415596,0.7043492,0.16615535,-0.11728613,-0.08368854
236,2.36,-0.14130914,0.78415596,0.7043492,0.16615535,-0.11728613,-0.08368854
237,2.37,-0.14130914,0.78415596,0.7043492,0.16615535,-0.11728613,-0.08368854
238,2.38,-0.14130914,0.78415596,0.7043492,0.16615535,-0.11728613,-0.08368854
239,2.39,-0.14130914,0.78415596,0.7043492,0.16615535,-0.11728613,-0.08368854
240,2.4,-0.14130914,0.78415596,0.7043492,0.16615535,-0.11728613,-0.08368854
241,2.41,-0.14130914,0.78415596,0.7043492,0.16615535,-0.11728613,-0.08368854
242,2.42,-0.14130914,0.78415596,0.7043492,0.16615535,-0.11728613,-0.08368854
243,2.43,-0.14130914,0.78415596,0.7043492,0.16615535,-0.11728613,-0.08368854
244,2.44,-0.14130914,0.78415596,0.7043492,0.16615535,-0.11728613,-0.08368854
245,2.45,-0.14130914,0.78415596,0.7043492,0.16615535,-0.11728613,-0.08368854
246,2.46,-0.14130914,0.78415596,0.7043492,0.16615535,-0.11728613,-0.08368854
247,2.47,-0.14130914,0.78415596,0.7043492,0.16615535,-0.11728613,-0.08368854
248,2.48,-0.14130914,0.78415596,0.7043492,0.16615535,-0.11728613,-0.08368854
249,2.49,-0.14130914,0.78415596,0.7043492,0.16615535,-0.11728613,-0.08368854
250,2.5,-0.14130914,0.78415596,0.7043492,0.16615535,-0.11728613,-0.08368854
251,2.51,-0.14130914,0.78415596,0.7043492,0.16615535,-0.11728613,-0.08368854
252,2.52,-0.14130914,0.78415596,0.7043492,0.16615535,-0.11728613,-0.08368854
253,2.53,-0.14130914,0.78415596,0.7043492,0.16615535,-0.11728613,-0.08368854
254,2.54,-0.14130914,0.78415596,0.7043492,0.16615535,-0.11728613,-0.08368854
255,2.55,-0.14130914,0.78415596,0.7043492,0.16615535,-0.11728613,-0.08368854
256,2.56,-0.14130914,0.78415596,0.7043492,0.16615535,-0.11728613,-0.08368854
257,2.57,-0.14130914,0.78415596,0.7043492,0.16615535,-0.11728613,-0.08368854
258,2.58,-0.14130914,0.78415596,0.7043492,0.16615535,-0.11728613,-0.08368854
259,2.59,-0.14130914,0.78415596,0.7043492,0.16615535,-0.11728613,-0.08368854
260,2.6,-0.14130914,0.78415596,0.7043492,0.16615535,-0.11728613,-0.08368854
261,2.61,-0.14130914,0.78415596,0.7043492,0.16615535,-0.11728613,-0.08368854
262,2.62,-0.14130914,0.78415596,0.7043492,0.16615535,-0.11728613,-0.08368854
263,2.63,-0.14130914,0.78415596,0.7043492,0.16615535,-0.11728613,-0.08368854
264,2.64,-0.14130914,0.78415596,0.7043492,0.16615535,-0.11728613,-0.08368854
265,2.65,-0.14130914,0.78415596,0.7043492,0.16615535,-0.11728613,-0.08368854
266,2.66,-0.14130914,0.78415596,0.7043492,0.16615535,-0.11728613,-0.08368854
267,2.67,-0.14130914,0.78415596,0.7043492,0.16615535,-0.11728613,-0.08368854
268,2.68,-0.14130914,0.78415596,0.7043492,0.16615535,-0.11728613,-0.08368854
269,2.69,-0.14130914,0.78415596,0.7043492,0.16615535,-0.11728613,-0.08368854
270,2.7,-0.14130914,0.78415596,0.7043492,0.16615535,-0.11728613,-0.08368854
271,2.71,-0.14130914,0.78415596,0.7043492,0.16615535,-0.11728613,-0.08368854
272,2.72,-0.14130914,0.78415596,0.7043492,0.16615535,-0.11728613,-0.08368854
273,2.73,-0.14130914,0.78415596,0.7043492,0.16615535,-0.11728613,-0.08368854
274,2.74,-0.14130914,0.78415596,0.7043492,0.16615535,-0.11728613,-0.08368854
275,2.75,-0.14130914,0.78415596,0.7043492,0.16615535,-0.11728613,-0.08368854
276,2.76,-0.14130914,0.78415596,0.7043492,0.16615535,-0.11728613,-0.08368854
277,2.77,-0.14130914,0.78415596,0.7043492,0.16615535,-0.11728613,-0.08368854
278,2.78,-0.14130914,0.78415596,0.7043492,0.16615535,-0.11728613,-0.08368854
279,2.79,-0.14130914,0.78415596,0.7043492,0.16615535,-0.11728613,-0.08368854
280,2.8,-0.14130914,0.78415596,0.7043492,0.16615535,-0.11728613,-0.08368854
281,2.81,-0.14130914,0.78415596,0.7043492,0.16615535,-0.11728613,-0.08368854
282,2.82,-0.14130914,0.78415596,0.7043492,0.16615535,-0.11728613,-0.08368854
283,2.83,-0.14130914,0.78415596,0.7043492,0.16615535,-0.11728613,-0.08368854
284,2.84,-0.14130914,0.78415596,0.7043492,0.16615535,-0.11728613,-0.08368854
285,2.85,-0.14130914,0.78415596,0.7043492,0.16615535,-0.11728613,-0.08368854
286,2.86,-0.14130914,0.78415596,0.7043492,0.16615535,-0.11728613,-0.08368854
287,2.87,-0.14130914,0.78415596,0.7043492,0.16615535,-0.11728613,-0.08368854
288,2.88,-0.14130914,0.78415596,0.7043492,0.16615535,-0.11728613,-0.08368854
289,2.89,-0.14130914,0.78415596,0.7043492,0.16615535,-0.11728613,-0.08368854
290,2.9,-0.14130914,0.78415596,0.7043492,0.16615535,-0.11728613,-0.08368854
291,2.91,-0.14130914,0.78415596,0.7043492,0.16615535,-0.11728613,-0.08368854
292,2.92,-0.14130914,0.78415596,0.7043492,0.16615535,-0.11728613,-0.08368854
293,2.93,-0.14130914,0.78415596,0.7043492,0.16615535,-0.11728613,-0.08368854
294,2.94,-0.14130914,0.78415596,0.7043492,0.16615535,-0.11728613,-0.08368854
295,2.95,-0.14130914,0.78415596,0.7043492,0.16615535,-0.11728613,-0.08368854
296,2.96,-0.14130914,0.78415596,0.7043492,0.16615535,-0.11728613,-0.08368854
297,2.97,-0.14130914,0.78415596,0.7043492,0.16615535,-0.11728613,-0.08368854
298,2.98,-0.14130914,0.78415596,0.7043492,0.16615535,-0.11728613,-0.08368854
299,2.99,-0.14130914,0.78415596,0.7043492,0.16615535,-0.11728613,-0.08368854
300,3.0,-0.14130914,0.78415596,0.7043492,0.16615535,-0.11728613,-0.08368854
301,3.01,-0.14130914,0.78415596,0.7043492,0.16615535,-0.11728613,-0.08368854
302,3.02,-0.14130914,0.78415596,0.7043492,0.16615535,-0.11728613,-0.08368854
303,3.03,-0.14130914,0.78415596,0.7043492,0.16615535,-0.11728613,-0.08368854
304,3.04,-0.14130914,0.78415596,0.7043492,0.16615535,-0.11728613,-0.08368854
305,3.05,-0.14130914,0.78415596,0.7043492,0.16615535,-0.11728613,-0.08368854
306,3.06,-0.14130914,0.78415596,0.7043492,0.16615535,-0.11728613,-0.08368854
307,3.07,-0.14130914,0.78415596,0.7043492,0.16615535,-0.11728613,-0.08368854
308,3.08,-0.14130914,0.78415596,0.7043492,0.16615535,-0.11728613,-0.08368854
309,3.09,-0.14130914,0.78415596,0.7043492,0.16615535,-0.11728613,-0.08368854
310,3.1,-0.14130914,0.78415596,0.7043492,0.16615535,-0.11728613,-0.08368854
311,3.11,-0.14130914,0.78415596,0.7043492,0.16615535,-0.11728613,-0.08368854
312,3.12,-0.14130914,0.78415596,0.7043492,0.16615535,-0.11728613,-0.08368854
313,3.13,-0.14130914,0.78415596,0.7043492,0.16615535,-0.11728613,-0.08368854
314,3.14,-0.14130914,0.78415596,0.7043492,0.16615535,-0.11728613,-0.08368854
315,3.15,-0.14130914,0.78415596,0.7043492,0.16615535,-0.11728613,-0.08368854
316,3.16,-0.14130914,0.78415596,0.7043492,0.16615535,-0.11728613,-0.08368854
317,3.17,-0.14130914,0.78415596,0.7043492,0.16615535,-0.11728613,-0.08368854
318,3.18,-0.14130914,0.78415596,0.7043492,0.16615535,-0.11728613,-0.08368854
319,3.19,-0.14130914,0.78415596,0.7043492,0.16615535,-0.11728613,-0.08368854
320,3.2,-0.14130914,0.78415596,0.7043492,0.16615535,-0.11728613,-0.08368854
321,3.21,-0.14130914,0.78415596,0.7043492,0.16615535,-0.11728613,-0.08368854
322,3.22,-0.14130914,0.78415596,0.7043492,0.16615535,-0.11728613,-0.08368854
323,3.23,-0.14130914,0.78415596,0.7043492,0.16615535,-0.11728613,-0.08368854
324,3.24,-0.14130914,0.78415596,0.7043492,0.16615535,-0.11728613,-0.08368854
325,3.25,-0.14130914,0.78415596,0.7043492,0.16615535,-0.11728613,-0.08368854
326,3.26,-0.14130914,0.78415596,0.7043492,0.16615535,-0.11728613,-0.08368854
327,3.27,-0.14130914,0.78415596,0.7043492,0.16615535,-0.11728613,-0.08368854
328,3.28,-0.14130914,0.78415596,0.7043492,0.16615535,-0.11728613,-0.08368854
329,3.29,-0.14130914,0.78415596,0.7043492,0.1994230344760033,-0.2159614676256263,0.0101376052757995
330,3.3,-0.14130914,0.78415596,0.7043492,0.3426361009435903,-0.6407459967768461,0.4140469903570801
331,3.31,-0.14130914,0.78415596,0.7043492,0.3463606,-0.65179324,0.42455134
332,3.32,-0.0872495813271562,0.78133194314989,0.6595684967663866,0.3463606,-0.65179324,0.42455134
333,3.33,-0.0836949628487993,0.789180319642907,0.6228751143956538,0.3463606,-0.65179324,0.42455134
334,3.34,-0.14057697,0.80343646,0.62259,0.3463606,-0.65179324,0.42455134
335,3.35,-0.14057697,0.80343646,0.62259,0.3463606,-0.65179324,0.42455134
336,3.36,-0.14057697,0.80343646,0.62259,0.3463606,-0.65179324,0.42455134
337,3.37,-0.14057697,0.80343646,0.62259,0.3463606,-0.65179324,0.42455134
338,3.38,-0.14057697,0.80343646,0.62259,0.3463606,-0.65179324,0.42455134
339,3.39,-0.14057697,0.80343646,0.62259,0.3463606,-0.65179324,0.42455134
340,3.4,-0.14057697,0.80343646,0.62259,0.3463606,-0.65179324,0.42455134
341,3.41,-0.14057697,0.80343646,0.62259,0.1997071098741913,-0.3533452653133666,0.226487960891887
342,3.42,-0.14057697,0.80343646,0.62259,0.015271631,0.021991149,-0.022602014
343,3.43,-0.14057697,0.80343646,0.62259,0.015271631,0.021991149,-0.022602014
344,3.44,-0.14057697,0.80343646,0.62259,0.015271631,0.021991149,-0.022602014
345,3.45,-0.14057697,0.80343646,0.62259,0.015271631,0.021991149,-0.022602014
346,3.46,-0.14057697,0.80343646,0.62259,0.015271631,0.021991149,-0.022602014
347,3.47,-0.14057697,0.80343646,0.62259,0.015271631,0.021991149,-0.022602014
348,3.48,-0.14057697,0.80343646,0.62259,0.015271631,0.021991149,-0.022602014
349,3.49,-0.1412477306545269,0.7999051029357328,0.6330459727215165,0.0143828092532866,0.0221392859038958,-0.0202812015922012
350,3.5,-0.1478426684793648,0.7651846998844128,0.7358493937797022,0.0056438885706597,0.0235957721544889,0.0025370919812919
351,3.51,-0.031698953939325,0.8003824440270239,0.6226253163821793,0.004276057,0.023823744,0.0061086523
352,3.52,-0.1030075629090454,0.7400674240767944,0.6020782673442915,0.004276057,0.023823744,0.0061086523
353,3.53,-0.23087814,0.65895456,0.6406503,0.004276057,0.023823744,0.0061086523
354,3.54,-0.23087814,0.65895456,0.6406503,0.004276057,0.023823744,0.0061086523
355,3.55,-0.23087814,0.65895456,0.6406503,0.004276057,0.023823744,0.0061086523
356,3.56,-0.23087814,0.65895456,0.6406503,0.004276057,0.023823744,0.0061086523
357,3.57,-0.23087814,0.65895456,0.6406503,0.004276057,0.023823744,0.0061086523
358,3.58,-0.23087814,0.65895456,0.6406503,0.004276057,0.023823744,0.0061086523
359,3.59,-0.23087814,0.65895456,0.6406503,0.004276057,0.023823744,0.0061086523
360,3.6,-0.23087814,0.65895456,0.6406503,0.004276057,0.023823744,0.0061086523
361,3.61,-0.23087814,0.65895456,0.6406503,0.004276057,0.023823744,0.0061086523
362,3.62,-0.23087814,0.65895456,0.6406503,0.004276057,0.023823744,0.0061086523
363,3.63,-0.23087814,0.65895456,0.6406503,0.004276057,0.023823744,0.0061086523
364,3.64,-0.23087814,0.65895456,0.6406503,0.004276057,0.023823744,0.0061086523
365,3.65,-0.23087814,0.65895456,0.6406503,0.004276057,0.023823744,0.0061086523
366,3.66,-0.0815980037285638,0.2486983077162503,0.8540801013702256,0.004276057,0.023823744,0.0061086523
367,3.67,0.010494461,-0.0043930304,0.98574716,0.004276057,0.023823744,0.0061086523
368,3.68,0.010494461,-0.0043930304,0.98574716,0.0627907906667503,-0.0271834388325733,-0.0263504639592764
369,3.69,0.010494461,-0.0043930304,0.98574716,0.16615535,-0.11728613,-0.08368854
370,3.7,0.010494461,-0.0043930304,0.98574716,0.16615535,-0.11728613,-0.08368854
371,3.71,0.010494461,-0.0043930304,0.98574716,0.16615535,-0.11728613,-0.08368854
372,3.72,0.010494461,-0.0043930304,0.98574716,0.16615535,-0.11728613,-0.08368854
373,3.73,0.010494461,-0.0043930304,0.98574716,0.16615535,-0.11728613,-0.08368854
374,3.74,0.010494461,-0.0043930304,0.98574716,0.16615535,-0.11728613,-0.08368854
375,3.75,0.010494461,-0.0043930304,0.98574716,0.16615535,-0.11728613,-0.08368854
376,3.76,0.010494461,-0.0043930304,0.98574716,0.16615535,-0.11728613,-0.08368854
377,3.77,0.010494461,-0.0043930304,0.98574716,0.16615535,-0.11728613,-0.08368854
378,3.78,-0.056262257410918,0.4237206885354732,0.8814035640380391,0.16615535,-0.11728613,-0.08368854
379,3.79,-0.10177187,0.7155758,0.8102701,0.16615535,-0.11728613,-0.08368854
380,3.8,-0.10177187,0.7155758,0.8102701,0.16615535,-0.11728613,-0.08368854
381,3.81,-0.10177187,0.7155758,0.8102701,0.1984973688966044,-0.0315935980894245,0.0133375197066001
382,3.82,-0.10177187,0.7155758,0.8102701,0.3799904159837956,0.4492854335748464,0.5578166778974142
383,3.83,-0.10177187,0.7155758,0.8102701,0.38056904,0.45081854,0.55955255
384,3.84,-0.10177187,0.7155758,0.8102701,0.36801070734033,0.0298980662842646,0.5153818859370322
385,3.85,-0.10177187,0.7155758,0.8102701,0.36285394,-0.14294247,0.4972443
386,3.86,-0.10177187,0.7155758,0.8102701,0.36285394,-0.14294247,0.4972443
387,3.87,-0.10177187,0.7155758,0.8102701,0.36285394,-0.14294247,0.4972443
388,3.88,-0.0920214224414383,0.7331486494315108,0.7518224871966906,0.36285394,-0.14294247,0.4972443
389,3.89,-0.058573738,0.7934301,0.5513253,0.36285394,-0.14294247,0.4972443
390,3.9,-0.058573738,0.7934301,0.5513253,0.36285394,-0.14294247,0.4972443
391,3.91,-0.058573738,0.7934301,0.5513253,0.36285394,-0.14294247,0.4972443
392,3.92,-0.058573738,0.7934301,0.5513253,0.36285394,-0.14294247,0.4972443
393,3.93,-0.0486036869588912,0.7840930773050657,0.597852195780443,0.36285394,-0.14294247,0.4972443
394,3.94,-0.043198135,0.77903074,0.6230781,0.36285394,-0.14294247,0.4972443
395,3.95,-0.043198135,0.77903074,0.6230781,0.3601474062113644,0.0770254921067133,0.5491606891666184
396,3.96,-0.043198135,0.77903074,0.6230781,0.277300539505434,0.3147858562069823,0.5159405022887931
397,3.97,-0.043198135,0.77903074,0.6230781,0.018325957,0.02443461,0.15393804
398,3.98,-0.043198135,0.77903074,0.6230781,0.018325957,0.02443461,0.15393804
399,3.99,-0.043198135,0.77903074,0.6230781,0.018325957,0.02443461,0.15393804
400,4.0,-0.043198135,0.77903074,0.6230781,0.018325957,0.02443461,0.15393804
401,4.01,-0.043198135,0.77903074,0.6230781,0.1968226799790014,0.2570015048193587,0.3939965690706137
402,4.02,-0.043198135,0.77903074,0.6230781,0.35308012,0.4605924,0.6041457
403,4.03,-0.043198135,0.77903074,0.6230781,0.35308012,0.4605924,0.6041457
404,4.04,-0.043198135,0.77903074,0.6230781,0.35308012,0.4605924,0.6041457
405,4.05,-0.043198135,0.77903074,0.6230781,0.35308012,0.4605924,0.6041457
406,4.06,-0.0734669246790125,0.8166128528168223,0.504643902210302,0.35308012,0.4605924,0.6041457
407,4.07,-0.079562664,0.8241814,0.4807928,0.35308012,0.4605924,0.6041457
408,4.08,-0.079562664,0.8241814,0.4807928,0.35308012,0.4605924,0.6041457
409,4.09,-0.079562664,0.8241814,0.4807928,0.35308012,0.4605924,0.6041457
410,4.1,-0.079562664,0.8241814,0.4807928,0.35308012,0.4605924,0.6041457
411,4.11,-0.079562664,0.8241814,0.4807928,0.35308012,0.4605924,0.6041457
412,4.12,-0.079562664,0.8241814,0.4807928,0.35308012,0.4605924,0.6041457
413,4.13,-0.079562664,0.8241814,0.4807928,0.35308012,0.4605924,0.6041457
414,4.14,-0.079562664,0.8241814,0.4807928,0.35308012,0.4605924,0.6041457
415,4.15,-0.079562664,0.8241814,0.4807928,0.35308012,0.4605924,0.6041457
416,4.16,-0.079562664,0.8241814,0.4807928,0.20728997795315,0.2620527364082907,0.3459646299795939
417,4.17,-0.079562664,0.8241814,0.4807928,0.017104227,0.0030543262,0.009162978
418,4.18,-0.079562664,0.8241814,0.4807928,0.017104227,0.0030543262,0.009162978
419,4.19,-0.079562664,0.8241814,0.4807928,0.017104227,0.0030543262,0.009162978
420,4.2,-0.079562664,0.8241814,0.4807928,0.017104227,0.0030543262,0.009162978
421,4.21,-0.079562664,0.8241814,0.4807928,0.017104227,0.0030543262,0.009162978
422,4.22,-0.079562664,0.8241814,0.4807928,0.017104227,0.0030543262,0.009162978
423,4.23,-0.079562664,0.8241814,0.4807928,-0.0147957154645013,0.1108452568891569,0.0420919504318605
424,4.24,-0.079562664,0.8241814,0.4807928,-0.058643065,0.25900686,0.08735373
425,4.25,-0.079562664,0.8241814,0.4807928,-0.058643065,0.25900686,0.08735373
426,4.26,-0.079562664,0.8241814,0.4807928,-0.058643065,0.25900686,0.08735373
427,4.27,-0.079562664,0.8241814,0.4807928,-0.058643065,0.25900686,0.08735373
428,4.28,-0.079562664,0.8241814,0.4807928,-0.0381088337420847,0.1303470738482595,0.0523813694651797
429,4.29,-0.079562664,0.8241814,0.4807928,-0.019547688,0.014049901,0.02076942
430,4.3,-0.079562664,0.8241814,0.4807928,-0.019547688,0.014049901,0.02076942
431,4.31,-0.0628918952450484,0.8270619879442576,0.5029796254590724,-0.019547688,0.014049901,0.02076942
432,4.32,-0.0132695529236319,0.8360251557419331,0.5655569484942439,-0.019547688,0.014049901,0.02076942
433,4.33,-0.0148212149342683,0.8424257668008414,0.5040723793700888,-0.019547688,0.014049901,0.02076942
434,4.34,-0.0175366435356713,0.8440265696776442,0.4977079395592746,-0.019547688,0.014049901,0.02076942
435,4.35,-0.018792408,0.844194,0.5008055,-0.019547688,0.014049901,0.02076942
436,4.36,-0.018792408,0.844194,0.5008055,-0.019547688,0.014049901,0.02076942
437,4.37,-0.018792408,0.844194,0.5008055,-0.019547688,0.014049901,0.02076942
438,4.38,-0.018792408,0.844194,0.5008055,-0.019547688,0.014049901,0.02076942
439,4.39,-0.018792408,0.844194,0.5008055,-0.019547688,0.014049901,0.02076942
440,4.4,-0.018792408,0.844194,0.5008055,-0.0079906828496158,0.014049901,0.0012114107615451
441,4.41,-0.018792408,0.844194,0.5008055,0.004276057,0.014049901,-0.019547688
442,4.42,-0.018792408,0.844194,0.5008055,0.004276057,0.014049901,-0.019547688
443,4.43,-0.018792408,0.844194,0.5008055,0.004276057,0.014049901,-0.019547688
444,4.44,-0.018792408,0.844194,0.5008055,0.004276057,0.014049901,-0.019547688
445,4.45,-0.018792408,0.844194,0.5008055,0.004276057,0.014049901,-0.019547688
446,4.46,-0.018792408,0.844194,0.5008055,0.004276057,0.014049901,-0.019547688
447,4.47,-0.018792408,0.844194,0.5008055,0.004276057,0.014049901,-0.019547688
448,4.48,-0.018792408,0.844194,0.5008055,-0.0721892419768524,0.3075779702579364,0.0973702197734245
449,4.49,-0.018792408,0.844194,0.5008055,-0.09040806,0.37751472,0.12522738
450,4.5,-0.0338557991332257,1.0078660160804889,0.241816420386195,-0.09040806,0.37751472,0.12522738
451,4.51,-0.04783522,1.1597601,0.0014643435,-0.169166319623318,0.6010549552970426,0.1745982264439998
452,4.52,-0.04783522,1.1597601,0.0014643435,-0.3359759,1.074512,0.27916542
453,4.53,-0.04783522,1.1597601,0.0014643435,-0.3359759,1.074512,0.27916542
454,4.54,-0.04783522,1.1597601,0.0014643435,-0.3359759,1.074512,0.27916542
455,4.55,-0.04783522,1.1597601,0.0014643435,-0.3359759,1.074512,0.27916542
456,4.56,-0.04783522,1.1597601,0.0014643435,-0.5126521889423722,0.6614714975500702,0.2440872820596352
457,4.57,-0.0468266315037363,1.1289421117922662,0.0219162773875222,-0.9236283,-0.29932398,0.16249016
458,4.58,-0.03904916,0.8912971,0.17962612,-0.9236283,-0.29932398,0.16249016
459,4.59,-0.03904916,0.8912971,0.17962612,-0.9236283,-0.29932398,0.16249016
460,4.6,-0.03904916,0.8912971,0.17962612,-0.9236283,-0.29932398,0.16249016
461,4.61,-0.03904916,0.8912971,0.17962612,-0.9236283,-0.29932398,0.16249016
462,4.62,-0.03904916,0.8912971,0.17962612,-0.9236283,-0.29932398,0.16249016
463,4.63,-0.03904916,0.8912971,0.17962612,-0.9236283,-0.29932398,0.16249016
464,4.64,-0.03904916,0.8912971,0.17962612,-0.9236283,-0.29932398,0.16249016
465,4.65,-0.03904916,0.8912971,0.17962612,-0.9236283,-0.29932398,0.16249016
466,4.66,-0.0154762914493637,0.8430867495543509,0.5035629817323858,-0.2529096806496184,-0.2616388766326971,-0.046490837173386
467,4.67,-0.0012202862,0.8139309,0.6994681,0.15271631,-0.23884831,-0.17287487
468,4.68,-0.0012202862,0.8139309,0.6994681,0.15271631,-0.23884831,-0.17287487
469,4.69,-0.0012202862,0.8139309,0.6994681,0.15271631,-0.23884831,-0.17287487
470,4.7,-0.0012202862,0.8139309,0.6994681,0.15271631,-0.23884831,-0.17287487
471,4.71,0.0299009722796488,0.8195092536068844,0.6803842745420172,0.15271631,-0.23884831,-0.17287487
472,4.72,0.05051985,0.8232051,0.6677406,0.15271631,-0.23884831,-0.17287487
473,4.73,0.05051985,0.8232051,0.6677406,0.15271631,-0.23884831,-0.17287487
474,4.74,0.05051985,0.8232051,0.6677406,0.15271631,-0.23884831,-0.17287487
475,4.75,0.05051985,0.8232051,0.6677406,0.15271631,-0.23884831,-0.17287487
476,4.76,0.05051985,0.8232051,0.6677406,0.15271631,-0.23884831,-0.17287487
477,4.77,0.05051985,0.8232051,0.6677406,0.15271631,-0.23884831,-0.17287487
478,4.78,0.05051985,0.8232051,0.6677406,0.15271631,-0.23884831,-0.17287487
479,4.79,0.05051985,0.8232051,0.6677406,0.15271631,-0.23884831,-0.17287487
480,4.8,0.05051985,0.8232051,0.6677406,0.15271631,-0.23884831,-0.17287487
481,4.81,0.05051985,0.8232051,0.6677406,0.15271631,-0.23884831,-0.17287487
482,4.82,0.05051985,0.8232051,0.6677406,0.15271631,-0.23884831,-0.17287487
483,4.83,0.05051985,0.8232051,0.6677406,0.15271631,-0.23884831,-0.17287487
484,4.84,0.05051985,0.8232051,0.6677406,0.15271631,-0.23884831,-0.17287487
485,4.85,0.05051985,0.8232051,0.6677406,0.15271631,-0.23884831,-0.17287487
486,4.86,0.05051985,0.8232051,0.6677406,0.15271631,-0.23884831,-0.17287487
487,4.87,0.05051985,0.8232051,0.6677406,0.15271631,-0.23884831,-0.17287487
488,4.88,0.05051985,0.8232051,0.6677406,0.15271631,-0.23884831,-0.17287487
489,4.89,0.05051985,0.8232051,0.6677406,0.15271631,-0.23884831,-0.17287487
490,4.9,0.05051985,0.8232051,0.6677406,0.15271631,-0.23884831,-0.17287487
491,4.91,0.05051985,0.8232051,0.6677406,0.15271631,-0.23884831,-0.17287487
492,4.92,0.05051985,0.8232051,0.6677406,0.15271631,-0.23884831,-0.17287487
493,4.93,0.05051985,0.8232051,0.6677406,0.15271631,-0.23884831,-0.17287487
494,4.94,0.05051985,0.8232051,0.6677406,0.15271631,-0.23884831,-0.17287487
495,4.95,0.05051985,0.8232051,0.6677406,0.15271631,-0.23884831,-0.17287487
496,4.96,0.05051985,0.8232051,0.6677406,0.15271631,-0.23884831,-0.17287487
497,4.97,0.05051985,0.8232051,0.6677406,0.15271631,-0.23884831,-0.17287487
498,4.98,0.05051985,0.8232051,0.6677406,0.15271631,-0.23884831,-0.17287487
499,4.99,0.05051985,0.8232051,0.6677406,0.15271631,-0.23884831,-0.17287487
500,5.0,0.05051985,0.8232051,0.6677406,0.15271631,-0.23884831,-0.17287487
501,5.01,0.05051985,0.8232051,0.6677406,0.15271631,-0.23884831,-0.17287487
502,5.02,0.05051985,0.8232051,0.6677406,0.15271631,-0.23884831,-0.17287487
503,5.03,0.05051985,0.8232051,0.6677406,0.15271631,-0.23884831,-0.17287487
504,5.04,0.05051985,0.8232051,0.6677406,0.15271631,-0.23884831,-0.17287487
505,5.05,0.05051985,0.8232051,0.6677406,0.15271631,-0.23884831,-0.17287487
506,5.06,0.05051985,0.8232051,0.6677406,0.15271631,-0.23884831,-0.17287487
507,5.07,0.05051985,0.8232051,0.6677406,0.15271631,-0.23884831,-0.17287487
508,5.08,0.05051985,0.8232051,0.6677406,0.15271631,-0.23884831,-0.17287487
509,5.09,0.05051985,0.8232051,0.6677406,0.15271631,-0.23884831,-0.17287487
510,5.1,0.05051985,0.8232051,0.6677406,0.15271631,-0.23884831,-0.17287487
511,5.11,0.05051985,0.8232051,0.6677406,0.15271631,-0.23884831,-0.17287487
512,5.12,0.05051985,0.8232051,0.6677406,0.15271631,-0.23884831,-0.17287487
513,5.13,0.05051985,0.8232051,0.6677406,0.15271631,-0.23884831,-0.17287487
514,5.14,0.05051985,0.8232051,0.6677406,0.15271631,-0.23884831,-0.17287487
515,5.15,0.05051985,0.8232051,0.6677406,0.15271631,-0.23884831,-0.17287487
516,5.16,0.05051985,0.8232051,0.6677406,0.15271631,-0.23884831,-0.17287487
517,5.17,0.05051985,0.8232051,0.6677406,0.15271631,-0.23884831,-0.17287487
518,5.18,0.05051985,0.8232051,0.6677406,0.15271631,-0.23884831,-0.17287487
519,5.19,0.05051985,0.8232051,0.6677406,0.15271631,-0.23884831,-0.17287487
520,5.2,0.05051985,0.8232051,0.6677406,0.15271631,-0.23884831,-0.17287487
521,5.21,0.05051985,0.8232051,0.6677406,0.15271631,-0.23884831,-0.17287487
522,5.22,0.05051985,0.8232051,0.6677406,0.15271631,-0.23884831,-0.17287487
523,5.23,0.05051985,0.8232051,0.6677406,0.15271631,-0.23884831,-0.17287487
524,5.24,0.05051985,0.8232051,0.6677406,0.15271631,-0.23884831,-0.17287487
525,5.25,0.05051985,0.8232051,0.6677406,0.15271631,-0.23884831,-0.17287487
526,5.26,0.05051985,0.8232051,0.6677406,0.15271631,-0.23884831,-0.17287487
527,5.27,0.05051985,0.8232051,0.6677406,0.15271631,-0.23884831,-0.17287487
528,5.28,0.05051985,0.8232051,0.6677406,0.15271631,-0.23884831,-0.17287487
529,5.29,0.05051985,0.8232051,0.6677406,0.15271631,-0.23884831,-0.17287487
530,5.3,0.05051985,0.8232051,0.6677406,0.15271631,-0.23884831,-0.17287487
531,5.31,0.05051985,0.8232051,0.6677406,0.15271631,-0.23884831,-0.17287487
532,5.32,0.05051985,0.8232051,0.6677406,0.15271631,-0.23884831,-0.17287487
533,5.33,0.05051985,0.8232051,0.6677406,0.15271631,-0.23884831,-0.17287487
534,5.34,0.05051985,0.8232051,0.6677406,0.15271631,-0.23884831,-0.17287487
535,5.35,0.05051985,0.8232051,0.6677406,0.15271631,-0.23884831,-0.17287487
536,5.36,0.05051985,0.8232051,0.6677406,0.15271631,-0.23884831,-0.17287487
537,5.37,0.05051985,0.8232051,0.6677406,0.15271631,-0.23884831,-0.17287487
538,5.38,0.05051985,0.8232051,0.6677406,0.15271631,-0.23884831,-0.17287487
539,5.39,0.05051985,0.8232051,0.6677406,0.15271631,-0.23884831,-0.17287487
540,5.4,0.05051985,0.8232051,0.6677406,0.15271631,-0.23884831,-0.17287487
541,5.41,0.05051985,0.8232051,0.6677406,0.15271631,-0.23884831,-0.17287487
542,5.42,0.05051985,0.8232051,0.6677406,0.15271631,-0.23884831,-0.17287487
543,5.43,0.05051985,0.8232051,0.6677406,0.15271631,-0.23884831,-0.17287487
544,5.44,0.05051985,0.8232051,0.6677406,0.15271631,-0.23884831,-0.17287487
545,5.45,0.05051985,0.8232051,0.6677406,0.15271631,-0.23884831,-0.17287487
546,5.46,0.05051985,0.8232051,0.6677406,0.15271631,-0.23884831,-0.17287487
547,5.47,0.05051985,0.8232051,0.6677406,0.15271631,-0.23884831,-0.17287487
548,5.48,0.05051985,0.8232051,0.6677406,0.15271631,-0.23884831,-0.17287487
549,5.49,0.0227108542805805,0.8182204554466089,0.6847933172228025,0.15271631,-0.23884831,-0.17287487
550,5.5,-0.0012202862,0.8139309,0.6994681,0.15271631,-0.23884831,-0.17287487
551,5.51,-0.0012202862,0.8139309,0.6994681,0.1383623322713681,-0.1244514506334966,-0.1725848907526413
552,5.52,-0.0012202862,0.8139309,0.6994681,0.092240654,0.24312437,-0.17165314
553,5.53,-0.0012202862,0.8139309,0.6994681,0.092240654,0.24312437,-0.17165314
554,5.54,-0.0012202862,0.8139309,0.6994681,0.092240654,0.24312437,-0.17165314
555,5.55,-0.0012202862,0.8139309,0.6994681,0.092240654,0.24312437,-0.17165314
556,5.56,-0.0012202862,0.8139309,0.6994681,0.092240654,0.24312437,-0.17165314
557,5.57,-0.0012202862,0.8139309,0.6994681,0.092240654,0.24312437,-0.17165314
558,5.58,-0.0012202862,0.8139309,0.6994681,0.092240654,0.24312437,-0.17165314
559,5.59,-0.0012202862,0.8139309,0.6994681,0.092240654,0.24312437,-0.17165314
560,5.6,-0.0012202862,0.8139309,0.6994681,0.092240654,0.24312437,-0.17165314
561,5.61,-0.0012202862,0.8139309,0.6994681,0.092240654,0.24312437,-0.17165314
562,5.62,-0.0012202862,0.8139309,0.6994681,0.092240654,0.24312437,-0.17165314
563,5.63,-0.0012202862,0.8139309,0.6994681,0.092240654,0.24312437,-0.17165314
564,5.64,-0.0012202862,0.8139309,0.6994681,0.095484387882542,0.2267435119999203,-0.1699439414195649
565,5.65,-0.0012202862,0.8139309,0.6994681,0.2242532793652762,-0.4235394651453268,-0.1020926273179261
566,5.66,-0.0012202862,0.8139309,0.6994681,0.2073956313466803,0.1664887863682038,-0.161313211694982
567,5.67,-0.0012202862,0.8139309,0.6994681,0.1881465,0.48624873,-0.19364429
568,5.68,-0.0012202862,0.8139309,0.6994681,0.1881465,0.48624873,-0.19364429
569,5.69,-0.0096261016675294,0.8374671977389968,0.6829055227553438,0.1881465,0.48624873,-0.19364429
570,5.7,-0.034168016,0.9061846,0.63454884,0.1524739866406025,0.3570643200292402,-0.1674404059065217
571,5.71,-0.034168016,0.9061846,0.63454884,-0.0994647307321872,-0.5553063398311995,0.0176256947683554
572,5.72,-0.0489049975159769,0.819236353330574,0.6833914443780489,-0.10873401,-0.5888741,0.02443461
573,5.73,-0.051252022,0.8053889,0.69117016,-0.0476689972945341,-0.5627033984032875,0.0254038955381639
574,5.74,-0.051252022,0.8053889,0.69117016,-0.03176499,-0.5558874,0.02565634
575,5.75,-0.051252022,0.8053889,0.69117016,-0.03176499,-0.5558874,0.02565634
576,5.76,-0.0519646013834145,0.8070515839303134,0.6848756886662025,-0.03176499,-0.5558874,0.02565634
577,5.77,-0.05418071,0.8122225,0.6653,-0.03176499,-0.5558874,0.02565634
578,5.78,-0.05418071,0.8122225,0.6653,-0.03176499,-0.5558874,0.02565634
579,5.79,-0.0323000801576002,0.8088562727146883,0.6217258161169262,-0.03176499,-0.5558874,0.02565634
580,5.8,-0.025626011,0.8078295,0.60843474,-0.03176499,-0.5558874,0.02565634
581,5.81,-0.025626011,0.8078295,0.60843474,-0.03176499,-0.5558874,0.02565634
582,5.82,-0.0483080403675556,0.801988311155011,0.5327268291662823,-0.03176499,-0.5558874,0.02565634
583,5.83,-0.089803287558304,0.7923814489754141,0.3803694793401706,-0.0247490196221548,-0.5175172980653389,0.0276401661942419
584,5.84,0.0023973790631398,0.8274379210520623,0.5428858067820865,0.048794492568009,-0.115310346297068,0.04843522917799
585,5.85,0.012446919,0.83125895,0.5605995,0.05681047,-0.07147124,0.050701816
586,5.86,0.012446919,0.83125895,0.5605995,0.05681047,-0.07147124,0.050701816
587,5.87,-0.010706397063482,0.810974222443515,0.5908217532923902,0.05681047,-0.07147124,0.050701816
588,5.88,-0.04271002,0.7829357,0.6325964,0.05681047,-0.07147124,0.050701816
589,5.89,-0.04271002,0.7829357,0.6325964,0.05681047,-0.07147124,0.050701816
590,5.9,-0.04271002,0.7829357,0.6325964,0.05681047,-0.07147124,0.050701816
591,5.91,-0.04271002,0.7829357,0.6325964,0.05681047,-0.07147124,0.050701816
592,5.92,-0.04271002,0.7829357,0.6325964,0.05681047,-0.07147124,0.050701816
593,5.93,-0.0329634235376295,0.7914747383520058,0.6198740708866741,0.05681047,-0.07147124,0.050701816
594,5.94,0.0101649614431634,0.8292597164038717,0.5635781618511192,0.05681047,-0.07147124,0.050701816
595,5.95,0.012446919,0.83125895,0.5605995,0.05681047,-0.07147124,0.050701816
596,5.96,0.012446919,0.83125895,0.5605995,0.05681047,-0.07147124,0.050701816
597,5.97,0.0026829200229167,0.8271697826753952,0.5723663809781511,0.05681047,-0.07147124,0.050701816
598,5.98,-0.016107777,0.81930023,0.5950116,0.05681047,-0.07147124,0.050701816
599,5.99,-0.0199438153881761,0.8110220418326165,0.5833838577910447,0.05681047,-0.07147124,0.050701816
600,6.0,-0.1273532999917104,0.5792318889367597,0.2578058339589014,0.05681047,-0.07147124,0.050701816
601,6.01,-0.0481412971731005,0.7618021414068513,0.5162833674502181,0.05681047,-0.07147124,0.050701816
602,6.02,-0.031483386,0.8000197,0.5703618,0.05681047,-0.07147124,0.050701816
603,6.03,-0.0235569724130389,0.809959173288883,0.5830692322477811,0.05681047,-0.07147124,0.050701816
604,6.04,-0.016107777,0.81930023,0.5950116,0.05681047,-0.07147124,0.050701816
605,6.05,-0.016107777,0.81930023,0.5950116,0.0376159400404336,-0.0776005857280009,0.0334428691242649
606,6.06,-0.016107777,0.81930023,0.5950116,-0.015882496,-0.09468412,-0.014660766
607,6.07,-0.016107777,0.81930023,0.5950116,-0.015882496,-0.09468412,-0.014660766
608,6.08,-0.016107777,0.81930023,0.5950116,-0.015882496,-0.09468412,-0.014660766
609,6.09,-0.016107777,0.81930023,0.5950116,-0.015882496,-0.09468412,-0.014660766
610,6.1,-0.0245546438307889,0.808708124715778,0.5814697898508489,-0.015882496,-0.09468412,-0.014660766
611,6.11,-0.031483386,0.8000197,0.5703618,-0.015882496,-0.09468412,-0.014660766
612,6.12,-0.031483386,0.8000197,0.5703618,-0.015882496,-0.09468412,-0.014660766
613,6.13,-0.031483386,0.8000197,0.5703618,-0.015882496,-0.09468412,-0.014660766
614,6.14,-0.031483386,0.8000197,0.5703618,-0.015882496,-0.09468412,-0.014660766
615,6.15,-0.0214495254327714,0.8243875821714839,0.6348651772996222,-0.015882496,-0.09468412,-0.014660766
616,6.16,-0.0056694416459601,0.8226153333905352,0.616484138007839,-0.015882496,-0.09468412,-0.014660766
617,6.17,0.0051252022,0.81319875,0.5793919,-0.015882496,-0.09468412,-0.014660766
618,6.18,0.0051252022,0.81319875,0.5793919,-0.0127811684303351,-0.0843797083744296,-0.0128099737367216
619,6.19,0.0051252022,0.81319875,0.5793919,0.0193949670199566,0.0225281034423472,0.0063919135892379
620,6.2,-0.0138246964514306,0.8074084955051926,0.5413166576768027,0.021991149,0.031154128,0.007941248
621,6.21,-0.0118905205247429,0.8103766203939289,0.5686593963999466,0.021991149,0.031154128,0.007941248
622,6.22,-0.0074944104484455,0.8114283134586854,0.6093165636736694,0.021991149,0.031154128,0.007941248
623,6.23,-0.017816179,0.80246025,0.609655,0.021991149,0.031154128,0.007941248
624,6.24,-0.017816179,0.80246025,0.609655,0.021991149,0.031154128,0.007941248
625,6.25,-0.017816179,0.80246025,0.609655,0.021991149,0.031154128,0.007941248
626,6.26,-0.017816179,0.80246025,0.609655,0.021991149,0.031154128,0.007941248
627,6.27,-0.017816179,0.80246025,0.609655,0.021991149,0.031154128,0.007941248
628,6.28,-0.017816179,0.80246025,0.609655,0.021991149,0.031154128,0.007941248
629,6.29,-0.017816179,0.80246025,0.609655,0.021991149,0.031154128,0.007941248
630,6.3,-0.017816179,0.80246025,0.609655,0.0102905574017241,0.0399295697034851,0.0142790682495439
631,6.31,-0.0118195498396666,0.8113741592881764,0.5825891064352424,0.007330383,0.0421497,0.015882496
632,6.32,-0.008786061,0.8158834,0.5688974,0.026021504375467,0.0126374025263117,0.0417877356689532
633,6.33,-0.008786061,0.8158834,0.5688974,0.0421497,-0.01282817,0.06414085
634,6.34,-0.008786061,0.8158834,0.5688974,0.0421497,-0.01282817,0.06414085
635,6.35,-0.008786061,0.8158834,0.5688974,0.0421497,-0.01282817,0.06414085
636,6.36,-0.008786061,0.8158834,0.5688974,0.0421497,-0.01282817,0.06414085
637,6.37,-0.008786061,0.8158834,0.5688974,0.0421497,-0.01282817,0.06414085
638,6.38,-0.008786061,0.8158834,0.5688974,0.0421497,-0.01282817,0.06414085
639,6.39,-0.008786061,0.8158834,0.5688974,0.0487463454404613,0.0208494406337442,0.0533779039709129
640,6.4,-0.008786061,0.8158834,0.5688974,0.05375614,0.04642576,0.04520403
641,6.41,-0.008786061,0.8158834,0.5688974,0.05375614,0.04642576,0.04520403
642,6.42,-0.008786061,0.8158834,0.5688974,0.05375614,0.04642576,0.04520403
643,6.43,-0.008786061,0.8158834,0.5688974,0.05375614,0.04642576,0.04520403
644,6.44,-0.008786061,0.8158834,0.5688974,0.05375614,0.04642576,0.04520403
645,6.45,-0.0107925602036622,0.8132080370351115,0.5795987751262068,0.05375614,0.04642576,0.04520403
646,6.46,-0.012446919,0.8110022,0.58842206,0.0312090192462358,0.0312538649098557,0.0399360100426285
647,6.47,-0.012446919,0.8110022,0.58842206,-0.01160644,0.002443461,0.029932396
648,6.48,-0.012446919,0.8110022,0.58842206,-0.01160644,0.002443461,0.029932396
649,6.49,-0.012446919,0.8110022,0.58842206,-0.023368794790023,-0.0650811723121153,0.0220908261399846
650,6.5,-0.012446919,0.8110022,0.58842206,-0.028099801,-0.092240654,0.018936822
651,6.51,-0.012446919,0.8110022,0.58842206,-0.028099801,-0.092240654,0.018936822
652,6.52,-0.012446919,0.8110022,0.58842206,-0.028099801,-0.092240654,0.018936822
653,6.53,-0.0109628426693435,0.8107282154500204,0.5927144634113198,-0.028099801,-0.092240654,0.018936822
654,6.54,0.0033496327049301,0.8080859004669492,0.6341105269775303,-0.028099801,-0.092240654,0.018936822
655,6.55,0.0034168016,0.8080735,0.6343048,-0.0319769993579078,-0.1237428864927433,0.0431693113402329
656,6.56,0.0034168016,0.8080735,0.6343048,-0.032986723,-0.13194689,0.049480084
657,6.57,0.0034168016,0.8080735,0.6343048,-0.032986723,-0.13194689,0.049480084
658,6.58,0.0034168016,0.8080735,0.6343048,-0.032986723,-0.13194689,0.049480084
659,6.59,0.0034168016,0.8080735,0.6343048,-0.032986723,-0.13194689,0.049480084
660,6.6,0.0034168016,0.8080735,0.6343048,-0.032986723,-0.13194689,0.049480084
661,6.61,0.0367644482545983,0.8218932660521857,0.6128241000951089,0.0271702398360326,-0.0014814739219332,0.0415844819238048
662,6.62,0.05759751,0.8305268,0.5994046,0.064751714,0.08002335,0.036651913
663,6.63,0.05759751,0.8305268,0.5994046,0.064751714,0.08002335,0.036651913
664,6.64,0.05759751,0.8305268,0.5994046,0.064751714,0.08002335,0.036651913
665,6.65,0.0523176616251845,0.8292068451584846,0.5940647521804727,0.064751714,0.08002335,0.036651913
666,6.66,0.0180773110192777,0.8206468045381834,0.5594352991085005,0.064751714,0.08002335,0.036651913
667,6.67,0.014643434,0.81978834,0.5559624,0.046047629228317,0.0370545038545798,0.0472677456355184
668,6.68,0.014643434,0.81978834,0.5559624,0.0421497,0.028099801,0.049480084
669,6.69,0.014643434,0.81978834,0.5559624,0.0590793802966578,0.0748257227204869,0.0078330680313663
670,6.7,0.014643434,0.81978834,0.5559624,0.07269296,0.112399206,-0.02565634
671,6.71,0.014643434,0.81978834,0.5559624,0.07269296,0.112399206,-0.02565634
672,6.72,0.0117242783343061,0.8157244111745663,0.5671811118228487,0.07269296,0.112399206,-0.02565634
673,6.73,0.0021400949372414,0.802468309798293,0.6032495205059987,0.07269296,0.112399206,-0.02565634
674,6.74,0.0006628443019477,0.8026793393392158,0.5888991658440602,0.07269296,0.112399206,-0.02565634
675,6.75,-0.0005420626108545,0.808198555509055,0.5849697103332826,0.07269296,0.112399206,-0.02565634
676,6.76,-0.00097622897,0.8105141,0.584029,0.07269296,0.112399206,-0.02565634
677,6.77,-0.00097622897,0.8105141,0.584029,0.07269296,0.112399206,-0.02565634
678,6.78,-0.00097622897,0.8105141,0.584029,0.07269296,0.112399206,-0.02565634
679,6.79,-0.00097622897,0.8105141,0.584029,0.07269296,0.112399206,-0.02565634
680,6.8,-0.00097622897,0.8105141,0.584029,0.07269296,0.112399206,-0.02565634
681,6.81,-0.00097622897,0.8105141,0.584029,0.07269296,0.112399206,-0.02565634
682,6.82,-0.00097622897,0.8105141,0.584029,0.0233444679566048,0.0749503484829499,-0.0085068631395807
683,6.83,-0.00097622897,0.8105141,0.584029,-0.013439035,0.047036625,0.004276057
684,6.84,-0.00097622897,0.8105141,0.584029,-0.013439035,0.047036625,0.004276057
685,6.85,-0.00097622897,0.8105141,0.584029,-0.013439035,0.047036625,0.004276057
686,6.86,-0.00097622897,0.8105141,0.584029,-0.013439035,0.047036625,0.004276057
687,6.87,-0.00097622897,0.8105141,0.584029,-0.013439035,0.047036625,0.004276057
688,6.88,-0.00097622897,0.8105141,0.584029,-0.013439035,0.047036625,0.004276057
689,6.89,-0.00097622897,0.8105141,0.584029,-0.0105133454892151,0.0388754905257032,0.002120285553333
690,6.9,-0.00097622897,0.8105141,0.584029,-0.0018325958,0.014660766,-0.004276057
691,6.91,-0.00097622897,0.8105141,0.584029,-0.0018325958,0.014660766,-0.004276057
692,6.92,-0.00097622897,0.8105141,0.584029,-0.0018325958,0.014660766,-0.004276057
693,6.93,-0.00097622897,0.8105141,0.584029,-0.0018325958,0.014660766,-0.004276057
694,6.94,-0.00097622897,0.8105141,0.584029,-0.0018325958,0.014660766,-0.004276057
695,6.95,-0.00097622897,0.8105141,0.584029,-0.0018325958,0.014660766,-0.004276057
696,6.96,-0.00097622897,0.8105141,0.584029,-0.0018325958,0.014660766,-0.004276057
697,6.97,-0.0036267455780314,0.8025625828176687,0.5815441534258866,-0.0018325958,0.014660766,-0.004276057
698,6.98,-0.004881145,0.7987994,0.58036816,-0.0018325958,0.014660766,-0.004276057
699,6.99,-0.004881145,0.7987994,0.58036816,-0.0018325958,0.014660766,-0.004276057
700,7.0,-0.004881145,0.7987994,0.58036816,-0.0018325958,0.014660766,-0.004276057
701,7.01,-0.004881145,0.7987994,0.58036816,-0.0018325958,0.014660766,-0.004276057
702,7.02,-0.004881145,0.7987994,0.58036816,-0.0018325958,0.014660766,-0.004276057
703,7.03,-0.004881145,0.7987994,0.58036816,-0.0018325958,0.014660766,-0.004276057
704,7.04,-0.004881145,0.7987994,0.58036816,-0.0018325958,0.014660766,-0.004276057
705,7.05,-0.004881145,0.7987994,0.58036816,0.0158635431620453,0.0155682599324442,-0.007906033472571
706,7.06,0.0022038361444056,0.807327580064274,0.5841730465393593,0.021991149,0.015882496,-0.009162978
707,7.07,0.008297946,0.81466305,0.5874458,0.0207708854228803,0.0087642930208896,0.0067004458390915
708,7.08,0.0089331056245562,0.8126238592077183,0.580927058719653,0.018325957,-0.005497787,0.03848451
709,7.09,0.0128180819037947,0.8001510766967224,0.5410549474179739,0.018325957,-0.005497787,0.03848451
710,7.1,0.012935034,0.7997756,0.53985465,0.018325957,-0.005497787,0.03848451
711,7.11,0.012935034,0.7997756,0.53985465,0.018325957,-0.005497787,0.03848451
712,7.12,0.0157391458415638,0.8095232368041753,0.5649581166526405,0.018325957,-0.005497787,0.03848451
713,7.13,0.02089609346381,0.8192722879289599,0.5715581284398735,0.018325957,-0.005497787,0.03848451
714,7.14,0.024649782,0.82149667,0.5527897,0.018325957,-0.005497787,0.03848451
715,7.15,0.0301533928072195,0.8233216976388222,0.5574378236756747,0.018325957,-0.005497787,0.03848451
716,7.16,0.0677210405355634,0.835779336420225,0.5891659161884049,0.018325957,-0.005497787,0.03848451
717,7.17,0.07175283,0.8371163,0.592571,0.018325957,-0.005497787,0.03848451
718,7.18,0.07175283,0.8371163,0.592571,0.0326664730604305,0.0084653447990563,0.0362202192585384
719,7.19,0.07175283,0.8371163,0.592571,0.04153884,0.017104227,0.03481932
720,7.2,0.07175283,0.8371163,0.592571,0.04153884,0.017104227,0.03481932
721,7.21,0.07175283,0.8371163,0.592571,0.040899402670317,0.0178350119642074,0.0341798829693948
722,7.22,0.07175283,0.8371163,0.592571,0.0375861876473657,0.0216215405410728,0.0308666694961014
723,7.23,0.07175283,0.8371163,0.592571,0.03726278,0.021991149,0.030543262
724,7.24,0.07175283,0.8371163,0.592571,0.03726278,0.021991149,0.030543262
725,7.25,0.07175283,0.8371163,0.592571,0.03726278,0.021991149,0.030543262
726,7.26,0.07175283,0.8371163,0.592571,0.03726278,0.021991149,0.030543262
727,7.27,0.07175283,0.8371163,0.592571,0.0231339573957802,0.0186448486852826,0.0329600342635377
728,7.28,0.0602134544069581,0.8325476536464029,0.5890385368037573,-0.009162978,0.010995574,0.03848451
729,7.29,0.0121317216167751,0.813511230798796,0.5743196336773773,-0.009162978,0.010995574,0.03848451
730,7.3,0.011958805,0.81344277,0.5742667,-0.009162978,0.010995574,0.03848451
731,7.31,0.0053641700888615,0.8121560435834383,0.5681545831124217,-0.009162978,0.010995574,0.03848451
732,7.32,0.0019524579,0.81149036,0.5649925,-0.009162978,0.010995574,0.03848451
733,7.33,0.0019524579,0.81149036,0.5649925,-0.009162978,0.010995574,0.03848451
734,7.34,0.0019524579,0.81149036,0.5649925,-0.009162978,0.010995574,0.03848451
735,7.35,0.0088614128123889,0.8149448544550518,0.5723664927212535,-0.0104931958864589,0.008002584504016,0.0215242358264915
736,7.36,0.027334413,0.8241814,0.5920829,-0.00540601492264,0.000657687046004,-0.017058963504697
737,7.37,0.027334413,0.8241814,0.5920829,0.0371347198315016,0.003894482386074,0.0162337858611727
738,7.38,0.027334413,0.8241814,0.5920829,0.0421497,0.004276057,0.020158553
739,7.39,0.027334413,0.8241814,0.5920829,0.0421497,0.004276057,0.020158553
740,7.4,0.027334413,0.8241814,0.5920829,0.0421497,0.004276057,0.020158553
741,7.41,0.027334413,0.8241814,0.5920829,0.0421497,0.004276057,0.020158553
742,7.42,0.027334413,0.8241814,0.5920829,0.0421497,0.004276057,0.020158553
743,7.43,0.027334413,0.8241814,0.5920829,0.0421497,0.004276057,0.020158553
744,7.44,0.027334413,0.8241814,0.5920829,0.0421497,0.004276057,0.020158553
745,7.45,0.027334413,0.8241814,0.5920829,0.0421497,0.004276057,0.020158553
746,7.46,0.027334413,0.8241814,0.5920829,0.0310557793597357,-0.000363218994165,0.0197551378540812
747,7.47,0.027334413,0.8241814,0.5920829,-0.0239142799882766,-0.0233506988040968,0.0177562273487586
748,7.48,0.027334413,0.8241814,0.5920829,-0.025045475,-0.023823744,0.017715093
749,7.49,0.027334413,0.8241814,0.5920829,-0.025045475,-0.023823744,0.017715093
750,7.5,0.027334413,0.8241814,0.5920829,-0.025045475,-0.023823744,0.017715093
751,7.51,0.027334413,0.8241814,0.5920829,-0.025045475,-0.023823744,0.017715093
752,7.52,0.027334413,0.8241814,0.5920829,-0.025045475,-0.023823744,0.017715093
753,7.53,0.0256069635960703,0.8230657372668624,0.5918309760143309,-0.025045475,-0.023823744,0.017715093
754,7.54,0.0164668875726232,0.8171626745350645,0.5904980256101641,-0.025045475,-0.023823744,0.017715093
755,7.55,0.0156196635,0.8166155,0.59037447,-0.025045475,-0.023823744,0.017715093
756,7.56,0.0156196635,0.8166155,0.59037447,-0.025045475,-0.023823744,0.017715093
757,7.57,0.0156196635,0.8166155,0.59037447,-0.025045475,-0.023823744,0.017715093
758,7.58,0.0190786452940627,0.8161831401475493,0.5950224801421302,-0.0120589422719256,-0.0151660559575179,0.0109512735386189
759,7.59,0.023429496,0.8156393,0.60086894,0.004276057,-0.004276057,0.002443461
760,7.6,0.023429496,0.8156393,0.60086894,0.004276057,-0.004276057,0.002443461
761,7.61,0.023429496,0.8156393,0.60086894,0.004276057,-0.004276057,0.002443461
762,7.62,0.0173908819152679,0.816028876367944,0.5772988593870693,0.004276057,-0.004276057,0.002443461
763,7.63,0.01586372,0.8161274,0.571338,0.004276057,-0.004276057,0.002443461
764,7.64,0.01586372,0.8161274,0.571338,0.004276057,-0.004276057,0.002443461
765,7.65,0.01586372,0.8161274,0.571338,0.0178624237200954,0.0098843829210769,0.0009126026809521
766,7.66,0.01586372,0.8161274,0.571338,0.047647487,0.040927973,-0.002443461
767,7.67,0.01586372,0.8161274,0.571338,0.047647487,0.040927973,-0.002443461
768,7.68,0.01586372,0.8161274,0.571338,0.047647487,0.040927973,-0.002443461
769,7.69,0.0123305225951588,0.8139767837438916,0.5533647733149832,0.04457150515026,0.0397744787835213,-0.0028279587784248
770,7.7,0.0102504045,0.81271064,0.5427833,0.042760566,0.039095376,-0.0030543262
771,7.71,0.0102504045,0.81271064,0.5427833,0.042760566,0.039095376,-0.0030543262
772,7.72,0.0102504045,0.81271064,0.5427833,0.042760566,0.039095376,-0.0030543262
773,7.73,0.0102504045,0.81271064,0.5427833,0.042760566,0.039095376,-0.0030543262
774,7.74,0.0102504045,0.81271064,0.5427833,0.042760566,0.039095376,-0.0030543262
775,7.75,0.01145264006947,0.8142563466403357,0.5482792326244232,0.042760566,0.039095376,-0.0030543262
776,7.76,0.013667206,0.8171036,0.55840296,0.042760566,0.039095376,-0.0030543262
777,7.77,0.013667206,0.8171036,0.55840296,0.042760566,0.039095376,-0.0030543262
778,7.78,0.013667206,0.8171036,0.55840296,0.042760566,0.039095376,-0.0030543262
779,7.79,0.013667206,0.8171036,0.55840296,0.042760566,0.039095376,-0.0030543262
780,7.8,0.013667206,0.8171036,0.55840296,0.042760566,0.039095376,-0.0030543262
781,7.81,0.013667206,0.8171036,0.55840296,0.0367663187952531,0.039325923504906,-0.003284874233283
782,7.82,0.013667206,0.8171036,0.55840296,0.02687807,0.03970624,-0.0036651916
783,7.83,0.013667206,0.8171036,0.55840296,0.02687807,0.03970624,-0.0036651916
784,7.84,0.013667206,0.8171036,0.55840296,0.02687807,0.03970624,-0.0036651916
785,7.85,0.013667206,0.8171036,0.55840296,0.0061763999155645,0.0142533675801606,0.0048190996695789
786,7.86,0.013667206,0.8171036,0.55840296,-0.01038471,-0.0061086523,0.01160644
787,7.87,0.013667206,0.8171036,0.55840296,-0.01038471,-0.0061086523,0.01160644
788,7.88,0.013667206,0.8171036,0.55840296,-0.01038471,-0.0061086523,0.01160644
789,7.89,0.013667206,0.8171036,0.55840296,-0.01038471,-0.0061086523,0.01160644
790,7.9,0.013667206,0.8171036,0.55840296,-0.01038471,-0.0061086523,0.01160644
791,7.91,0.0126171001099121,0.8162868703631022,0.5532691174809604,-0.01038471,-0.0061086523,0.01160644
792,7.92,0.011470691,0.81539524,0.54766446,-0.01038471,-0.0061086523,0.01160644
793,7.93,0.011470691,0.81539524,0.54766446,-0.01038471,-0.0061086523,0.01160644
794,7.94,0.011470691,0.81539524,0.54766446,-0.01038471,-0.0061086523,0.01160644
795,7.95,0.011470691,0.81539524,0.54766446,-0.01038471,-0.0061086523,0.01160644
796,7.96,0.011470691,0.81539524,0.54766446,-0.01038471,-0.0061086523,0.01160644
797,7.97,0.011470691,0.81539524,0.54766446,-0.01038471,-0.0061086523,0.01160644
798,7.98,0.011470691,0.81539524,0.54766446,-0.01038471,-0.0061086523,0.01160644
799,7.99,0.011470691,0.81539524,0.54766446,-0.01038471,-0.0061086523,0.01160644
800,8.0,0.011470691,0.81539524,0.54766446,-0.01038471,-0.0061086523,0.01160644
801,8.01,0.011470691,0.81539524,0.54766446,-0.01038471,-0.0061086523,0.01160644
802,8.02,0.011470691,0.81539524,0.54766446,-0.008667832922279,-0.0009580223918179,0.0106253672006123
803,8.03,0.011470691,0.81539524,0.54766446,-0.0061086523,0.0067195175,0.009162978
804,8.04,0.011470691,0.81539524,0.54766446,-0.0061086523,0.0067195175,0.009162978
805,8.05,0.011470691,0.81539524,0.54766446,-0.0061086523,0.0067195175,0.009162978
806,8.06,0.011470691,0.81539524,0.54766446,0.0254002456059948,0.0053495656056425,0.0055097731975627
807,8.07,0.011470691,0.81539524,0.54766446,0.03604105,0.004886922,0.004276057
808,8.08,0.0076176314938914,0.8138719496529984,0.5564458620292073,0.03604105,0.004886922,0.004276057
809,8.09,0.00097622897,0.8112463,0.5715821,0.0339291922024318,0.002775064352743,0.0024396589478344
810,8.1,0.00097622897,0.8112463,0.5715821,0.0233645532702155,-0.0077895738275363,-0.0067469834384543
811,8.11,0.00097622897,0.8112463,0.5715821,0.021991149,-0.009162978,-0.007941248
812,8.12,0.00097622897,0.8112463,0.5715821,0.0173978020212905,0.0157723321751912,-0.0056445748329057
813,8.13,0.0050073946498698,0.8118362252878161,0.5640113773681279,0.013439035,0.03726278,-0.0036651916
814,8.14,0.010982576,0.81271064,0.5527897,0.013439035,0.03726278,-0.0036651916
815,8.15,0.010982576,0.81271064,0.5527897,0.013439035,0.03726278,-0.0036651916
816,8.16,0.010982576,0.81271064,0.5527897,0.013439035,0.03726278,-0.0036651916
817,8.17,0.010982576,0.81271064,0.5527897,0.013439035,0.03726278,-0.0036651916
818,8.18,0.010982576,0.81271064,0.5527897,0.013439035,0.03726278,-0.0036651916
819,8.19,0.010982576,0.81271064,0.5527897,0.013439035,0.03726278,-0.0036651916
820,8.2,0.010982576,0.81271064,0.5527897,0.013439035,0.03726278,-0.0036651916
821,8.21,0.010982576,0.81271064,0.5527897,0.0155530785461564,0.0314972067495029,-0.0071245354244532
822,8.22,0.0121340139898127,0.8119577646459883,0.5504868200283047,0.020158553,0.018936822,-0.014660766
823,8.23,0.0172241721351749,0.8086295310376038,0.5403064860898499,0.020158553,0.018936822,-0.014660766
824,8.24,0.017328065,0.8085616,0.5400987,0.020158553,0.018936822,-0.014660766
825,8.25,0.017328065,0.8085616,0.5400987,0.0132413287516611,0.0203202685104697,-0.0128161729174369
826,8.26,0.017328065,0.8085616,0.5400987,0.010995574,0.02076942,-0.012217305
827,8.27,0.017328065,0.8085616,0.5400987,0.010995574,0.02076942,-0.012217305
828,8.28,0.017328065,0.8085616,0.5400987,0.010995574,0.02076942,-0.012217305
829,8.29,0.017328065,0.8085616,0.5400987,0.010995574,0.02076942,-0.012217305
830,8.3,0.017328065,0.8085616,0.5400987,0.010995574,0.02076942,-0.012217305
831,8.31,0.017328065,0.8085616,0.5400987,0.010995574,0.02076942,-0.012217305
832,8.32,0.017328065,0.8085616,0.5400987,0.010995574,0.02076942,-0.012217305
833,8.33,0.017328065,0.8085616,0.5400987,0.010995574,0.02076942,-0.012217305
834,8.34,0.0177486318073846,0.8123467311357737,0.5527156697569481,0.010995574,0.02076942,-0.012217305
835,8.35,0.018060237,0.8151512,0.5620638,0.010995574,0.02076942,-0.012217305
836,8.36,0.018060237,0.8151512,0.5620638,0.010995574,0.02076942,-0.012217305
837,8.37,0.018060237,0.8151512,0.5620638,0.010995574,0.02076942,-0.012217305
838,8.38,0.018060237,0.8151512,0.5620638,0.010995574,0.02076942,-0.012217305
839,8.39,0.018060237,0.8151512,0.5620638,0.010995574,0.02076942,-0.012217305
840,8.4,0.018060237,0.8151512,0.5620638,0.0028063460674722,-0.0045781916353016,0.0026012981261595
841,8.41,0.018060237,0.8151512,0.5620638,-0.02505047816326,-0.03192777965284,0.0176292549079203
842,8.42,0.018060237,0.8151512,0.5620638,-0.053145275,-0.047647487,0.02565634
843,8.43,0.018060237,0.8151512,0.5620638,-0.053145275,-0.047647487,0.02565634
844,8.44,0.018060237,0.8151512,0.5620638,-0.053145275,-0.047647487,0.02565634
845,8.45,0.018060237,0.8151512,0.5620638,-0.053145275,-0.047647487,0.02565634
846,8.46,0.0127460214039334,0.8144217854267403,0.548830375301486,-0.053145275,-0.047647487,0.02565634
847,8.47,0.0056133163,0.81344277,0.53106856,-0.053145275,-0.047647487,0.02565634
848,8.48,0.0060539601711061,0.8135180038282932,0.5319767154857203,-0.053145275,-0.047647487,0.02565634
849,8.49,0.0226756087713015,0.8163559197480079,0.5662334982252364,-0.053145275,-0.047647487,0.02565634
850,8.5,0.025626011,0.81685966,0.5723142,-0.0092784371064264,0.0181527685347059,0.0081096047772878
851,8.51,0.025626011,0.81685966,0.5723142,0.014049901,0.053145275,-0.0012217305
852,8.52,0.025626011,0.81685966,0.5723142,0.014049901,0.053145275,-0.0012217305
853,8.53,0.025626011,0.81685966,0.5723142,0.014049901,0.053145275,-0.0012217305
854,8.54,0.025626011,0.81685966,0.5723142,0.014049901,0.053145275,-0.0012217305
855,8.55,0.465143478220956,0.4093903135411582,1.0107266309423175,1.0426221311178996,2.541001746031298,-1.0499465098234269
856,8.56,0.7050814,0.18694785,1.2500613,1.6041322,3.8991528,-1.6224581
857,8.57,0.7050814,0.18694785,1.2500613,1.6041322,3.8991528,-1.6224581
858,8.58,0.7050814,0.18694785,1.2500613,1.6041322,3.8991528,-1.6224581
859,8.59,0.7050814,0.18694785,1.2500613,1.6041322,3.8991528,-1.6224581
860,8.6,0.7050814,0.18694785,1.2500613,1.6041322,3.8991528,-1.6224581
861,8.61,0.7050814,0.18694785,1.2500613,1.6041322,3.8991528,-1.6224581
862,8.62,0.7050814,0.18694785,1.2500613,1.6041322,3.8991528,-1.6224581
863,8.63,0.6990380969354837,0.1922911158660495,1.2441308380960625,1.6041322,3.8991528,-1.6224581
864,8.64,0.1075266105050186,0.7152837741985192,0.6636641134311131,1.6041322,3.8991528,-1.6224581
865,8.65,-0.00073217176,0.8110022,0.55742675,1.6041322,3.8991528,-1.6224581
866,8.66,-0.00073217176,0.8110022,0.55742675,1.6041322,3.8991528,-1.6224581
867,8.67,-0.00073217176,0.8110022,0.55742675,1.6041322,3.8991528,-1.6224581
868,8.68,-0.00073217176,0.8110022,0.55742675,1.6041322,3.8991528,-1.6224581
869,8.69,-0.00073217176,0.8110022,0.55742675,1.6041322,3.8991528,-1.6224581
870,8.7,-0.00073217176,0.8110022,0.55742675,1.6041322,3.8991528,-1.6224581
871,8.71,0.0025133393018711,0.8123731514387228,0.5569511174363053,1.6041322,3.8991528,-1.6224581
872,8.72,0.0250701262735919,0.8219014688476963,0.5536454000280003,1.6041322,3.8991528,-1.6224581
873,8.73,0.02757847,0.82296103,0.5532778,1.6041322,3.8991528,-1.6224581
874,8.74,0.02757847,0.82296103,0.5532778,1.6041322,3.8991528,-1.6224581
875,8.75,0.02757847,0.82296103,0.5532778,1.6041322,3.8991528,-1.6224581
876,8.76,0.02757847,0.82296103,0.5532778,1.6041322,3.8991528,-1.6224581
877,8.77,0.02757847,0.82296103,0.5532778,1.6041322,3.8991528,-1.6224581
878,8.78,0.02757847,0.82296103,0.5532778,0.3751718696824037,0.870219435472332,-0.3692701475289108
879,8.79,0.02757847,0.82296103,0.5532778,-0.0099673540828586,-0.0767499089230234,0.02497559467748
880,8.8,0.02757847,0.82296103,0.5532778,-0.032986723,-0.13194689,0.049480084
881,8.81,0.02757847,0.82296103,0.5532778,-0.032986723,-0.13194689,0.049480084
882,8.82,0.02757847,0.82296103,0.5532778,-0.032986723,-0.13194689,0.049480084
883,8.83,0.0222425334348834,0.8237232917046924,0.5753838267052664,0.01518893354569,-0.034164619345128,0.0208608827565411
884,8.84,0.0221423671017764,0.8225397411886701,0.5741816610636313,0.028710667,-0.0067195175,0.01282817
885,8.85,0.02318544,0.82149667,0.56865335,0.028710667,-0.0067195175,0.01282817
886,8.86,0.02318544,0.82149667,0.56865335,0.0265113630722242,-0.0014045339579568,0.004580781470944
887,8.87,0.02318544,0.82149667,0.56865335,0.021380283,0.010995574,-0.014660766
888,8.88,0.02318544,0.82149667,0.56865335,0.021380283,0.010995574,-0.014660766
889,8.89,0.02318544,0.82149667,0.56865335,-0.0225682437560003,-0.0063794246971311,0.0062914394430716
890,8.9,0.02318544,0.82149667,0.56865335,-0.031154128,-0.009773844,0.01038471
891,8.91,0.02318544,0.82149667,0.56865335,-0.031154128,-0.009773844,0.01038471
892,8.92,0.02318544,0.82149667,0.56865335,-0.0061249929616103,-0.0033775093182028,0.0006511572827336
893,8.93,0.02318544,0.82149667,0.56865335,0.023823744,0.004276057,-0.010995574
894,8.94,0.02318544,0.82149667,0.56865335,0.021961570769173,0.0019060182888376,-0.0093591187368259
895,8.95,0.02318544,0.82149667,0.56865335,0.0036651916,-0.021380283,0.0067195175
896,8.96,0.02318544,0.82149667,0.56865335,0.0036651916,-0.021380283,0.0067195175
897,8.97,0.02318544,0.82149667,0.56865335,0.0036651916,-0.021380283,0.0067195175
898,8.98,0.02318544,0.82149667,0.56865335,0.0089816614707913,-0.0137853259529187,0.0082385085985884
899,8.99,0.02318544,0.82149667,0.56865335,0.0243565929484716,-0.0088668984090417,0.0257434680525732
900,9.0,0.0196791976530644,0.8199573305199307,0.5655747025760202,0.03726278,-0.008552114,0.04337143
901,9.01,0.013179091,0.8171036,0.5598673,0.03726278,-0.008552114,0.04337143
902,9.02,0.013179091,0.8171036,0.5598673,0.03726278,-0.008552114,0.04337143
903,9.03,0.013179091,0.8171036,0.5598673,0.03726278,-0.008552114,0.04337143
904,9.04,0.013179091,0.8171036,0.5598673,0.03726278,-0.008552114,0.04337143
905,9.05,0.013179091,0.8171036,0.5598673,0.03726278,-0.008552114,0.04337143
906,9.06,0.013179091,0.8171036,0.5598673,0.03726278,-0.008552114,0.04337143
907,9.07,0.013179091,0.8171036,0.5598673,0.03726278,-0.008552114,0.04337143
908,9.08,0.013179091,0.8171036,0.5598673,0.0337225916912878,-0.0066458586453979,0.0382653894766124
909,9.09,0.013179091,0.8171036,0.5598673,0.0086672015267614,0.0068455060781207,0.0021278096776731
910,9.1,0.013179091,0.8171036,0.5598673,0.005497787,0.008552114,-0.002443461
911,9.11,0.0145555042241422,0.8149407146550195,0.5579010149604248,0.005497787,0.008552114,-0.002443461
912,9.12,0.014887493,0.81441903,0.55742675,0.005497787,0.008552114,-0.002443461
913,9.13,0.014887493,0.81441903,0.55742675,0.005497787,0.008552114,-0.002443461
914,9.14,0.012019794356769,0.8127539151233935,0.5590918724573191,0.005497787,0.008552114,-0.002443461
915,9.15,-0.0049484854933801,0.8384640112419608,0.583328736872386,0.005497787,0.008552114,-0.002443461
916,9.16,-0.0310095974396922,0.898933133245496,0.6165329638183142,0.0033197711264561,0.0066160997625309,-0.0013141194109966
917,9.17,-0.0129924395193104,0.857567234718871,0.5137616306205219,-0.0091046923186026,-0.0044278684723788,0.0051281951102128
918,9.18,-0.0102504045,0.85127175,0.49812084,0.0037435178752218,0.0067880525630142,0.0019632828608952
919,9.19,-0.0102504045,0.85127175,0.49812084,0.008552114,0.010995574,0.00061086525
920,9.2,-0.0102504045,0.85127175,0.49812084,-0.6471604574189583,-1.5107567299710634,0.1703247024390808
921,9.21,-0.0102504045,0.85127175,0.49812084,-1.7568485,-4.0860777,0.45753807
922,9.22,-0.0102504045,0.85127175,0.49812084,-1.7568485,-4.0860777,0.45753807
923,9.23,-0.0102504045,0.85127175,0.49812084,-1.7568485,-4.0860777,0.45753807
924,9.24,-0.0102504045,0.85127175,0.49812084,-1.7568485,-4.0860777,0.45753807
925,9.25,-0.0102504045,0.85127175,0.49812084,-1.7568485,-4.0860777,0.45753807
926,9.26,-0.0102504045,0.85127175,0.49812084,-1.7568485,-4.0860777,0.45753807
927,9.27,-0.0102504045,0.85127175,0.49812084,-1.2348928389932523,-2.867078838887166,0.3294834809079321
928,9.28,-0.0102504045,0.85127175,0.49812084,-0.0209905390122896,-0.0305508232761917,0.0333239669078705
929,9.29,-0.0102504045,0.85127175,0.49812084,-0.018936822,-0.017715093,0.04153884
930,9.3,-0.0102504045,0.85127175,0.49812084,-0.018936822,-0.017715093,0.04153884
931,9.31,-0.0102504045,0.85127175,0.49812084,-0.0057457313173757,-0.0109412889272424,0.011234979966318
932,9.32,-0.0102504045,0.85127175,0.49812084,-0.0017723968278995,0.0001445738847016,-0.0114722271870985
933,9.33,-0.0007657898366095,0.841555779020308,0.516858736864952,-0.008552114,0.007941248,-0.01282817
934,9.34,0.019768637,0.82052046,0.55742675,-0.008552114,0.007941248,-0.01282817
935,9.35,0.019768637,0.82052046,0.55742675,-0.008552114,0.007941248,-0.01282817
936,9.36,0.019768637,0.82052046,0.55742675,-0.008552114,0.007941248,-0.01282817
937,9.37,0.015987487950065,0.816217767862969,0.5632940356044338,-0.008552114,0.007941248,-0.01282817
938,9.38,0.012690976,0.81246656,0.5684093,-0.008552114,0.007941248,-0.01282817
939,9.39,0.012690976,0.81246656,0.5684093,-0.008552114,0.007941248,-0.01282817
940,9.4,0.0129960116911488,0.8130461214889304,0.5682567855290267,-0.008552114,0.007941248,-0.01282817
941,9.41,0.01513155,0.8171036,0.56718904,-0.008552114,0.007941248,-0.01282817
942,9.42,0.01513155,0.8171036,0.56718904,-0.008552114,0.007941248,-0.01282817
943,9.43,0.0140633197518646,0.8119405328489736,0.5728862864705713,-0.008552114,0.007941248,-0.01282817
944,9.44,0.0199938432533288,0.8154104000599495,0.5706913865706176,-0.008552114,0.007941248,-0.01282817
945,9.45,0.025137896,0.81978834,0.56718904,-0.008552114,0.007941248,-0.01282817
946,9.46,0.025137896,0.81978834,0.56718904,-0.008552114,0.007941248,-0.01282817
947,9.47,0.025137896,0.81978834,0.56718904,-0.008552114,0.007941248,-0.01282817
948,9.48,0.0208703267959138,0.8191786802978697,0.5580442443876884,-0.008552114,0.007941248,-0.01282817
949,9.49,0.018304294,0.8188121,0.5525456,-0.008552114,0.007941248,-0.01282817
950,9.5,0.130270216254957,0.7017151637325735,0.6939690211554413,-0.008552114,0.007941248,-0.01282817
951,9.51,0.4649951739011761,0.351650909866428,1.1167579171254625,-0.008552114,0.007941248,-0.01282817
952,9.52,0.6147802,0.19500175,1.3059504,-0.008552114,0.007941248,-0.01282817
953,9.53,0.6147802,0.19500175,1.3059504,-0.008552114,0.007941248,-0.01282817
954,9.54,0.6147802,0.19500175,1.3059504,-0.008642459066932,0.0077605574963928,-0.0130992057923849
955,9.55,0.6147802,0.19500175,1.3059504,-0.0091291988071734,0.0067870760238966,-0.0145594282003306
956,9.56,0.6147802,0.19500175,1.3059504,-0.009162978,0.0067195175,-0.014660766
957,9.57,0.6147802,0.19500175,1.3059504,-0.0001582003826111,0.0040514352854597,-0.0083240703241695
958,9.58,0.6147802,0.19500175,1.3059504,0.007330383,0.0018325958,-0.0030543262
959,9.59,0.4149990552098637,0.4002086363480931,1.0639779222658563,0.007330383,0.0018325958,-0.0030543262
960,9.6,0.012690976,0.81344277,0.5767073,0.007330383,0.0018325958,-0.0030543262
961,9.61,0.012690976,0.81344277,0.5767073,0.007330383,0.0018325958,-0.0030543262
962,9.62,0.012690976,0.81344277,0.5767073,0.0130490389762815,0.0166057915365833,0.0112423135066646
963,9.63,0.012690976,0.81344277,0.5767073,0.014660766,0.02076942,0.015271631
964,9.64,0.012690976,0.81344277,0.5767073,0.014660766,0.02076942,0.015271631
965,9.65,0.2411037913404516,0.6065134053354856,0.8090262138405896,0.014660766,0.02076942,0.015271631
966,9.66,0.61209553,0.27041543,1.1863623,0.014660766,0.02076942,0.015271631
967,9.67,0.5735542604762748,0.3075044731367525,1.1461077173416898,0.014660766,0.02076942,0.015271631
968,9.68,0.0710056671177487,0.7911171482696986,0.6212188348227785,0.014660766,0.02076942,0.015271631
969,9.69,0.035632357,0.8251576,0.58427304,0.014660766,0.02076942,0.015271631
970,9.7,0.035632357,0.8251576,0.58427304,0.014660766,0.02076942,0.015271631
971,9.71,0.035632357,0.8251576,0.58427304,0.014660766,0.02076942,0.015271631
972,9.72,0.035632357,0.8251576,0.58427304,0.014660766,0.02076942,0.015271631
973,9.73,0.035632357,0.8251576,0.58427304,0.014660766,0.02076942,0.015271631
974,9.74,0.035632357,0.8251576,0.58427304,0.014660766,0.02076942,0.015271631
975,9.75,0.035632357,0.8251576,0.58427304,0.014660766,0.02076942,0.015271631
976,9.76,0.035632357,0.8251576,0.58427304,0.014660766,0.02076942,0.015271631
977,9.77,0.035632357,0.8251576,0.58427304,0.014660766,0.02076942,0.015271631
978,9.78,0.035632357,0.8251576,0.58427304,0.014660766,0.02076942,0.015271631
979,9.79,0.035632357,0.8251576,0.58427304,0.0139030865286526,0.0203959160111999,0.0151649155733807
980,9.8,0.035632357,0.8251576,0.58427304,-0.028460383096568,-0.0004874858530393,0.0091982292566866
981,9.81,0.0180194112277399,0.8174155895167677,0.5641439681808115,-0.028710667,-0.00061086525,0.009162978
982,9.82,0.0134231495,0.81539524,0.5588911,-0.028710667,-0.00061086525,0.009162978
983,9.83,0.0195083863103304,0.8184832755024739,0.5629781819511043,-0.028710667,-0.00061086525,0.009162978
984,9.84,0.0295190498378635,0.8232910135964887,0.572323306599464,-0.028710667,-0.00061086525,0.009162978
985,9.85,0.0281575264312793,0.8211514714637178,0.585355040766649,-0.028710667,-0.00061086525,0.009162978
986,9.86,0.028066583,0.82100856,0.5862255,-0.028710667,-0.00061086525,0.009162978
987,9.87,0.028066583,0.82100856,0.5862255,-0.0235186092728732,-0.0089181572450905,0.008470703938588
988,9.88,0.0237598128173028,0.8197780692562391,0.5799850655951945,-0.019547688,-0.015271631,0.007941248
989,9.89,0.016107777,0.8175918,0.5688974,-0.019547688,-0.015271631,0.007941248
990,9.9,0.016107777,0.8175918,0.5688974,-0.019547688,-0.015271631,0.007941248
991,9.91,0.016107777,0.8175918,0.5688974,-0.019547688,-0.015271631,0.007941248
992,9.92,0.0150374345339263,0.8160627205386449,0.5578881657121707,0.7814810611810707,-1.7141567693119284,-0.1087877345439601
993,9.93,0.014399378,0.8151512,0.5513253,1.2589933,-2.7269025,-0.17837265
994,9.94,0.014399378,0.8151512,0.5513253,1.2589933,-2.7269025,-0.17837265
995,9.95,0.0144584836516448,0.8152356376831199,0.5519332437071013,1.2589933,-2.7269025,-0.17837265
996,9.96,0.016107777,0.8175918,0.5688974,1.2323841361490646,-2.668541990809757,-0.1745973773636653
997,9.97,0.016107777,0.8175918,0.5688974,0.2401814906503629,-0.4923950086799563,-0.0338249908943174
998,9.98,0.0213093878107031,0.8197591264905545,0.5769888197228044,0.01038471,0.01160644,-0.0012217305
999,9.99,0.0241166188711289,0.8204754012185628,0.5762358343200772,0.01038471,0.01160644,-0.0012217305
