id,timestamp,acc_x,acc_y,acc_z,gyro_x,gyro_y,gyro_z
0,4.77e-07,-0.13601404,0.47386914,1.3578842,0.16752486375,-0.3752129,-0.28297498875
1,0.010000477,-0.14162412,0.38941297,1.5272537,0.4071297,0.09468132,-0.35749835
2,0.020000477,-0.19336495,0.42090872,1.4581948999999998,0.72599196,0.5430432,-0.35505497
3,0.030000477,-0.1267452,0.45142877,1.141652,0.9544488,1.450915,-0.29885703
4,0.040000477,-0.07305304,0.45508754,1.0772275,0.9666658,1.6219522000000002,-0.2854184
5,0.050000477,0.0028152058333333,0.4910652566666666,0.9926188833333331,0.9625934666666668,1.6209341166666666,-0.3383584666666666
6,0.060000477,0.0061196952142857,0.54778455,1.02504676,0.9499111142857144,1.1564865857142856,-0.5151842057142858
7,0.070000477,-0.0502947472428571,0.5479152928571429,1.1514652285714286,1.0237364,0.0699201985714285,-0.8555788714285715
8,0.080000477,-0.08744413,0.50682837,1.2873617,1.194308183333333,-0.9286914516666668,-1.181684016666667
9,0.090000477,-0.1495122014285714,0.4994890771428571,1.3180473428571429,1.428117285714286,-1.9415344285714284,-1.4622374285714286
10,0.100000477,-0.2147816942857142,0.5178307457142858,1.136124671428571,1.5810035714285713,-3.1164554571428575,-1.628736942857143
11,0.110000477,-0.1906426628571428,0.5335895114285714,0.7729763,1.6558759714285711,-3.843363628571428,-1.7971563
12,0.120000477,-0.014238636,0.47801572,0.47737542,1.8349414714285712,-2.772635642857143,-2.0662782428571433
13,0.130000477,0.09290177,0.3198662,0.30044436,2.1028416,-0.80082077,-2.1474335
14,0.140000477,0.1280518957142857,0.30418586,0.2502410742857143,2.117502085714286,-0.21754889,-2.1579053
15,0.150000477,0.1379755416666666,0.3168172449999999,0.3242211433333333,2.0556028333333334,0.93368003,-2.1262575333333333
16,0.160000477,-0.13040395,0.53926927,1.0152422,1.6752486,0.83518094,-1.7650431
17,0.170000477,-0.23656867,0.6014985,0.9984119,1.3417260000000002,-0.5662554,-1.3582189
18,0.180000477,-0.19995505,0.4979559,0.8567921257142856,1.2977449714285714,-1.2333006,-1.1644930428571427
19,0.190000477,-0.06646729,0.36258212,0.7443422,1.4621501428571428,-1.3381917714285714,-1.1761864285714283
20,0.200000477,-0.0010671355,0.3418492,0.7590077000000001,1.7192296,-1.2504044,-1.3679924
21,0.210000477,0.0215387117857142,0.3125530685714285,0.6857804428571429,1.8815404,-1.181291342857143,-1.5135486285714286
22,0.220000477,0.0594801004999999,0.2594714383333333,0.6703237,1.9920747,-1.07000075,-1.602965083333333
23,0.230000477,-0.0571157014285714,0.2213717985714285,0.7671528085714285,2.2216951285714286,-1.0657539714285715,-1.645666142857143
24,0.240000477,-0.1847276814285714,0.2954222971428571,0.8112974,2.553996042857143,-1.1128764285714283,-1.5758550571428571
25,0.250000477,-0.5028901283333334,1.0232965533333334,0.8743142666666666,2.6094376,-1.9646883333333336,-1.4380362333333334
26,0.260000477,-0.5391429714285715,1.1017019714285714,0.8422181599999999,2.5463167,-2.8640882142857147,-1.3503651142857145
27,0.270000477,-0.3576428333333333,0.6605669833333333,0.4191098233333333,2.4960236166666667,-4.21464255,-1.3704358
28,0.280000477,-0.27641421,0.5565917285714286,0.0643765781428571,2.280511014285714,-3.5772088,-1.3130162
29,0.290000477,-0.14650245,0.5902783,-0.019513333,1.8829367,-2.9106872,-1.2226108
30,0.300000477,-0.0701652471428571,0.6994658714285714,-0.0521546118571428,1.4242776714285714,-2.551509028571428,-1.2540257714285714
31,0.310000477,-0.0791916133333333,0.8748883833333334,-0.0258602483333333,0.6636855583333333,-2.031474333333333,-1.3376536
32,0.320000477,-0.1345810342857142,1.0002325285714286,0.0160549438571428,0.0755269016828571,-1.3509323142857144,-1.4046432285714283
33,0.330000477,-0.1740563214285714,1.0458057714285716,0.0198922754285714,-0.2227410823385714,-0.8088490714285715,-1.4048177285714287
34,0.340000477,-0.25998467,0.981978,0.17010139,-0.7333221416666666,0.6916063666666666,-1.2690351666666666
35,0.350000477,-0.2702988814285714,0.9094650685714286,0.3218349671428572,-1.0046255442857144,1.5947258428571427,-1.1765354428571428
36,0.360000477,-0.2896459733333333,0.6946035616666667,0.7317398583333333,-1.2786051,2.287164933333333,-1.1028846833333332
37,0.370000477,-0.3743685228571428,0.5372221571428571,0.9007755857142856,-1.3226151857142856,2.1633375,-1.0854320142857143
38,0.380000477,-0.6358298,0.58637565,1.580458,-1.1651912,1.1235008,-0.8487722999999999
39,0.390000477,-0.5169988228571428,0.5399356928571429,1.4432287428571429,-0.60199,-0.2107423099999999,-0.40758783
40,0.400000477,-0.40057215,0.5251221,1.1445789000000002,0.095597595,-0.663991,-0.023975754
41,0.410000477,-0.37980875,0.57296026,1.1726599,0.6728482408333334,-0.8706609416666667,0.1002298493333333
42,0.420000477,-0.42398816,0.62884766,1.2622079,1.4357965,-1.7060964,0.0310004989999999
43,0.430000477,-0.5045314683333333,0.7526861933333334,1.1731527333333334,1.7705408,-2.4134576,-0.1241547
44,0.440000477,-0.4693740728571428,0.7222023999999999,1.0434232,1.8166161142857145,-2.3087409142857145,0.0273354142857142
45,0.450000477,-0.3523986033333333,0.588327,1.036564533333333,1.9043163,-1.9290557,0.352917
46,0.460000477,-0.30416408,0.5324396,1.0555189,1.95746,-1.627908,0.564881
47,0.470000477,0.0428248005714285,0.602887962857143,0.8734089285714285,2.2464780285714285,-0.5419960542857143,0.7313804857142857
48,0.480000477,0.0381932833333333,0.6447784733333334,0.7883234,2.225418433333333,-0.2461714433333333,0.6703539333333333
49,0.490000477,-0.04985047,0.671777,0.7885216,2.099700228571429,-0.1175444685714285,0.5966450714285714
50,0.500000477,-0.18043736,0.6376287,0.8561169999999999,2.1065068,-0.13621894,0.7237013
51,0.510000477,-0.2555942,0.5902783000000001,0.9083457,2.281209,-0.44652936,0.9692619
52,0.520000477,-0.1100020657142857,0.6143215428571428,0.7947676371428571,2.507397171428571,-0.8172263657142859,1.0865445
53,0.530000477,0.053844605,0.66104466,0.57911915,2.7199502,-0.9816315,1.0841012
54,0.540000477,0.0870020258333333,0.6632805766666666,0.4575165083333333,2.6974252,-0.9989389166666666,1.0973362
55,0.550000477,0.1703278757142857,0.7528444342857143,0.3228933971428571,2.5058263714285713,-0.9018723657142856,1.0804361142857142
56,0.560000477,0.2487819385714285,0.9228064428571428,0.2336590999999999,2.122912357142857,-0.6632928828571429,0.9357525857142858
57,0.570000477,0.2238109685714285,0.9199230371428572,0.2658430485714286,1.7808379857142858,-0.4262841314285714,0.7748379428571429
58,0.580000477,0.13854466,0.85337293,0.38706526,1.6178289999999995,-0.204226595,0.7739944
59,0.590000477,0.0659446128571428,0.82867639,0.4795271114285714,1.594442271428571,0.0491295742857142,0.92824787
60,0.600000477,0.086969361,0.8946297228571429,0.5408939571428572,1.769319,0.18264332,1.0694408
61,0.610000477,-0.051070053,0.8611783000000001,0.5735091,2.061304,-0.114228435,1.0266815
62,0.620000477,-0.2322304418571428,0.8429629857142859,0.5069982428571429,2.344039171428572,-0.675509805,1.1607188428571429
63,0.630000477,0.0367297849999999,0.7976227666666666,0.5652514750000001,2.6396745666666668,-1.3106746333333334,1.3475799333333331
64,0.640000477,0.1778631642857142,0.8040843714285714,0.6105669928571429,2.9084400571428572,-1.7800962285714286,1.4064539857142857
65,0.650000477,0.4302733571428571,0.8717276571428572,0.8539174571428572,3.8854465857142855,-2.749249057142857,1.1078369714285714
66,0.660000477,0.3007884514285714,0.8665096428571429,0.8129219942857143,5.0551321428571425,-3.723637742857143,0.6345175857142857
67,0.670000477,0.05286894,0.8291946999999998,0.49225435,5.664234085714286,-4.429078857142857,0.4411407942857143
68,0.680000477,-0.0418012179999999,0.8016321700000001,0.25626495,6.047846,-5.03048,0.35597125
69,0.690000477,-0.07939488,0.7935829,0.094212815,6.208062285714286,-5.143574,0.2879054071428571
70,0.700000477,-0.10354263,0.75891626,-0.060033992,6.3532696,-4.97306,0.19104248
71,0.710000477,-0.1395457466666666,0.7147825433333334,-0.1838725153333333,6.397047183333332,-4.634930833333334,0.13810238
72,0.720000477,-0.27310391,0.6538709142857143,-0.2962934314285714,6.435123242857143,-4.284569828571429,0.0793446971428571
73,0.730000477,-0.4253035285714285,0.57575222,-0.4140267685714285,6.467061714285714,-4.158037085714286,0.0800428057142857
74,0.740000477,-0.5537314666666666,0.46882816,-0.5719541266666667,6.4941718,-4.140933666666666,0.11041064
75,0.750000477,-0.7137088857142857,0.3794907842857142,-0.7394116285714285,6.477009714285714,-4.148264,0.1674812228571428
76,0.760000477,-0.8835272,0.3638017199999999,-0.8866066,6.3528625000000005,-4.106522333333333,0.3162661666666667
77,0.770000477,-0.8788230571428571,0.3719903485714285,-0.9580829571428572,6.144185457142858,-4.030980928571429,0.4638293857142857
78,0.780000477,-0.8689966800000001,0.3869738057142857,-1.050048242857143,5.787101514285714,-3.7988592142857143,0.5835554485714285
79,0.790000477,-0.9404555514285714,0.4096493371428572,-1.1882227285714286,5.352527285714286,-3.501812885714286,0.6373100428571429
80,0.800000477,-1.0348469,0.39139476,-1.3009906,4.7052035,-3.087833,0.69438064
81,0.810000477,-1.0701277571428571,0.3940430114285714,-1.2215086,4.411298814285714,-2.860946714285714,0.7579087314285714
82,0.820000477,-1.1045563333333333,0.4013953666666667,-1.0846161666666667,3.9856255666666662,-2.4790216666666667,0.8935168333333333
83,0.830000477,-1.0827373857142857,0.3976669357142857,-1.0855773000000002,3.772003585714286,-2.2851795714285714,0.9793845142857144
84,0.840000477,-0.9901710314285712,0.3827052542857143,-1.1666316428571428,3.4302782,-2.006109742857143,1.0409928428571429
85,0.850000477,-0.8698678,0.37453404,-1.2822089,2.905822214285714,-1.568743042857143,1.007658
86,0.860000477,-0.77858204,0.43139714,-1.2668422,2.3887181,-1.179546,0.9240592
87,0.870000477,-0.7910914699999999,0.4300381685714285,-1.1268166471428571,2.0529265714285714,-0.9284005571428572,0.8151538485714286
88,0.880000477,-0.78443605,0.39505354,-0.99569833,1.8853800000000005,-0.8362499,0.7701257
89,0.890000477,-0.8202358916666667,0.4391872233333333,-0.9265632216666666,1.8130965,-0.7324058999999999,0.7008963333333335
90,0.900000477,-0.89279604,0.44432473,-0.83779275,1.7717625,-0.55770355,0.6418477000000001
91,0.910000477,-0.9645989733333332,0.4612210133333334,-0.8646490666666667,1.7727805,-0.3612143416666666,0.6520285333333334
92,0.920000477,-1.0275903742857142,0.4710466485714286,-0.9139470228571428,1.7618143285714285,-0.18648294,0.7203852714285714
93,0.930000477,-0.9879408571428572,0.4738342785714285,-0.9599645142857144,1.734064414285714,0.05698332,0.8465688542857144
94,0.940000477,-0.7809950285714286,0.5089757071428571,-0.9736238857142856,1.6370269857142858,0.5534276114285713,1.0057382257142855
95,0.950000477,-0.5594229,0.53731793,-0.933713,1.623413842857143,0.9105769342857144,1.0444833285714288
96,0.960000477,-0.4524552666666666,0.533455905,-0.9589431666666668,1.66567865,0.9204959333333332,0.95826665
97,0.970000477,-0.3607875885714286,0.5264113571428571,-0.9986950857142856,1.6989844142857142,0.7821244742857143,0.82073874
98,0.980000477,-0.3237514671428571,0.5324744571428571,-1.1297916285714285,1.6707109285714286,0.4814567171428571,0.59245638
99,0.990000477,-0.34346515,0.50536484,-1.2124183,1.4883293,0.3011477,0.39628717
100,1.000000477,-0.42593947,0.54024494,-1.2416883,1.2317735000000003,0.255945,0.24235365
101,1.010000477,-0.4912125783333333,0.5424808566666667,-1.26854455,0.9619826083333334,0.3699698333333333,0.1863593166666667
102,1.020000477,-0.5557249142857142,0.5075688057142858,-1.2525905142857143,0.6776477657142858,0.54297775,0.2039575285714285
103,1.030000477,-0.5826167214285715,0.4717087071428571,-1.132587871428571,0.4380211214285714,0.64407298,0.31059401
104,1.040000477,-0.5210539071428572,0.4618126642857142,-0.9098658142857142,0.4533795585714286,0.5242814714285714,0.4847727428571428
105,1.050000477,-0.22534852,0.4677712,-0.679186,0.8645670185714286,0.0986954628571428,0.7511021485714287
106,1.060000477,-0.1034714866666666,0.4689094933333333,-0.6819503733333333,1.26170505,-0.1211513683333333,0.6817563999999999
107,1.070000477,-0.0410694697142857,0.4669697485714286,-0.7864569942857144,1.5707065142857142,-0.2730487257142857,0.5289282714285715
108,1.080000477,-0.13747753,0.47850356,-0.99569833,1.8071916,-0.4770717,0.2936648
109,1.090000477,-0.18824269,0.51048714,-1.2043691,1.7045692285714285,-0.6132033857142858,0.1627689714285714
110,1.100000477,-0.1631279928571428,0.50105274,-1.3077027285714284,1.3942587857142856,-0.6201845142857143,0.0372834982857142
111,1.110000477,-0.1122931357142857,0.4227250142857143,-1.2640590285714286,0.7788739142857144,-0.3002750714285714,-0.1046075931428571
112,1.120000477,-0.13738607,0.3993627333333333,-1.2015131666666663,0.5573981466666668,-0.129296006,-0.14492352
113,1.130000477,-0.3005358114285714,0.3617240585714286,-1.04101888,0.2970026657142857,0.1873555797142856,-0.0527728457142857
114,1.140000477,-0.4288664857142857,0.3100834142857143,-0.752570032857143,0.1521446014285714,0.3721805028571428,0.1598019985714285
115,1.150000477,-0.37187275,0.2994817714285714,-0.4872888714285714,0.46577105,0.009162709,0.4695888199999999
116,1.160000477,-0.28806558,0.26739365,-0.33459267,0.98376954,-0.37811446,0.6113054
117,1.170000477,-0.2591875971428571,0.2521314414285714,-0.4280737585714286,1.39007022,-0.5906892657142857,0.6615693971428572
118,1.180000477,-0.24876453,0.2163845899999999,-0.62451816,1.7192296,-0.6297835,0.6992674
119,1.190000477,-0.2723431466666666,0.20337569,-0.7884251099999999,1.7546587,-0.36467582,0.7652389
120,1.200000477,-0.3053096385714285,0.21773483,-1.0266192428571428,1.5588385,0.0657097171428571,0.9285969057142855
121,1.210000477,-0.2411552,0.1970193428571428,-1.1961413428571428,1.1954716571428572,0.6593878257142857,1.2010347828571428
122,1.220000477,-0.0080928157142857,0.1919929114285714,-1.2566326285714289,0.8219822142857144,1.1142508714285717,1.4080247428571429
123,1.230000477,0.3859168133333333,0.1838521833333333,-1.2048569,0.09233975,1.7591892,1.6729579
124,1.240000477,0.7735730257142857,0.1698966814285714,-0.7318066371428572,-0.1391422785714285,1.5612165714285715,1.502095214285714
125,1.250000477,0.7586723599999999,0.24202631,-0.34386152,0.34482327,0.7374453500000001,1.1390774
126,1.260000477,0.6798785314285715,0.2214458528571428,-0.3271140414285714,0.8851613014285714,0.1613727585714285,0.9045120628571428
127,1.270000477,0.5053344,0.12756842,-0.4812476,1.4761124,-0.21929416,0.70904094
128,1.280000477,0.3770240333333333,0.053529545,-0.6073474333333334,1.8169652,-0.08490777,0.7212579
129,1.290000477,0.1413235814285714,-0.1396945557142857,-0.8766844285714287,1.875606457142857,0.1957329128571428,1.0249363285714286
130,1.300000477,0.0358339738571428,-0.1934999614285714,-0.9941258571428572,1.7963708571428572,0.4069115371428571,1.3300107714285712
131,1.310000477,0.0558177134285714,-0.1926331914285714,-1.0311576857142857,1.6796117714285717,0.4936518571428571,1.5301941428571428
132,1.320000477,0.34716746,-0.1363494237142857,-1.0484061142857144,1.1989622285714283,0.5517696099999999,1.8516743142857144
133,1.330000477,0.78233224,-0.09159071,-0.9590804,0.8725953,0.5945071,1.7658067
134,1.340000477,0.9715767314285716,-0.1187874185714285,-0.9062375771428572,0.8097652999999999,0.6206862642857143,1.4734726285714286
135,1.350000477,1.0673794,-0.18591024,-0.8915002050000002,0.7675295666666666,0.6075385099999999,1.0706625333333333
136,1.360000477,0.8271257885714285,-0.2885098528571428,-0.9155586785714286,0.7013835285714285,0.5705967714285715,0.7769322485714286
137,1.370000477,0.5638525671428571,-0.3670510457142857,-0.8854959285714286,0.6718883285714286,0.5685024685714286,0.8984036057142857
138,1.380000477,0.44456863,-0.4125240399999999,-0.9198098,0.64780354,0.5234961,1.3455436999999997
139,1.390000477,0.74794,-0.36980817,-0.9154193,0.5793886,0.3023694,1.8281131
140,1.400000477,0.9045294166666666,-0.3063390033333333,-0.9591463833333332,0.5284846833333333,0.3105140166666666,1.8922520166666663
141,1.410000477,1.0086303,-0.27231991,-0.9553213714285712,0.4406390285714286,0.3618833757142857,1.8823912285714288
142,1.420000477,1.1091370142857142,-0.2366862928571428,-0.8946645857142856,0.2865309942857142,0.5119118,1.7101323714285714
143,1.430000477,1.25016445,-0.2209275299999999,-0.8800209,0.1982199399999999,0.595728775,1.5746115500000002
144,1.440000477,1.6072279,-0.2336112,-0.97569716,0.0606920394285714,0.69346435,1.2635157857142858
145,1.450000477,1.6028069,-0.22043969,-1.0686599,-0.1279725,0.8217423,0.8629744599999999
146,1.460000477,1.4137279571428572,-0.1968146214285714,-1.0914748142857142,-0.2934248571428571,0.9296004428571428,0.5770979371428571
147,1.470000477,1.0885238000000002,-0.2221471183333333,-0.90654675,-0.4156815583333333,0.7979192166666667,0.342125375
148,1.480000477,0.9808063142857144,-0.2349701557142857,-0.8255707971428572,-0.3569529628571429,0.5069595857142858,0.2767356228571428
149,1.490000477,1.026079057142857,-0.2808526242857143,-0.7794008685714285,-0.1206423337142857,0.1585584977142857,0.2268206857142857
150,1.500000477,1.1255383,-0.3155011416666666,-0.8537083116666667,-0.0324767118333333,0.0109952514999999,0.1470614766666666
151,1.510000477,1.2473158285714283,-0.3600384357142857,-1.0416156,-0.0719490787142857,-0.1130067441428571,-0.0386360942857142
152,1.520000477,1.2199186999999998,-0.38627255,-1.2369319,-0.55760176,-0.28200782,-0.5188638466666666
153,1.530000477,0.9788724857142856,-0.3912379928571428,-1.156422085714286,-1.1774080999999998,-0.3741003257142857,-0.86133828
154,1.540000477,0.774283,-0.4378914,-0.80535185,-1.4693931000000002,-0.3683409,-0.96483326
155,1.550000477,0.6355902057142858,-0.4052501142857143,-0.5689704585714286,-1.3950442714285711,-0.28770906,-0.9198050942857144
156,1.560000477,0.51387143,-0.29023036,-0.3902056999999999,-1.0515735,-0.13377555,-0.7156075999999999
157,1.570000477,0.6226670042857142,-0.18292444,-0.3738981114285714,-0.7330603571428572,-0.0430210999999999,-0.5435886285714285
158,1.580000477,0.9670685999999998,-0.036191136,-0.5051819,0.05283829,0.117893524,-0.23044212
159,1.590000477,1.3199855,-0.01984872,-0.6472024,0.38025242,0.04459185,-0.3049655
160,1.600000477,1.4586521,-0.0390832902857142,-0.7072320571428571,0.51638412,-0.0976482928571428,-0.4768753857142857
161,1.610000477,1.572252057142857,-0.1048798148571428,-0.9042905714285714,0.6921335857142858,-0.5262885571428572,-0.9366906685714288
162,1.620000477,1.5002349333333331,-0.1658938283333333,-1.1228958333333334,0.6785494916666667,-1.0272414566666666,-1.4290772
163,1.630000477,1.3175289142857145,-0.2314725757142857,-1.2777749142857144,0.4593135014285714,-1.2320789285714286,-1.7013405428571429
164,1.640000477,1.2098266333333334,-0.2546185233333333,-1.3237764666666667,0.2996205766666667,-1.2681189166666669,-1.8018976333333336
165,1.650000477,0.8401883857142857,-0.2553154328571428,-1.229191942857143,-0.5197873957142857,-0.9774428571428572,-1.8694107714285713
166,1.660000477,0.76974002,-0.25315503,-1.0281596000000002,-0.6585951533333333,-0.9176961833333334,-1.7825540999999998
167,1.670000477,0.6680267685714286,-0.2561517014285714,-0.5730343257142857,-0.7463244299999999,-0.8734243142857144,-1.5611946857142858
168,1.680000477,0.7233094749999999,-0.1910274133333333,-0.3933867783333333,-0.18172707,-0.91321665,-1.1114366
169,1.690000477,0.96732131,-0.0861940528571428,-0.4456619,0.09367779,-0.92682981,-1.0967762
170,1.700000477,1.1143942666666666,-0.047863565,-0.5255438833333334,0.2332418499999999,-0.9576048616666668,-1.2511169666666666
171,1.710000477,1.0532278428571429,-0.0123047251428571,-0.7965229228571429,0.23783775,-0.9193251142857144,-1.446878942857143
172,1.720000477,0.8136058571428572,0.0383907412857142,-1.12737844,0.0039705099999999,-0.6896465657142857,-1.7191423142857143
173,1.730000477,0.48606494,0.0511920079999999,-1.0838132,-0.60687673,-0.35123718,-1.6795245
174,1.740000477,0.4778066085714285,0.0348713707142857,-0.9444932428571428,-0.6731973014285714,-0.3927747857142857,-1.6428736714285714
175,1.750000477,0.466389,-0.0436255098333333,-0.5488633333333334,-0.78768754,-0.6016846,-1.5121524
176,1.760000477,0.4156862657142857,-0.0681703537142857,-0.4344983371428572,-0.5300845342857142,-0.7734198571428571,-1.4262847714285714
177,1.770000477,0.2585618266666666,-0.0424973991666666,-0.4612819866666666,-0.2998242,-0.8336028999999999,-1.30609325
178,1.780000477,0.1514417542857142,0.005335677,-0.6744644500000001,0.02665912,-0.8053584714285714,-0.9068900285714284
179,1.790000477,0.1025582457142857,0.0584006215714285,-0.8193509142857144,0.1254418471428571,-0.7201889428571429,-0.7505131071428571
180,1.800000477,0.1339864766666666,0.16917653,-0.9803570416666668,0.1405966783333333,-0.4949899,-0.5053488333333332
181,1.810000477,0.2274392328571428,0.1836300485714286,-0.9707012857142858,0.1390550185714285,-0.4746283142857143,-0.5041016942857143
182,1.820000477,0.3186873,0.1387936633333333,-0.895189425,0.1821343016666666,-0.5835627416666667,-0.72189421
183,1.830000477,0.1438977663428571,0.0778486205714285,-0.8855264142857143,0.2149746114285714,-0.6423494928571428,-0.8384751714285714
184,1.840000477,-0.0025306356,0.060704764,-0.8892897,0.24220094,-0.5882459,-0.7534801
185,1.850000477,-0.107201375,0.10878683,-0.9749654,0.1772766028571428,-0.5201800999999999,-0.4988876885714285
186,1.860000477,0.0035977708,0.158058,-1.0369507,-0.0055994341666666,-0.3927748,-0.2090624783333333
187,1.870000477,-0.033264134,0.24495333,-1.0618303,-0.2264061824285714,-0.1936385714285714,-0.0946595042857142
188,1.880000477,-0.04472822,0.28230307,-0.8624589,-0.43095273,-0.1227803,-0.16569231
189,1.890000477,-0.0677478557142857,0.2415123485714285,-0.7064393285714285,-0.3960471871428571,-0.205681,-0.2869891385714286
190,1.900000477,-0.0978628528571428,0.1721877457142857,-0.5404757857142857,-0.1883591157142857,-0.2676383657142857,-0.3948473199999999
191,1.910000477,-0.097932546,0.10803476,-0.4725478733333333,0.1766366753333333,-0.2718270333333333,-0.4259132533333333
192,1.920000477,-0.1890484857142857,0.0559266077142857,-0.6593938714285714,0.7362890857142858,-0.2540252071428571,-0.3353333471428571
193,1.930000477,-0.23778826,0.03750219,-0.9317616,1.0326372,-0.211964,-0.1485886
194,1.940000477,-0.2271386885714285,0.0516362899999999,-1.1468656714285714,1.0232128285714286,-0.2601336714285714,0.0179109114285714
195,1.950000477,-0.1649232516666667,0.1079280416666666,-1.4531691333333334,0.6052478166666667,-0.3302647416666667,0.1159082633333333
196,1.960000477,-0.13479444,0.14903308,-1.413741,0.1104324554285714,-0.2976571514285714,0.1006370871428571
197,1.970000477,-0.1475478085714285,0.1427609457142857,-1.271076,-0.2670711517142857,-0.1592566142857143,0.0318731382857142
198,1.980000477,-0.26144817,0.12098267,-1.0674403,-0.49081576,0.064138964,-0.01175881
199,1.990000477,-0.3763285914285714,0.1555012342857142,-0.9309558714285714,-0.4611460385714285,0.1365679897142857,0.05892494
200,2.000000477,-0.4385418533333333,0.2216897599999999,-0.7806857866666667,-0.2880144833333333,0.1077127333333333,0.1865629266666666
201,2.010000477,-0.3479384314285714,0.2422353814285714,-0.7259482899999999,0.0238666714285714,-0.0538418214285714,0.2816224057142857
202,2.020000477,-0.34751013,0.2286007333333333,-0.7868751999999999,0.2364996999999999,-0.1903807266666667,0.30058776
203,2.030000477,-0.4295895285714285,0.19328218,-1.0016699428571427,0.4802568428571429,-0.4489727328571428,0.3179241942857143
204,2.040000477,-0.3337215714285714,0.1503964085714285,-1.0634331714285714,0.38740806,-0.4615387385714286,0.3660938428571428
205,2.050000477,-0.2672259583333333,0.1170800066666666,-1.073172383333333,0.3279231766666666,-0.377096375,0.3608580083333333
206,2.060000477,-0.2927304899999999,0.0547941371428571,-1.1010572571428572,0.2043284,-0.10323319,0.31809872
207,2.070000477,-0.50280374,0.052167676,-1.116742,-0.030236939,0.16065283,0.41339087
208,2.080000477,-0.5392082771428572,0.0703568937142857,-1.040404857142857,-0.1621799484285714,0.1062001557142857,0.5495225385714286
209,2.090000477,-0.51415095,0.08578753,-0.983345,-0.2269297583333333,-0.05864134,0.7096518083333333
210,2.100000477,-0.4336707885714285,0.0854797299999999,-0.9591369714285716,-0.2236137285714285,-0.1686811071428571,0.7360927714285715
211,2.110000477,-0.2499840971428571,0.0584223988571428,-0.9575994,-0.1318121085714285,-0.5208781857142857,0.6699467071428572
212,2.120000477,-0.2856264,-0.0020123124,-1.1252791,-0.0131332159999999,-0.80326414,0.5428905
213,2.130000477,-0.39200458,-0.053265303,-1.26733,-0.0613028822857142,-0.8933204542857143,0.4716831514285714
214,2.140000477,-0.556749955,-0.0654865421666666,-1.3110571666666668,-0.3747548,-1.0353861,0.54533386
215,2.150000477,-0.5440562,-0.056436222,-1.219004,-0.5580089771428571,-0.9976881,0.6825127085714285
216,2.160000477,-0.5286894,0.023598937,-1.0901551,-0.6893411400000001,-0.9150491833333332,0.8285633916666667
217,2.170000477,-0.5090105571428571,0.0635577138571428,-1.0422516142857143,-0.7712819571428572,-0.7625991428571428,0.9851439
218,2.180000477,-0.4913048042857143,0.1214661414285714,-0.9986993571428572,-0.8129941,-0.6219297857142857,1.080436042857143
219,2.190000477,-0.4708099966666666,0.1798326383333333,-1.03466905,-0.8835905999999999,-0.5676807166666666,1.1311363666666667
220,2.200000477,-0.4309354199999999,0.1941184614285714,-1.0348251714285717,-0.9573285857142856,-0.5892930571428572,1.1207519571428572
221,2.210000477,-0.39206555,0.1971558083333333,-1.02422135,-1.0039275,-0.6065713,1.1097567
222,2.220000477,-0.35543884,0.1888916828571428,-0.9650867857142856,-1.0950310571428572,-0.4576991099999999,0.9278988
223,2.230000477,-0.5440256616666667,0.12346757,-0.8731149666666668,-0.95281995,-0.3467576133333334,0.7760305583333333
224,2.240000477,-0.677421942857143,0.1001539328571428,-0.8751076514285715,-0.7765177657142858,-0.3939964728571428,0.8270217228571429
225,2.250000477,-0.8650112785714285,0.1261005592857142,-0.9290394085714286,-0.4747592142857142,-0.6655617042857143,1.14954905
226,2.260000477,-0.771112075,0.1854427216666666,-1.0218177,-0.21267665,-0.8975381916666666,1.4426684666666667
227,2.270000477,-0.52613698,0.2792279714285714,-1.1901042714285714,-0.0689821071428571,-1.0661030142857144,1.506632971428571
228,2.280000477,-0.21946402,0.42042089,-1.4306016999999998,-0.161161865,-1.2457211666666668,1.1804114833333337
229,2.290000477,-0.2100558057142857,0.4160652328571428,-1.466339914285714,-0.4456130714285714,-1.3025881714285714,0.6259657428571428
230,2.300000477,-0.2342819533333333,0.4049626566666666,-1.4040860000000002,-0.6805856499999999,-1.2418525,0.1918569333333333
231,2.310000477,-0.6235555514285714,0.3420408471428571,-0.9577126457142856,-0.9262626,-0.9320656571428572,-0.6169120999999999
232,2.320000477,-1.1789102666666669,0.3276105866666667,-0.52136171,-0.510362875,-0.7110262500000001,-1.1220246166666663
233,2.330000477,-1.5503953571428573,0.3321361,-0.2453845328571428,0.2308566214285714,-0.9116459,-0.8435364285714285
234,2.340000477,-1.6090355428571428,0.3147396142857143,-0.25065487,0.7481569885714284,-1.0296266714285716,-0.5221653257142858
235,2.350000477,-1.5234119999999998,0.2654423,-0.43828773,1.8511726,-1.1856545,0.2521272
236,2.360000477,-1.16955,0.23934323,-0.7892228999999998,2.3948267,-1.191763,0.6577298
237,2.370000477,-0.8122374166666667,0.2318224716666666,-1.2193547333333334,2.4253690333333338,-1.2711730833333332,0.7137241
238,2.380000477,-0.5855393857142858,0.2263459685714285,-1.562904785714286,1.9599035,-1.3249277,0.5037963
239,2.390000477,-0.5112646333333334,0.2384895266666666,-1.7099473166666668,1.4207289,-1.2320789,0.3042528466666667
240,2.400000477,-0.5251264857142858,0.2577763785714286,-1.570744985714286,0.62686016,-1.0558058142857143,0.03693444
241,2.410000477,-0.67290515,0.3184027400000001,-1.1399446,-0.4614951,-0.83136314,-0.37948886
242,2.420000477,-0.8020285,0.3506302,-0.80779105,-0.8182299,-0.7201889,-0.56885153
243,2.430000477,-0.94404894,0.38819337,-0.5281101,-0.8866448,-0.62489676,-0.6801784
244,2.440000477,-1.11001399,0.4093582616666666,-0.423581625,-0.6840471083333334,-0.43247986,-0.545664775
245,2.450000477,-1.1982842142857142,0.4223025185714286,-0.35280368,-0.4812167342857143,-0.3250579942857143,-0.3756492571428572
246,2.460000477,-1.0523610428571428,0.4216012485714286,-0.3307684371428571,-0.2298967257142857,-0.2744449399999999,-0.2063572942857142
247,2.470000477,-0.8720631,0.3877055599999999,-0.3650823,0.011300675,-0.1924168899999999,-0.20112146
248,2.480000477,-0.80568725,0.3518498,-0.47271052,0.1306776821428571,-0.0510493788571428,-0.2807061457142857
249,2.490000477,-0.7828657949999999,0.334638435,-0.61011181,0.1668631166666666,0.1891590243333333,-0.4031082866666666
250,2.500000477,-0.7616123828571428,0.3242218914285714,-0.8789449571428571,0.0013525928571428,0.3786380285714286,-0.6183519714285713
251,2.510000477,-0.8078825,0.2813274,-0.97862417,-0.33362441,0.4371630133333333,-0.80479128
252,2.520000477,-0.8285805628571429,0.3070431685714286,-0.8505940014285713,-0.82311666,0.5405998,-0.9941539
253,2.530000477,-0.8368388628571429,0.3456429842857142,-0.6819910057142857,-0.9508710428571427,0.6946642000000001,-1.0894460714285714
254,2.540000477,-0.8827954,0.36868006,-0.5049075,-0.8451071999999998,0.8486196,-1.2189457
255,2.550000477,-0.9687760342857142,0.3851966971428571,-0.47459214,-0.6094946571428571,0.8224404,-1.1959081
256,2.560000477,-1.0253037,0.33965397,-0.5830218,-0.20127417,0.68979925,-1.0002624
257,2.570000477,-0.9480997357142856,0.2925693485714286,-0.6330465142857143,-0.0085954928571428,0.6384880642857143,-0.8536590857142857
258,2.580000477,-0.874746145,0.256173495,-0.66965795,0.0927469799999999,0.6307506866666667,-0.7860586333333334
259,2.590000477,-0.7452612228571428,0.2176912728571428,-0.7870842285714286,0.1933331557142857,0.6730446028571428,-0.7471970857142857
260,2.600000477,-0.54932646,0.1659635157142857,-1.0488939428571429,0.1615691,0.7631009000000001,-0.8304468399999999
261,2.610000477,-0.526982,0.13610551,-1.1511648,-0.0400104966666666,0.7875348166666667,-0.95668864
262,2.620000477,-0.5688180357142857,0.13349211,-1.1645801571428571,-0.2548542125714285,0.7707801714285714,-1.0419746
263,2.630000477,-0.6030331583333334,0.1178117583333333,-1.1300811333333334,-0.6433239766666666,0.6904100999999999,-1.1409608833333331
264,2.640000477,-0.6455734142857142,0.1173936171428571,-1.0557279285714285,-0.8218949828571428,0.7180727571428571,-1.1566393
265,2.650000477,-0.7427974166666665,0.1412277516666666,-0.8383771750000001,-0.9505801366666664,0.8779402,-1.0910750666666666
266,2.660000477,-0.7768745714285714,0.1573262557142857,-0.7121931157142857,-0.8520882614285714,1.015991657142857,-0.9182343714285714
267,2.670000477,-0.8089293333333334,0.1697050233333333,-0.6347524933333334,-0.6791603666666667,1.0791126,-0.7424848666666667
268,2.680000477,-0.8161408428571428,0.1831770628571428,-0.57175376,-0.3880189142857143,1.1507271714285714,-0.4298183171428572
269,2.690000477,-0.7617909571428572,0.2003557614285714,-0.5074337914285715,-0.0963829657142857,1.1884251571428572,-0.1306122314285714
270,2.700000477,-0.6119767666666667,0.1887406833333333,-0.4813288866666667,0.3871753233333333,1.0998814,0.2578284466666666
271,2.710000477,-0.3986033857142857,0.1715039128571428,-0.56660104,0.7923125228571429,0.9571758,0.4451549457142857
272,2.720000477,-0.1604666791666666,0.18044753,-0.7042179166666666,1.0259179266666667,0.8148193166666666,0.3889570033333333
273,2.730000477,-0.02350747,0.194676,-0.99423486,1.1303729,0.6959077,0.12507097
274,2.740000477,-0.059881546,0.20248133,-1.2878191,0.9684983416666668,0.7121970333333333,-0.07141823
275,2.750000477,-0.1243016894285714,0.1964182442857142,-1.3095886428571428,0.4135872185714285,0.7594358428571428,-0.36098891
276,2.760000477,-0.16357662,0.17174783,-1.150189,-0.024128467,0.7264501,-0.56518644
277,2.770000477,-0.24534968,0.11390909,-0.99203956,-0.2124730361666666,0.7722636583333333,-0.6294526566666666
278,2.780000477,-0.3551644399999999,0.0645420928571428,-0.8445657657142858,-0.3042455714285714,0.8355299628571429,-0.6056550428571429
279,2.790000477,-0.48743698,0.0077443539999999,-0.72845715,-0.2851638616666667,0.84495445,-0.416776
280,2.800000477,-0.53554954,-0.0104709945714285,-0.6659186785714286,-0.1906279728571428,0.7875348385714285,-0.1812252957142857
281,2.810000477,-0.5630816333333334,0.0245288715,-0.6788963166666667,-0.0615937639999999,0.74436829,0.1173335766666666
282,2.820000477,-0.4768658,0.061776253,-0.7114526600000001,0.0598194004285714,0.8899826242857143,0.5214235771428571
283,2.830000477,-0.1377170942857142,0.1280170607142857,-0.6904061628571428,0.1847813,1.2090194,0.85808766
284,2.840000477,0.20076375,0.1505778933333333,-0.6419277333333334,0.2874036333333333,1.3018682,0.8336537533333334
285,2.850000477,0.4577140214285714,0.1274987242857142,-0.6223229142857143,0.5289500857142857,1.3578916714285714,0.6294562571428572
286,2.860000477,0.3918521,0.0787546,-0.7406834999999999,0.8381842333333335,1.1754228833333336,0.30119859
287,2.870000477,0.2109182142857142,0.0306463885714285,-0.8654947857142857,1.0017459257142858,0.9130203071428572,0.1863302285714285
288,2.880000477,-0.14922619,-0.0424872351666666,-1.1913754666666667,1.0387458,0.39445461,0.2517199733333333
289,2.890000477,-0.2858616285714285,0.0065552601428571,-1.4170644142857145,0.7956285714285715,-0.0397050742857142,0.4491690714285714
290,2.900000477,-0.2287415714285714,0.0564841334285714,-1.5084373285714283,0.2134038542857142,-0.0061957368571428,0.7057249057142857
291,2.910000477,-0.1006969333333333,0.06314393,-1.3726613666666667,-0.45660833,0.5503734,0.93627614
292,2.920000477,0.0898615128571428,0.0796605722857142,-0.9757276571428573,-0.7288716757142858,1.019634942857143,1.0357570485714285
293,2.930000477,0.14488651,0.07143709,-0.56103885,-0.661853,1.4215943,1.1977187
294,2.940000477,0.4358616442857143,0.0316873882857142,-0.18975411,-0.071250968,1.3556227571428572,1.3684069571428572
295,2.950000477,0.71803475,0.0102241738333333,-0.180950595,0.7286389506666667,0.946558725,1.3184628333333333
296,2.960000477,0.8043108857142858,-0.0189035407142857,-0.6017642357142857,1.3227024857142855,0.3947382271428571,1.1230208285714285
297,2.970000477,0.7075674314285714,-0.009647775,-1.1343213714285716,1.5775130571428573,-0.1585584899999999,0.8270217428571429
298,2.980000477,0.5945062566666667,-0.0303269716666666,-1.4453180333333335,1.2932654666666668,-0.2372123466666666,0.7049686333333334
299,2.990000477,0.4866181142857143,-0.0781970677142857,-1.5742599714285714,0.7345438285714286,-0.0779266548571428,0.6807674585714285
300,3.000000477,0.4062482833333333,-0.1351959008333333,-1.319797516666667,-0.22570807,0.42453885,0.80066806
301,3.010000477,0.4516726885714285,-0.2476059128571428,-0.7089699571428572,-0.4529432328571428,0.6246785785714286,0.9608845771428572
302,3.020000477,0.56488055,-0.29806617,-0.37605852,-0.2312056766666666,0.6183301166666667,1.0710698049999998
303,3.030000477,0.6425069599999998,-0.31050593,-0.34849593,0.0217723422857142,0.5610413714285715,1.1181341
304,3.040000477,0.8250481,-0.3409955,-0.7028459,0.7308788,0.33902022,1.0865445
305,3.050000477,0.6927843,-0.26144817,-1.1382371,0.80051535,0.16309622,1.0254599
306,3.060000477,0.6040378428571429,-0.2156049057142857,-1.376513242857143,0.5553038,0.1020114914285714,1.0455305428571429
307,3.070000477,0.5825441533333334,-0.1717173399999999,-1.4723115,0.0874529666666666,0.1134139733333333,1.0739204000000002
308,3.080000477,0.6304026342857142,-0.19798629,-1.3220937428571429,-0.3312973742857142,0.2081243828571428,1.0903842285714285
309,3.090000477,0.660800755,-0.2483833849999999,-1.0611138,-0.54212695,0.406824275,1.12747135
310,3.100000477,0.66860604,-0.2633995,-0.7204079,-0.34421244,0.7117898,1.2869024
311,3.110000477,0.6842168,-0.20775603,-0.8985585,0.11392301,0.60550237,1.5153593
312,3.120000477,0.7647702,-0.14845379,-1.1184493,0.14690876,0.519831,1.592326
313,3.130000477,0.8758133,-0.099152125,-1.2187600999999997,-0.0133077459999999,0.5323970228571429,1.5703355714285716
314,3.140000477,0.9470674999999998,-0.09159071,-1.1760442,-0.2892362,0.55403847,1.5080292
315,3.150000477,1.0363932714285715,-0.0938905014285714,-1.0532669714285714,-0.4421225085714285,0.5215762671428571,1.4211143142857143
316,3.160000477,1.1720704833333333,-0.1172426083333333,-0.9431139833333332,-0.4930555433333333,0.52532865,1.2793686666666666
317,3.170000477,1.2476948,-0.1236657414285714,-0.8861318114285714,-0.4466602328571429,0.5543220857142857,1.0907332714285716
318,3.180000477,1.2252849285714285,-0.0955717731428571,-0.8271431942857143,-0.3318209614285714,0.5672807771428571,0.8453471914285714
319,3.190000477,1.0466465,-0.056436222,-0.8297435600000002,-0.042453885,0.5051707,0.4671454400000001
320,3.200000477,0.9768427428571428,-0.055639136,-0.942424322857143,0.0797155671428571,0.4131945357142857,0.3594618
321,3.210000477,1.0559152,-0.07646788,-1.0486587,0.17256436,0.22784603,0.17760384
322,3.220000477,1.0692958,-0.1128463085714285,-1.1419569,0.0982155142857142,0.11894069,0.0236703312857142
323,3.230000477,0.96584904,-0.12991612,-1.2472985,-0.1035386099999999,0.0061084733333333,-0.1322993339166666
324,3.240000477,0.8752688057142857,-0.1186001285714285,-1.198349557142857,-0.4105329971428571,-0.063091796,-0.2201449814285714
325,3.250000477,0.8442826857142858,-0.1169231957142857,-1.1263984571428571,-0.6365464571428571,-0.1227802985714285,-0.2608099542857142
326,3.260000477,0.8770329,-0.13064787,-0.7404395300000001,-0.80845636,-0.26083177,-0.38071054
327,3.270000477,0.8580204499999999,-0.1442375128571428,-0.5546055371428571,-0.6714520314285713,-0.3227891485714286,-0.4819366828571428
328,3.280000477,0.8033243149999999,-0.155527375,-0.43133615,-0.415070705,-0.351848025,-0.57809057
329,3.290000477,0.5966070771428571,-0.1574090114285714,-0.4568820628571428,0.2158472542857143,-0.2470440785714285,-0.5847771714285714
330,3.300000477,0.49508983,-0.12378771,-0.7052850999999999,0.7699729999999999,-0.06658235,-0.36482853
331,3.310000477,0.5878217371428571,-0.13391461,-1.1029128857142858,0.7888219657142856,-0.0634408528571428,-0.16586685
332,3.320000477,0.9805145,-0.124031626,-1.5311259,0.4916302433333333,-0.13214662,-0.11336307
333,3.330000477,1.2214693571428572,-0.1455921237142857,-1.6970240142857145,-0.0815481028571428,-0.1889263299999999,-0.3273050585714285
334,3.340000477,1.191354357142857,-0.1083904771428571,-1.7658870142857144,-0.8267817542857143,-0.2254026328571428,-0.6799820914285714
335,3.350000477,0.9913179666666668,-0.028390885,-1.5030755666666666,-1.52518371,-0.2129820766666666,-0.9424355166666666
336,3.360000477,0.8365122000000002,-0.01911697,-0.930786,-1.8763918857142856,-0.20952061,-1.099568737142857
337,3.370000477,0.7807162999999999,-0.047248692,-0.6182474666666667,-1.7548623999999995,-0.2616462433333333,-1.1432006666666668
338,3.380000477,0.7252034814285714,-0.067325357,-0.2706429828571429,-1.2843936514285714,-0.3994068542857142,-1.1288893714285717
339,3.390000477,0.6734132766666666,-0.0498606333333333,-0.1354347299999999,-0.4191430266666667,-0.6558463333333334,-1.0560531333333334
340,3.400000477,0.6750175928571428,-0.0219394342857142,-0.56485873,0.6893411,-0.9046648,-0.9782719
341,3.410000477,0.6339699,-0.016433885,-1.0098455,0.7601994,-0.7947123,-0.93306917
342,3.420000477,0.49606553,0.058265597,-1.3383403,0.4973605714285715,-0.6313542771428572,-0.8492958671428571
343,3.430000477,0.6052530757142857,0.0900444538571428,-1.3479575285714287,-0.0113879348571428,-0.4648547742857142,-0.7578432985714285
344,3.440000477,0.8089496500000001,0.07826676,-1.1540917,-0.4462239123333333,-0.2807861216666666,-0.7846333316666666
345,3.450000477,0.8233058499999999,0.0683707108571428,-1.0917535857142855,-0.5965796171428571,-0.2074262757142857,-0.8302723442857143
346,3.460000477,0.7257130666666667,0.075583678,-0.8648878866666667,-0.72660285,-0.0779848339999999,-0.9888599466666668
347,3.470000477,0.616312117142857,0.0728657514285714,-0.7462804742857143,-0.6985038571428571,-0.0035778198571428,-1.0826395142857144
348,3.480000477,0.53251076,0.02474738,-0.7148790833333333,-0.58977302,0.0270808939999999,-1.1134727333333334
349,3.490000477,0.3995703571428571,-0.04385709,-0.8455328142857143,-0.3555567314285714,0.1941621628571428,-1.1824693714285714
350,3.500000477,0.0583309325714285,-0.0215561362857142,-1.0384708628571429,-0.4719667657142857,0.32174197,-1.1154507857142857
351,3.510000477,-0.20263378,0.0035977708,-1.0877159,-0.7154039249999999,0.31255017,-0.8911243833333334
352,3.520000477,-0.2114147714285714,0.0270137729714285,-1.0057076085714287,-0.9805406485714286,0.3271523314285715,-0.5219253514285714
353,3.530000477,-0.07329696,0.03823394,-0.8214504000000001,-1.1945118,0.49784052,-0.07895201
354,3.540000477,0.0821999185714285,0.0455732164285714,-0.6314349285714285,-1.1819458285714286,0.68750856,0.1598020128571428
355,3.550000477,0.3740897871428571,0.0556173558571428,-0.4173893371428571,-0.9295786428571428,0.7662424428571429,0.2571885042857142
356,3.560000477,0.4524146066666666,0.1222784656666666,-0.3433127116666667,-0.4928519416666666,0.6519267416666666,0.1894135466666666
357,3.570000477,0.4778676071428571,0.21050879,-0.3615193428571429,-0.0551944157142857,0.3978797285714285,0.0508966642857142
358,3.580000477,0.4431152933333333,0.26634684,-0.4817354199999999,0.2523817299999999,0.170833618,-0.10705098
359,3.590000477,0.1554968771428571,0.32753218,-0.8874907485714285,0.58479899,-0.0964266037142857,-0.41456894
360,3.600000477,-0.0959456416666666,0.30657276,-1.0396236716666667,0.4409299166666667,0.0557907166666666,-0.2493783883333333
361,3.610000477,-0.0413220985714285,0.2589654542857142,-0.9623296914285716,0.2915923014285714,0.2597846111428571,0.0449627214285714
362,3.620000477,0.08826735,0.16857691,-0.7765391999999999,0.32894126,0.57984674,0.3547495599999999
363,3.630000477,0.0637798568571428,0.1585153471428571,-0.811689377142857,0.5195256371428572,0.6384881085714286,0.5160132228571429
364,3.640000477,0.1388408522857142,0.1662684128571428,-0.8820549542857143,0.6629874714285714,0.63569563,0.6685505
365,3.650000477,0.3966542583333334,0.1905700683333333,-0.90907739,0.8656723733333332,0.5194746733333333,0.7627954999999998
366,3.660000477,0.56303811,0.2255358142857143,-0.9363263714285714,1.0403164742857145,0.1728697742857143,0.527183
367,3.670000477,0.5766800033333334,0.2479616133333333,-1.0696356,1.1026811333333333,-0.2840439666666667,0.1250709786666666
368,3.680000477,0.4011601614285714,0.2202262571428571,-1.3400912714285715,0.7097608914285713,-0.7062267,-0.4896158759999999
369,3.690000477,0.1058649166666666,0.1721543483333333,-1.4160226833333331,0.09681929,-0.67865133,-0.7473716
370,3.700000477,-0.2045851,0.15122834,-1.2875751,-0.3649812442857142,-0.5446139871428571,-0.6447492714285714
371,3.710000477,-0.2644056742857143,0.1723706857142857,-1.011261102857143,-0.7016453485714286,-0.2678128957142857,-0.3866663071428571
372,3.720000477,-0.3134278366666667,0.2348663349999999,-0.6544436616666667,-0.661853,0.015271181,-0.13148487
373,3.730000477,-0.3198444285714285,0.2632122199999999,-0.4385360399999999,-0.2995333142857143,0.1178935258571428,0.0611938071428571
374,3.740000477,-0.2912364833333333,0.22691872,-0.3687003666666666,0.2739649916666666,0.1879373333333333,0.26027182
375,3.750000477,-0.2563346428571428,0.1890659071428571,-0.4320635428571428,0.7333221128571429,0.12312935,0.3690608171428571
376,3.760000477,-0.2305230314285714,0.1646568185714285,-0.5860968971428572,1.3157213714285714,-0.0653606499999999,0.4633058242857143
377,3.770000477,-0.255954975,0.1453743333333333,-0.997121155,1.8002686666666667,-0.44021725,0.4885250783333333
378,3.780000477,-0.2964240914285714,0.1517858514285714,-1.4868637142857142,1.617479957142857,-0.9969899885714284,0.3957635728571428
379,3.790000477,-0.38078442,0.18004099,-1.7171124000000002,1.0992196333333333,-1.2210837166666666,0.3335735216666666
380,3.800000477,-0.2866499999999999,0.1907036328571429,-1.6269503142857142,0.2959555,-1.1905413,0.37185326
381,3.810000477,-0.1383718966666666,0.1607512533333333,-1.3921137,-0.0615937666666666,-1.0284631666666666,0.3303156599999999
382,3.820000477,-0.0306550994285714,0.0963558014285714,-1.0571174428571428,-0.4246697485714286,-0.6112836142857142,0.1786510057142857
383,3.830000477,-0.151883856,0.0671279033333333,-0.8872265333333335,-0.4627168,-0.1044548799999999,0.06154286
384,3.840000477,-0.2688484214285714,0.0515753111428571,-0.8121205428571429,-0.3510190142857143,0.1459924914285714,0.0545617492857142
385,3.850000477,-0.4697660857142857,0.0547113814285714,-0.8867939142857144,-0.1283215577142857,0.3487937771428571,0.0695711421428571
386,3.860000477,-0.611666795,0.078388721,-0.9752093,-0.0839914993333333,0.3162152566666666,0.0859767533333333
387,3.870000477,-0.8158185042857143,0.1318500228571428,-1.062771028571429,-0.05467083,-0.2386667514285714,0.2044811228571428
388,3.880000477,-0.8591355000000002,0.13122717,-1.0315846,-0.0984482133333333,-0.7497131850000001,0.4498380933333333
389,3.890000477,-0.7098410571428572,0.0699779514285714,-0.8970035357142858,-0.03268033,-0.8997780000000001,0.80433315
390,3.900000477,-0.6231156,0.04899676,-0.8607514000000002,0.20066333,-0.7214106299999999,1.1219738
391,3.910000477,-0.5130918,0.0426984828571428,-1.009061542857143,0.40800233,-0.4030719471428571,1.4026143714285717
392,3.920000477,-0.36419806,0.016525354,-1.2822089,0.5244124,0.028709821,1.6253119
393,3.930000477,-0.2763271,0.028233355,-1.5240523999999998,0.36437038,0.21807247,1.6363071
394,3.940000477,-0.09695688,0.071924925,-1.6531758,0.0732580377142857,0.23692147,1.4876094428571427
395,3.950000477,-0.0552623716666666,0.1211401958333333,-1.66882705,-0.257879362,0.1056765753333333,1.2266321666666666
396,3.960000477,-0.2075164628571428,0.1848452771428571,-1.5376158285714288,-0.9353379857142856,-0.4002794602857143,0.7556398571428572
397,3.970000477,-0.34517258,0.2483681599999999,-1.3007466,-1.2592616,-0.69819844,0.6027535
398,3.980000477,-0.3749652585714286,0.3062330171428571,-1.1224261,-1.266940857142857,-0.7407832,0.5671498428571429
399,3.990000477,-0.3699707766666666,0.3624093533333334,-0.9253385666666668,-1.1529742333333333,-0.7678349899999999,0.4353813866666667
400,4.000000477,-0.3646510542857142,0.3584355357142857,-0.7854683571428571,-0.8690175085714286,-0.7601557428571428,0.1325756728571428
401,4.010000477,-0.4482273585714286,0.3242610742857143,-0.7515203714285715,-0.6152540885714286,-0.7139058857142857,-0.1229330128571428
402,4.020000477,-0.63265884,0.27422333,-0.8563609,-0.2195995899999999,-0.5210527,-0.3819322599999999
403,4.030000477,-0.8219555971428572,0.2517481514285714,-0.9555391857142858,-0.0494349957142857,-0.3613597714285714,-0.4194557171428572
404,4.040000477,-0.9787004,0.240684785,-1.01791,0.120031486,-0.2999259999999999,-0.38071055
405,4.050000477,-1.1447924285714284,0.2056609542857143,-1.0753022857142855,0.27815368,-0.4227935714285714,-0.2065318214285714
406,4.060000477,-1.1614905666666666,0.1633581063333333,-1.0675775333333333,0.3554113166666666,-0.5133153166666666,-0.0885219466666666
407,4.070000477,-1.0395032114285714,-0.0158240925714285,-0.9886552571428572,0.7895200714285716,-0.6868541142857143,0.4025701685714286
408,4.080000477,-0.9091601714285716,-0.07339714,-1.2329202857142858,1.2453866999999998,-0.5385055114285714,0.8315594428571428
409,4.090000477,-0.8286154,-0.04326472,-1.4100822,1.353943,-0.5015056,1.045007
410,4.100000477,-0.7445164857142857,0.0161377031428571,-1.5933334285714285,1.185349171428571,-0.5559582828571429,1.0858464285714289
411,4.110000477,-0.6658365833333333,0.1145087094999999,-1.70482505,0.8599711333333332,-0.63019075,1.0454142
412,4.120000477,-0.6098090714285714,0.2409722614285714,-1.6567779714285715,0.2149745971428571,-0.7528256085714286,0.8992762571428571
413,4.130000477,-0.5886014,0.3630191666666666,-1.4559183000000002,-0.4317671783333333,-0.8055039166666665,0.6803311666666666
414,4.140000477,-0.5929048057142857,0.4471166828571428,-1.2533309142857143,-0.7044377857142857,-0.79488682,0.5736074142857143
415,4.150000477,-0.6381164885714286,0.6006012657142856,-0.8670409714285715,-0.9159654714285714,-0.7221087271428572,0.4605133885714286
416,4.160000477,-0.6564813666666667,0.7039333666666666,-0.59032916,-0.9860092766666666,-0.5919109866666666,0.3645230933333334
417,4.170000477,-0.5601546,0.7806248,-0.31480497,-0.56900424,-0.3048128,0.2948865
418,4.180000477,-0.46914324,0.7972416,-0.31285363,-0.281906015,-0.1571913666666666,0.2052955833333333
419,4.190000477,-0.36016476,0.8125038514285714,-0.3781100328571428,0.0414939814285714,-0.0187617376514285,0.0030760531428571
420,4.200000477,-0.2846304216666666,0.8152508099999999,-0.52138715,0.29229042,-0.005497625,-0.3721587
421,4.210000477,-0.3074700242857143,0.8086011514285714,-0.71899228,0.3289412485714286,-0.1007897921428571,-0.7325149714285715
422,4.220000477,-0.3717551371428572,0.7589554428571429,-0.9129669914285714,0.2041538828571428,-0.2004451571428571,-1.12662045
423,4.230000477,-0.42276856,0.60930383,-1.0225596,-0.0864348816666666,-0.2378231966666666,-1.4805919666666665
424,4.240000477,-0.4501438742857143,0.5378493085714285,-0.9948358857142856,-0.3950000185714286,-0.21894511,-1.7819724
425,4.250000477,-0.4966535657142857,0.3999231571428571,-0.8833398628571428,-0.7042632500000001,-0.1089926031428571,-2.0797168
426,4.260000477,-0.57969844,0.21909817,-0.6911378999999999,-0.91352206,0.1655396,-2.3441265
427,4.270000477,-0.6919611,0.14391084,-0.65671515,-0.82800347,0.41843036,-2.341683
428,4.280000477,-0.87547797,0.14488651,-0.72796935,-0.6976893866666667,0.60792031,-2.2408932499999996
429,4.290000477,-1.0250423957142856,0.1561763585714286,-0.8348832728571429,-0.5648155385714286,0.6342994571428571,-2.0186320714285713
430,4.300000477,-1.1168334,0.18369974,-0.9476163,-0.501811,0.3903314,-1.7076235
431,4.310000477,-1.0177930666666668,0.18085404,-0.9118164416666668,-0.491630225,0.1358117083333333,-1.5019715833333331
432,4.320000477,-0.8118025714285714,0.1441983,-0.8077431342857143,-0.3979669771428571,-0.0983464157142857,-1.351761342857143
433,4.330000477,-0.5878544333333333,0.0616448541666666,-0.7006557416666667,-0.2238755233333333,-0.186919265,-1.286749733333333
434,4.340000477,-0.5712223571428571,0.0316220537142857,-0.7905252371428572,0.0479515071428571,0.0107334571428571,-1.195209942857143
435,4.350000477,-0.5795358433333333,0.0286398826666666,-0.9053983666666668,0.18559576,0.1846794833333333,-1.0939256566666666
436,4.360000477,-0.5972604385714285,0.1028718508571428,-1.2110201285714286,0.2151491342857142,0.5364765857142857,-0.8381260714285714
437,4.370000477,-0.6023827,0.197603,-1.3949594,0.030847786,0.87794024,-0.58473355
438,4.380000477,-0.4808599514285714,0.2153740571428571,-1.3612728285714286,-0.2047647362857143,0.9690437428571428,-0.5041016928571429
439,4.390000477,-0.22336671,0.2049204899999999,-1.0664647,-0.3696934957142857,0.9161618085714286,-0.5419742357142857
440,4.400000477,-0.1117240016666666,0.1477779233333333,-0.9145503083333332,-0.24403348,0.7612683750000001,-0.6320996833333333
441,4.410000477,-0.09329812,0.07899851,-0.8192551,0.0596448742857142,0.5439376214285714,-0.7248575371428572
442,4.420000477,-0.1662597,0.069241844,-0.93224955,0.3924693799999999,0.3268033,-0.7437065
443,4.430000477,-0.1751975057142857,0.050965516,-1.0461760928571429,0.4434314828571429,0.3268033,-0.6773859571428572
444,4.440000477,-0.1908909342857143,0.0529647631428571,-1.2374894571428572,0.3943891599999999,0.4681708,-0.5106028499999999
445,4.450000477,-0.1700912333333333,0.076559344,-1.245032,0.21125134,0.7023725333333334,-0.3595345033333333
446,4.460000477,-0.1615556,0.0753397611428571,-1.1677075142857145,0.0669750397142857,0.8620581857142857,-0.2519090371428571
447,4.470000477,-0.1809201116666666,0.0436458376666666,-1.010338416666667,-0.1226784893333333,0.989318025,-0.01440581475
448,4.480000477,-0.16824152,0.0135983539999999,-0.7909303,0.0053667305714285,0.68718135,0.1770802533285714
449,4.490000477,0.009939604,0.040429186,-0.6715940000000001,0.2776301,0.30725616,0.2997733
450,4.500000477,0.085828185,0.11951917,-0.7726366,0.54151607,0.061695572,0.23746687
451,4.510000477,0.0925358891666666,0.1565386033333333,-0.9973701833333336,0.5455884283333333,-0.0136422555,0.1774002283333333
452,4.520000477,0.1090351085714285,0.16289714,-1.1404498285714286,0.3055545342857143,0.045639017,0.1172172234285714
453,4.530000477,0.0989299891428571,0.1532624342857143,-1.1629772857142855,0.0469043457142857,0.1438981642857142,0.0868493874285714
454,4.540000477,0.040917022,0.124626175,-1.1117417,-0.292901265,0.30969956,0.11529742
455,4.550000477,-0.0093603024285714,0.0834586992857142,-0.9749436285714286,-0.5740655328571428,0.5211181714285714,0.2489857114285714
456,4.560000477,0.019940188,0.055094678,-0.4358486,-0.5433486,0.7276718,0.5465556
457,4.570000477,0.0751611768571428,0.0697296739999999,-0.3095171857142857,-0.14629792,0.56518644,0.6051969
458,4.580000477,0.1036747458333333,0.109594815,-0.3541416,0.3191677,0.36223242,0.6259657
459,4.590000477,0.14439867,0.1697965,-0.64769024,0.5903839,0.3011477,0.6565081
460,4.600000477,0.15171617,0.16174725,-0.9049004000000002,0.594456175,0.4070279,0.7063939333333334
461,4.610000477,0.1531796728571428,0.1429046871428571,-1.0860608,0.4319126328571428,0.4837037771428571,0.8179462657142856
462,4.620000477,0.205687815,0.11049426,-1.1278402,0.1532208583333333,0.4685198416666666,0.9265025766666668
463,4.630000477,0.2551890885714286,0.1048144814285714,-1.0363801857142858,-0.0532746085714285,0.4714868242857143,0.9893325714285716
464,4.640000477,0.2941330057142857,0.10319853,-0.9349718285714284,-0.1545007271428571,0.5065669,1.0071344
465,4.650000477,0.3712716666666666,0.12633867,-0.6799075600000001,-0.14385453,0.65001783,0.92100493
466,4.660000477,0.4842442685714285,0.1204251457142857,-0.5127563914285714,0.1362625785714285,0.7749688057142857,0.6380081228571429
467,4.670000477,0.4282719383333333,0.0805077533333333,-0.551521,0.4189394099999999,0.7484406233333334,0.4087077333333333
468,4.680000477,0.2923210914285714,0.0118604493714285,-0.6950623571428572,0.6017281628571428,0.6908464314285715,0.3292684857142857
469,4.690000477,0.1845737833333333,-0.0459427220666666,-0.7878203666666667,0.7357655,0.58473355,0.4060607299999999
470,4.700000477,0.1284047085714285,-0.0872655391428571,-0.8692841771428572,0.7907418,0.47218493,0.5856498
471,4.710000477,0.1478135,-0.0886637099999999,-0.98033154,0.7677041142857143,0.3884115928571429,0.7249230000000001
472,4.720000477,0.2068819933333333,-0.0639264946666666,-1.0145002466666666,0.67590248,0.3931820166666666,0.8108488266666667
473,4.730000477,0.2827821685714285,-0.0001393819999999,-1.0383793857142856,0.5139406985714287,0.5108428314285715,0.8470924400000001
474,4.740000477,0.4043020466666666,0.0695569026666666,-1.0334545666666666,0.30511821,0.7197307799999999,0.8232693950000001
475,4.750000477,0.6935161,0.09314568,-0.94005483,-0.005803049,0.9243646,0.46103698
476,4.760000477,0.67397735,0.0301084633333333,-0.9402580883333332,-0.008246438,0.7875348299999999,0.21791977
477,4.770000477,0.55195296,-0.09354204,-0.79901004,0.13835691,0.6164976,0.100637086
478,4.780000477,0.4005068228571428,-0.1094314714285714,-0.7351910057142856,0.4462239128571429,0.4257823542857143,0.127863418
479,4.790000477,0.25397822,-0.13528228,-0.81218153,0.8774821,0.15820944,0.28266957
480,4.800000477,0.21540892,-0.13967279,-0.9676479,1.0691136142857145,0.0178890985714285,0.4470747557142857
481,4.810000477,0.2351051933333333,-0.1362579566666666,-1.0249073666666666,1.127115,-0.029931515,0.5885004066666667
482,4.820000477,0.3319531585714285,-0.14897646,-1.028866642857143,1.1076841714285717,0.0384833765714285,0.7408050142857142
483,4.830000477,0.3952771233333333,-0.1678045133333333,-0.98080926,1.1063462166666669,0.1944530443333333,0.7984282583333333
484,4.840000477,0.5290160628571429,-0.2075338942857142,-0.9693074457142856,1.1315945857142855,0.3039401471428571,0.8486631857142858
485,4.850000477,0.7422035928571429,-0.2623193,-1.0393768142857145,1.1572502,0.3231382,0.8776348
486,4.860000477,0.8572451500000001,-0.2602286,-1.2414443,1.0558494,0.0922379339999999,0.7860077
487,4.870000477,0.8221211328571428,-0.2355320342857143,-1.358811842857143,0.8577604000000001,0.0756577954285714,0.7703002
488,4.880000477,0.7796542383333334,-0.1874855399999999,-1.3999191,0.3826958,0.040926766,0.7664605999999999
489,4.890000477,0.7779069028571428,-0.16406446,-1.3524612285714284,0.0078101171428571,0.0367381008571428,0.7633190857142856
490,4.900000477,0.8596189714285715,-0.1470599728571428,-1.154056837142857,-0.35834919,0.0800209928571428,0.741852157142857
491,4.910000477,0.9375548,-0.1399167,-0.97618496,-0.62764555,0.167983,0.6320742
492,4.920000477,0.9492627428571428,-0.1362927971428571,-0.8895771314285714,-0.6862868928571428,0.2245300114285714,0.5350367542857143
493,4.930000477,0.8952097,-0.1453641783333333,-0.7056610683333333,-0.7310823666666666,0.3206948233333333,0.34090367
494,4.940000477,0.7919930371428572,-0.1855116971428571,-0.6145131842857143,-0.6107163428571428,0.3266287571428571,0.2097169471428571
495,4.950000477,0.6808019,-0.25681376,-0.597169,-0.31489176,0.26205346,0.20203774
496,4.960000477,0.6933723285714286,-0.2770936914285714,-0.6617982142857143,-0.1874864742857143,0.2402375028571428,0.2439244042857143
497,4.970000477,0.70376056,-0.28291285,-0.75678194,-0.0286661888571428,0.22627528,0.2826695757142857
498,4.980000477,0.6703998933333333,-0.2766116666666666,-0.8212420733333333,0.0483587421666666,0.2182760816666666,0.2751357933333333
499,4.990000477,0.6283685085714286,-0.2755604957142857,-0.9038071285714286,0.058423176,0.2203413271428571,0.2824950485714286
500,5.000000477,0.6820824666666666,-0.2788475566666666,-0.9794728,-0.0094681334999999,0.278749975,0.29549736
501,5.010000477,0.8370610428571429,-0.2514824571428571,-0.9981375285714286,-0.1401894475714285,0.3425107914285714,0.25544324
502,5.020000477,0.9667245428571428,-0.2236193214285714,-1.0132254857142855,-0.2531089242857143,0.3259306442857143,0.115821005
503,5.030000477,0.9946617,-0.1990969849999999,-1.0436432,-0.38412111,0.2091133766666666,-0.0838387883333333
504,5.040000477,0.9077664,-0.13186745,-1.0349995,-0.5426504942857143,-0.00130896,-0.2601118457142857
505,5.050000477,0.8133401,-0.110860124,-0.8600197,-0.6188901000000001,-0.2677547273333333,-0.3511862666666667
506,5.060000477,0.839055842857143,-0.1399471862857143,-0.8035442714285714,-0.5299099857142857,-0.3985341942857143,-0.3339371028571429
507,5.070000477,0.92633456,-0.15943004,-0.77897835,-0.3552076800000001,-0.45019442,-0.32939938
508,5.080000477,0.9973448,-0.16821103,-0.85514134,-0.22082129,-0.39888325,-0.40025768
509,5.090000477,0.9604829,-0.17821163,-1.0232915,-0.20249587,-0.21929416,-0.4906630499999999
510,5.100000477,0.876789,-0.14406328,-1.2063204,-0.36131614,0.034818295,-0.4796677999999999
511,5.110000477,0.9136116,-0.073972084,-1.294391657142857,-0.6262493200000001,0.2138838078571428,-0.4095076314285714
512,5.120000477,1.0443699,0.0037502186666666,-1.3705576,-0.9870273916666664,0.2304930349999999,-0.3906877116666667
513,5.130000477,1.3132082142857142,0.0087374427142857,-1.276764442857143,-1.3756716714285715,0.0149221271428571,-0.579934
514,5.140000477,1.4894720833333337,-0.0549727255,-0.8374320083333333,-1.623733833333333,-0.3748566,-1.0171625333333334
515,5.150000477,1.3710252,-0.0405119492857142,-0.5942812285714286,-1.3810820142857143,-0.54653376,-1.2732238571428571
516,5.160000477,1.1800296428571428,-0.0400241142857142,-0.4398035571428571,-0.8711118428571429,-0.6899955885714285,-1.531175857142857
517,5.170000477,0.9519458,-0.110616215,-0.4397512700000001,-0.30023143,-0.7922689000000002,-1.7039584
518,5.180000477,0.77184385,-0.19019403,-0.6445193,0.10659285,-0.7421794,-1.7345008
519,5.190000477,0.5322718916666667,-0.17289118,-0.7964336833333334,0.2654131416666667,-0.6189919,-1.7080307166666666
520,5.200000477,0.2691184971428571,-0.1591861071428571,-0.8692841657142857,0.3055545285714285,-0.5409489142857142,-1.580218242857143
521,5.210000477,0.1051128466666666,-0.2056776483333333,-0.8812404333333332,0.2214321249999999,-0.37424575,-1.1434043333333337
522,5.220000477,0.0889642494285714,-0.2190807257142857,-0.8612915285714285,0.1854794057142857,-0.3238363114285714,-0.9505220142857144
523,5.230000477,0.3667679248571429,-0.2104042671428571,-0.8027384457142858,0.1556351528571428,-0.3201712342857142,-0.5933290428571428
524,5.240000477,0.61857265,-0.18726702,-0.86343455,0.1249182583333333,-0.3223237333333333,-0.5118391
525,5.250000477,0.6087463214285714,-0.14354496,-0.9552691357142856,-0.010689827,-0.28282228,-0.7327113
526,5.260000477,0.4017104333333333,-0.0609994916666666,-0.98195765,-0.1735824295,-0.2380268216666666,-0.9373451333333334
527,5.270000477,0.1446338714285714,-0.0109065589285714,-0.9307249857142856,-0.3569529671428572,-0.2730487157142857,-1.0526207285714286
528,5.280000477,-0.0641239542857142,0.0135635090714285,-0.8038709571428572,-0.5203109385714285,-0.2395393828571428,-0.7676168514285714
529,5.290000477,-0.06480053,0.0205906318333333,-0.7275271999999999,-0.5423305583333333,-0.1543407333333333,-0.5631757433333333
530,5.300000477,0.0357294371428571,0.0408342632857142,-0.6204282028571428,-0.4070424271428571,0.0613465142857142,-0.1803526514285714
531,5.310000477,0.2345650774285714,0.0444799455714285,-0.5404539928571429,-0.2483966685714285,0.2002706342857143,-0.0344474204
532,5.320000477,0.3672165599999999,0.0407950615,-0.58424139,0.1179953333333333,0.3915530933333333,-0.0256046815199999
533,5.330000477,0.2608079,0.09948751,-0.86416626,0.4572191685714286,0.4262841257142857,-0.1056547614285714
534,5.340000477,0.10534152,0.16394249,-0.96862364,0.5549547,0.12644538,-0.10949437
535,5.350000477,-0.036191136,0.23544057,-1.0554883,0.5340114085714286,-0.0316767942857142,-0.0665605342857142
536,5.360000477,0.0516696806666666,0.3100638283333333,-1.1173059666666667,0.3399365,-0.27182704,0.29122144
537,5.370000477,0.1786384691428571,0.3605567542857142,-1.076748385714286,0.2331254942857143,-0.1493085228571428,0.5142679771428572
538,5.380000477,0.4030723,0.37770495,-1.0308529,0.1336446485714285,0.0417994048571428,0.7472625485714285
539,5.390000477,0.59979105,0.30962172,-0.9449331,0.060168456,0.27182704,0.7994463399999999
540,5.400000477,0.6306117071428571,0.2849338685714285,-0.8985018771428572,0.0767485974285714,0.3756710614285715,0.6807674542857143
541,5.410000477,0.6083383666666666,0.25926308,-0.8428438866666667,0.1485376913333333,0.3577528766666666,0.4777334533333333
542,5.420000477,0.5477758714285714,0.2554765685714286,-0.8402798542857143,0.23609247,0.1892753875714286,0.2779573114285714
543,5.430000477,0.4587259399999999,0.2483681533333333,-0.85896274,0.3440088233333333,-0.1488431126666667,0.0143040066666666
544,5.440000477,0.1668520628571428,0.2200520485714285,-0.9930545,0.4055589471428572,-0.7524765428571428,-0.27913538
545,5.450000477,0.0842949857142857,0.18596468,-1.1472185285714287,0.20310672,-0.9449807,-0.20478654
546,5.460000477,0.1507405,0.15561883,-1.2387613,-0.0330875599999999,-0.5744000333333333,-0.0561470433333333
547,5.470000477,0.22467774,0.12708059,-1.2658665,-0.40651885,0.124001995,0.051769305
548,5.480000477,0.16439983,0.14366692,-1.0925941,-0.6691832,0.53326964,-0.020310672
549,5.490000477,0.0330507074285714,0.1760991314285714,-0.8785834942857144,-0.7194471714285714,0.5543438857142857,-0.1344518417142857
550,5.500000477,-0.0746689938333333,0.1947166416666666,-0.6893745933333334,-0.6537083666666667,0.4298837533333333,-0.2422518433333333
551,5.510000477,-0.1491550414285714,0.1896931214285714,-0.5452975057142858,-0.3792925114285714,0.0712945971428571,-0.3662247428571428
552,5.520000477,-0.2670277785714286,0.1733507057142857,-0.43251652,0.04515907,-0.3590909057142856,-0.4650074685714286
553,5.530000477,-0.4580297666666666,0.0810006566666666,-0.5378006816666666,0.6453601333333333,-0.68964654,-0.35912728
554,5.540000477,-0.5084138,0.024086772,-0.79044247,1.0865663142857145,-0.6842361514285714,-0.075810506
555,5.550000477,-0.52039623,0.0118909379999999,-1.0259744,1.2110047,-0.39643988,0.2716743
556,5.560000477,-0.4507231757142857,0.0156542228571428,-1.1755389714285711,1.1460803285714285,-0.078101186,0.5554564714285715
557,5.570000477,-0.20995127,0.02555027,-1.276355,0.9703309,0.29626092,0.812885
558,5.580000477,0.006524771,0.07851068,-1.3137047,0.7834116,0.4086568,0.7273663999999999
559,5.590000477,0.1007071,0.13293459,-1.3656895,0.56595,0.2339545,0.3987305500000001
560,5.600000477,0.0441743249999999,0.1144375733333333,-1.3498094166666668,0.3623342333333333,-0.062306425,0.0729453436666666
561,5.610000477,-0.0870651942857142,0.0668113914285714,-1.3028809,0.2064227371428571,-0.3772418171428571,-0.2086261564571428
562,5.620000477,-0.2694161266666666,0.0124702406666666,-1.2844043,0.0846023426666666,-0.6407787866666667,-0.38152502
563,5.630000477,-0.5274915714285714,-0.0259727725714285,-1.2630092857142858,-0.1155810317142857,-0.78773118,-0.2475458528571428
564,5.640000477,-0.627043725,-0.0218000525,-1.2393762333333334,-0.2476985783333333,-0.7745543166666667,-0.0351746216666666
565,5.650000477,-0.5737181471428572,0.037323605,-1.1465783142857142,-0.4747591971428571,-0.5058687885714286,0.4842491668571428
566,5.660000477,-0.4094751,0.0884023714285714,-1.0295418857142855,-0.60146638,-0.2791571928571428,0.8121868714285715
567,5.670000477,-0.30270058,0.10781116,-0.9602999,-0.6190937,-0.11911522,1.036455
568,5.680000477,-0.2169290371428571,0.0883413914285714,-0.9343750571428572,-0.5876787285714286,-0.1526245514285714,1.0720587428571429
569,5.690000477,-0.15187878,0.0860720966666666,-0.91214671,-0.5181002866666667,-0.2600173133333333,1.0201658066666666
570,5.700000477,-0.1574612742857142,0.1090176842857142,-0.9430907457142856,-0.4279857571428572,-0.4261095642857143,0.8977054914285715
571,5.710000477,-0.2429105133333333,0.1376503033333333,-1.0239317,-0.3934874333333333,-0.5670698333333334,0.8010752933333333
572,5.720000477,-0.3625603599999999,0.1679453442857143,-1.1680254142857145,-0.5621976028571429,-0.7296134371428572,0.8036350285714285
573,5.730000477,-0.31196943,0.13049541,-1.0777153,-0.7496404857142858,-0.6432221714285715,0.8715263
574,5.740000477,-0.3282305466666667,0.0519847374999999,-0.9398262166666664,-0.6453601333333333,-0.3860554733333333,0.9708908083333334
575,5.750000477,-0.52332324,-0.013019053,-1.1252791,-0.4148961971428572,-0.2016668628571428,1.1437896857142855
576,5.760000477,-0.66363627,-0.033264134,-1.4654818,-0.36151978,-0.2319183416666666,1.3966513
577,5.770000477,-0.6498724057142857,-0.0261208604285714,-1.6394683714285716,-0.56708444,-0.4289020514285714,1.6357835428571428
578,5.780000477,-0.62067646,0.058753427,-1.7983673,-1.057682,-0.7030852,1.7670284999999997
579,5.790000477,-0.5054258371428572,0.1622960467142857,-1.5596860142857143,-1.6755104,-0.8287451971428571,1.8089151
580,5.800000477,-0.44144996,0.2287110814285714,-1.3753590285714288,-1.898906,-0.8318866757142857,1.7970472
581,5.810000477,-0.36906624,0.3436379366666666,-1.1296695666666663,-1.9499262333333336,-0.7515457266666666,1.6847676333333332
582,5.820000477,-0.3669421428571429,0.5627810771428571,-0.7638468285714285,-1.6591047857142858,-0.6770805400000001,1.1877706714285716
583,5.830000477,-0.4327640833333333,0.6443363933333334,-0.5798966499999999,-1.1151017,-0.8814525999999999,0.5123481
584,5.840000477,-0.5865281,0.59247357,-0.45466065,-0.6056551,-1.0366077,0.12140589
585,5.850000477,-0.7493120000000001,0.57881427,-0.40389553,0.016187452,-1.1172396,-0.13881505
586,5.860000477,-0.9447807,0.5954006,-0.46002686,0.5481481788571428,-1.310965457142857,-0.2718052299999999
587,5.870000477,-0.9809871166666668,0.5762938083333333,-0.57919031,1.0277504666666666,-1.6211886,-0.30618721
588,5.880000477,-0.9155108,0.5397571,-0.7606846,1.3478345571428572,-1.7741623,-0.2562722428571428
589,5.890000477,-0.803492,0.5719845999999998,-0.8988024,1.4803010714285716,-1.611327857142857,-0.2014705214285714
590,5.900000477,-0.7172471066666667,0.5661306,-1.001471,1.4386471,-1.3542483333333335,-0.2157818
591,5.910000477,-0.6153494657142857,0.5457330571428571,-1.0756071857142857,1.2384055142857144,-1.0385275571428572,-0.3351588
592,5.920000477,-0.52429885,0.49484593,-1.044756,0.75409096,-0.51494426,-0.7388198
593,5.930000477,-0.6066991728571428,0.4877374899999999,-1.0349296285714285,0.54779908,-0.3494918942857143,-0.9440644571428572
594,5.940000477,-0.7552727183333334,0.50365235,-1.0306495666666666,0.2955482666666666,-0.2028012916666667,-1.12996565
595,5.950000477,-0.9960337,0.5614657,-1.0049672,-0.008246438,-0.067804046,-1.229941
596,5.960000477,-1.0995458666666666,0.6182271166666666,-0.94802795,-0.2057537146666666,-0.0118097137166666,-1.2055070833333332
597,5.970000477,-1.1272521857142856,0.6383603999999999,-0.8919771714285715,-0.3384530114285714,0.0308041529942857,-1.1786298285714287
598,5.980000477,-1.053772271428571,0.6153364571428571,-0.7347380028571429,-0.5129807971428572,0.1522754885714285,-1.1587336571428573
599,5.990000477,-0.9966943333333336,0.5465969333333334,-0.6237762166666667,-0.4065188566666666,0.39847604,-1.2270903333333332
600,6.000000477,-0.9688500857142858,0.51013428,-0.5751467771428571,-0.3302502171428571,0.5315462128571429,-1.2669408285714283
601,6.010000477,-0.8889847733333335,0.4349847466666667,-0.6084095333333334,0.0801228,0.7378525766666666,-1.3773587333333337
602,6.020000477,-0.8408199885714287,0.3415922257142857,-0.8455807357142857,0.4896813714285715,0.6533229714285714,-1.5056948857142858
603,6.030000477,-0.88084406,0.2520269,-1.2107109,0.6881194,0.13011047,-1.6795245
604,6.040000477,-0.8681604000000002,0.14513041,-1.4706041999999997,0.54151607,-0.37933615,-1.713732
605,6.050000477,-0.73952484,0.06826618,-1.6458278,0.14568707,-0.6420005,-1.7125103
606,6.060000477,-0.6362159733333334,0.0369381316666666,-1.6285503,-0.37964156,-0.59679776,-1.789477
607,6.070000477,-0.6092124,0.023598937,-1.5003924000000002,-0.8068856000000001,-0.4124964371428571,-1.907806857142857
608,6.080000477,-0.70147383,0.005549104,-1.3124851,-1.2433796,-0.0787993,-2.0558064
609,6.090000477,-0.7989098442857143,-0.0228715438571428,-1.0996242428571428,-1.3498416,0.0311532071428571,-2.088094042857143
610,6.100000477,-0.8979269785714286,-0.0524420857142857,-0.8857310857142856,-1.3275019999999995,0.0737379871428571,-2.028405557142857
611,6.110000477,-0.97065121,-0.079638793,-0.54969667,-0.95261627,0.0390942225,-1.6801353499999998
612,6.120000477,-0.8627463485714285,-0.0750740685714285,-0.3874180542857143,-0.1892317478571428,-0.0870021035714285,-1.0904932571428572
613,6.130000477,-0.66802675,-0.050826136,-0.5564044,0.5012002,-0.2596101,-0.6484144
614,6.140000477,-0.5659476442857143,0.0037676411428571,-0.7932039142857142,0.7514730571428572,-0.2795062542857142,-0.4566519657142857
615,6.150000477,-0.45523995,0.09534093,-1.131377,0.7650862000000002,-0.1667613099999999,-0.3416163300000001
616,6.160000477,-0.4065873214285714,0.1279430014285714,-1.267709,0.49910584,0.0123042071428571,-0.3426634928571428
617,6.170000477,-0.33294627,0.143423,-1.3163878,0.011300675,0.3023694,-0.3501682
618,6.180000477,-0.3005401842857143,0.1516116285714285,-1.1730867285714286,-0.2443825357142857,0.4681707999999999,-0.3440597214285714
619,6.190000477,-0.2302399071428571,0.1385795085714286,-0.8982275571428572,-0.4712686714285715,0.6414332514285714,-0.3280031614285714
620,6.200000477,-0.2001946,0.1068202549999999,-0.7590992,-0.4639384966666666,0.67065938,-0.3269559933333333
621,6.210000477,-0.2128564871428571,0.0507956472857142,-0.5783089857142857,-0.2229156085714285,0.6458182800000001,-0.3231163814285714
622,6.220000477,-0.36346635,-0.010061563,-0.513719,0.34848836,0.40499175,-0.2121167
623,6.230000477,-0.3948488357142857,-0.0044863246428571,-0.5672282142857143,0.55268588,0.27095439,-0.0791265345714285
624,6.240000477,-0.3650430657142857,0.0038416875571428,-0.6400504,0.707143,0.2213884928571428,0.0571796704285714
625,6.250000477,-0.30684718,0.026769854,-0.77434397,0.7650862000000002,0.30725616,0.15194826
626,6.260000477,-0.30513975,0.045795355,-0.93005425,0.66612893,0.5161659,0.2228065399999999
627,6.270000477,-0.2851945,0.0216069516666666,-0.991058875,0.4340069883333333,0.8604038166666665,0.3409036733333333
628,6.280000477,-0.2590787142857143,0.0331465345714285,-1.0362103714285713,0.2104368857142857,1.1639912571428572,0.4736029571428571
629,6.290000477,-0.121379036,0.051750988,-1.0436991333333332,0.0165946846666666,1.3727264666666663,0.5612159
630,6.300000477,0.0431906754285714,0.0666981437142857,-0.9663891714285714,-0.1621799455714285,1.3959386714285713,0.5182820685714286
631,6.310000477,0.1003564679999999,0.09486834,-0.83841785,-0.2558431933333333,1.2766198666666666,0.4329379933333333
632,6.320000477,0.084922198,0.0979238322857142,-0.6096217571428572,-0.1721280371428571,0.8816053285714286,0.3072779971428571
633,6.330000477,0.0522155878571428,0.077604706,-0.5238807071428572,0.0439373699999999,0.6466909285714285,0.2392121599999999
634,6.340000477,-0.0305759705,0.0330761166666666,-0.5004356916666667,0.3462486016666666,0.5043816849999999,0.18880271
635,6.350000477,-0.2331712545714286,0.0320314854285714,-0.6630700628571429,0.5736291971428572,0.5688297385714286,0.2788299457142857
636,6.360000477,-0.3495630999999999,0.04530752,-0.9195659,0.60687675,0.8133940333333333,0.5473700833333334
637,6.370000477,-0.2520835342857143,0.0154103068571428,-1.0059646142857144,0.4582663428571428,1.0367605142857144,0.8465688714285714
638,6.380000477,-0.1257869628571428,0.0085457947142857,-1.0753763428571428,0.2755357471428571,1.1215810142857143,1.0586201285714285
639,6.390000477,-0.1074453,0.0082321875,-1.084545,0.22631891,1.1271659,1.1036483
640,6.400000477,0.2328097414285714,-0.0116165315714285,-0.9075965371428572,0.0111261469142857,1.0636378142857144,1.2270394285714286
641,6.410000477,0.61296254,0.017744938,-0.6362262,0.2971772,0.8559497,0.9240592
642,6.420000477,0.4753326,-0.009085896,-0.71943223,0.5107992285714286,0.748091557142857,0.6978712
643,6.430000477,0.2908706166666666,-0.056065266,-0.8329296633333333,0.6736627333333334,0.7005909166666666,0.6062149833333333
644,6.440000477,0.1051019471428571,-0.0846477971428571,-0.9574208285714284,0.6982420285714286,0.7095209457142857,0.6922863114285713
645,6.450000477,-0.03078577,-0.0896045371428571,-1.1014711285714285,0.5785159657142858,0.7500113342857143,0.9488421285714284
646,6.460000477,0.12805626,-0.12503777,-1.1094245,0.32527617,0.7521057,1.224596
647,6.470000477,0.3070997914285714,-0.1373729985714285,-0.9994006142857144,0.1807671642857143,0.7594358571428571,1.2916146285714285
648,6.480000477,0.40813358,-0.1194836033333333,-0.8771446333333333,0.1078145383333333,0.7800010416666666,1.2956579
649,6.490000477,0.5005997742857143,-0.1337708757142857,-0.82205578,0.1161918714285714,0.7782848600000001,1.250949742857143
650,6.500000477,0.57221329,-0.16430837,-0.82719767,0.193333155,0.76432265,1.1354124
651,6.510000477,0.5832744542857143,-0.1702669114285714,-0.9616109742857144,0.2734414057142857,0.6925917428571429,0.9938703428571428
652,6.520000477,0.5450928,-0.1596739599999999,-1.0911917814285714,0.16209268,0.5574854142857143,0.8963092928571429
653,6.530000477,0.47368616,-0.1576006516666666,-1.1428664833333333,-0.0387888,0.4575246,0.8483141
654,6.540000477,0.3728309914285714,-0.1622873385714285,-1.072048557142857,-0.2356561457142857,0.4062134314285714,0.8849649885714286
655,6.550000477,0.33885614,-0.1742682966666666,-0.9198352166666668,-0.39979952,0.3233418283333333,1.0112067450000002
656,6.560000477,0.3900880828571428,-0.1850630571428571,-0.7856512685714285,-0.4313017928571429,0.3067325942857142,1.0832285428571429
657,6.570000477,0.4391327571428571,-0.2036442857142857,-0.6209247257142857,-0.3356605657142856,0.4360576871428571,1.1870725285714283
658,6.580000477,0.4645901133333334,-0.2095447533333333,-0.5406413200000001,-0.1499630016666666,0.6368337033333332,1.2983049
659,6.590000477,0.6016073657142857,-0.2045851142857143,-0.5854174142857144,0.2083425474285714,0.7224359642857142,1.4036615571428572
660,6.600000477,0.7473505066666667,-0.14844362,-0.747259,0.46210595,0.6580352150000001,1.39441155
661,6.610000477,0.8168899657142857,-0.0799523971428571,-1.043684592857143,0.6209262285714285,0.3931674714285714,1.2034782285714287
662,6.620000477,0.7555014,-0.04814305,-1.3093141,0.43889377,0.083686076,0.9570449599999998
663,6.630000477,0.7181517,-0.029849304,-1.3734949,0.1383569071428571,-0.0168419302857142,0.8680357657142858
664,6.640000477,0.7532959666666666,-0.025296192,-1.2688749,-0.24892027,-0.0303387466666666,0.7945595666666666
665,6.650000477,0.7990927857142857,-0.0328459937142857,-1.1460816142857142,-0.50966476,0.020507015,0.7401068714285713
666,6.660000477,0.8274873499999998,-0.026922302,-0.99179566,-0.6203154,0.2498365299999999,0.67483354
667,6.670000477,0.7038476814285713,-0.0549378774285714,-0.9280027514285716,-0.6087965399999999,0.5053452185714286,0.6622675342857143
668,6.680000477,0.6526702233333334,-0.0612332493333333,-0.9020648,-0.590587455,0.5602741666666667,0.6947878333333333
669,6.690000477,0.6132544400000001,-0.0295531182857142,-0.8651245057142857,-0.4913393428571429,0.49107755,0.7828661885714286
670,6.700000477,0.6798262599999999,-0.011311635,-0.8143768,-0.27824092,0.42576054,0.8422056400000001
671,6.710000477,0.8826429,-0.021068303,-0.8778255600000001,-0.1102579283333333,0.4176159066666667,0.8116632733333334
672,6.720000477,1.0893099857142856,-0.0367486575714285,-0.9684057942857144,0.0437628442857142,0.39190214,0.6599986314285714
673,6.730000477,1.2040337,-0.04911872,-1.1240596,0.09315421,0.3023694,0.3669665
674,6.740000477,1.1474146,-0.050826136,-1.2380295,-0.0157511325714285,0.1610018914285714,0.1282124771428571
675,6.750000477,1.1144857666666668,-0.0845933476666666,-1.21587375,-0.3352533371666666,-0.0295242849999999,-0.2027503766666667
676,6.760000477,1.0267280571428572,-0.13067835,-1.0892664857142855,-0.57354192,-0.0294079325714285,-0.4191066542857143
677,6.770000477,0.9600691428571428,-0.1947543928571428,-0.9321188,-0.7026925485714285,0.0034032915714285,-0.5754399357142856
678,6.780000477,0.8890559666666666,-0.25607185,-0.8149459,-0.7094990999999999,-0.0146603344999999,-0.65330115
679,6.790000477,0.8108487057142858,-0.2884880885714285,-0.7395858399999999,-0.6334049514285714,-0.0596012378571428,-0.7185745514285714
680,6.800000477,0.7100922266666667,-0.2831567833333333,-0.73750239,-0.4456130999999999,-0.10689827,-0.66673976
681,6.810000477,0.6480996542857144,-0.2551586257142857,-0.7687687057142857,-0.3967453057142857,-0.1348227157142857,-0.61219984
682,6.820000477,0.6671425699999999,-0.20263378,-0.6928453,-0.24892026,-0.1924168899999999,-0.48577628
683,6.830000477,0.7062650814285715,-0.1791916342857143,-0.6453599714285715,-0.0625245814285714,-0.1976527128571428,-0.4239934571428571
684,6.840000477,0.8823837999999999,-0.1748780766666666,-0.7163375416666667,0.2403683941666666,-0.1180971366666666,-0.3984251366666667
685,6.850000477,0.9690286485714286,-0.1701972042857142,-0.7699839571428572,0.3476157171428571,-0.0658842412857142,-0.4383047271428572
686,6.860000477,1.0642084142857142,-0.1506838842857143,-0.9464140571428572,0.4327852885714285,0.0534927698571428,-0.5646628185714285
687,6.870000477,1.0309289999999998,-0.1104180275,-1.1551181583333332,0.3570402266666666,0.0449990833333333,-0.6259657166666667
688,6.880000477,1.013826542857143,-0.0439572678571428,-1.2683797428571428,0.0687203165714285,-0.1089925992857142,-0.7136877557142858
689,6.890000477,1.0716608857142855,-0.0002352053542857,-1.1770678,-0.5046034837142858,-0.4503689614285714,-0.9053192657142856
690,6.900000477,1.0573788,-0.026678385,-0.90615046,-0.6993183233333333,-0.5615722266666667,-1.05564585
691,6.910000477,0.9868564,-0.070613876,-0.651349,-0.6581879,-0.57969403,-1.1603044
692,6.920000477,0.92901766,-0.11281146,-0.47002742,-0.38941512,-0.6090147,-1.2030637
693,6.930000477,0.8608733599999999,-0.1606038766666666,-0.4879146533333333,-0.020463383,-0.6310052,-1.173743
694,6.940000477,0.7133865571428571,-0.16493558,-0.7211831914285715,0.2643659624285714,-0.5105810342857142,-0.9569794914285714
695,6.950000477,0.72107863,-0.110860124,-0.99203956,0.2519745,-0.3048128,-0.6227588
696,6.960000477,0.8560081042857143,-0.0889076205714285,-1.1313595085714288,0.0037959814285714,-0.1561151085714285,-0.4561283857142856
697,6.970000477,1.0714547833333334,-0.0924037633333333,-1.1960657,-0.3837138841666667,-0.0305423625,-0.4863871333333333
698,6.980000477,1.1309806285714286,-0.0821824957142857,-1.2314437714285715,-0.7259047028571428,0.0566342672857142,-0.6237405042857143
699,6.990000477,1.00585135,-0.0579861074999999,-1.128948,-1.3510923833333333,0.1710372366666666,-0.8982509100000001
700,7.000000477,0.9344055357142856,-0.1111868034285714,-0.8432156,-1.5922607,0.2170253014285714,-1.0931111857142857
701,7.010000477,0.7169625583333333,-0.1768954783333333,-0.4984284666666667,-1.4693931000000002,0.102011494,-1.3044643
702,7.020000477,0.4745181085714285,-0.1828416857142857,-0.3446455542857142,-0.9782718685714286,-0.1597801837142857,-1.2060306142857142
703,7.030000477,0.1783284933333333,-0.1693543916666666,-0.3764193,-0.34360158,-0.5108718966666667,-0.9768465833333332
704,7.040000477,0.0315392961428571,-0.1283959942857143,-0.4621349714285714,0.0245647877142857,-0.6697503642857142,-0.7060085571428572
705,7.050000477,0.0074263909428571,-0.0038678222857142,-0.8070940799999999,0.2161962948571429,-0.6168684871428571,-0.2102187142857143
706,7.060000477,0.1024348395,0.0615127339999999,-0.9321224666666668,0.1758221983333333,-0.4506016683333333,0.0625609416666666
707,7.070000477,0.5260803342857143,0.1760512171428571,-0.9942261714285716,0.0380034242857142,-0.1447708021428571,0.1481086442857142
708,7.080000477,0.9569156,0.2013430533333333,-0.96819676,-0.0672950073333333,0.282007815,-0.1322993366666666
709,7.090000477,0.9721909,0.16882083,-0.8568486999999999,-0.0618264678571428,0.48405282,-0.6876394714285714
710,7.100000477,0.66738653,0.15708233,-0.7580015699999999,0.0461189708333333,0.4302400833333333,-1.1747610733333331
711,7.110000477,0.34794715,0.143423,-0.6515929,0.287054588,0.4683453114285714,-1.2910257285714286
712,7.120000477,0.1987224,0.1371508571428571,-0.6214299714285715,0.7418739771428572,0.5294300571428572,-1.0335971714285714
713,7.130000477,0.0999804291666666,0.161294975,-0.76821555,1.1804624,0.3695626,-0.64963603
714,7.140000477,0.033599522,0.18126057,-1.1133271,1.3040280285714283,-0.0241721,-0.3856191442857143
715,7.150000477,0.06436351,0.19565167,-1.2187601,1.1865708,-0.44042087,-0.16569231
716,7.160000477,0.0669769071428571,0.1733507057142857,-1.2921529571428572,1.0452033428571428,-0.5430431814285714,-0.0819189814285714
717,7.170000477,0.095528222,0.14654165,-1.3372949857142855,0.8153502285714286,-0.6182646571428572,-0.0407304241428571
718,7.180000477,0.14439867,0.1317963033333333,-1.2641490333333334,0.33504972,-0.7177454999999999,-0.050853034
719,7.190000477,0.1021139728571428,0.1575527414285714,-1.1063320571428572,-0.0524019714285714,-0.6783022285714286,-0.0805227592857142
720,7.200000477,0.15244792,0.22031774,-0.900022,-0.37964156,-0.23884128,0.103080474
721,7.210000477,0.1832075457142857,0.2215721514285714,-0.7333137142857142,-0.3838302285714285,0.2596100742857143,0.2454951505714285
722,7.220000477,0.30693865,0.1929787266666666,-0.52769342,0.0186308433333333,0.8946112166666667,0.3476229883333333
723,7.230000477,0.25007555,0.21736026,-0.46417344,0.6783458400000001,1.142175342857143,0.1769057257142857
724,7.240000477,-0.27364403,0.25739306,-1.0840572,1.2867497,0.63115793,-0.15103199
725,7.250000477,-0.3751235216666667,0.260035485,-1.26912895,1.2674062,0.2237991633333333,-0.2650567983333333
726,7.260000477,-0.5266465742857143,0.2632122042857143,-1.540704042857143,1.1197266428571429,-0.0650116014285714,-0.3192767657142857
727,7.270000477,-0.762712155,0.25446605,-1.8520593,0.655948159,-0.3386130066666666,-0.2544687833333333
728,7.280000477,-0.8962804857142858,0.2636085742857142,-1.8608359285714289,-0.4134999702857143,-0.6324014499999999,0.0699201928571428
729,7.290000477,-0.5814059,0.31718314,-1.1640923,-1.3741009,-0.6774296,0.59664506
730,7.300000477,-0.2749332971428571,0.2820591485714286,-0.7396511857142858,-1.3919027285714287,-0.5570054257142857,0.6270128942857143
731,7.310000477,-0.0675997614285714,0.2364554414285714,-0.2804562571428571,-0.7917017000000001,-0.2981807328571428,0.3252543428571429
732,7.320000477,-0.0939638146666666,0.1696694533333333,-0.3246886466666667,-0.149963,0.009162709,0.0896418299999999
733,7.330000477,-0.3061154199999999,0.08460859,-0.6947966,0.434356,0.2405865584285714,-0.1627253442857142
734,7.340000477,-0.4869186866666666,0.0583875566666666,-0.8778357250000001,0.6590024166666667,0.22418095,-0.30048594
735,7.350000477,-0.7347641057142857,0.026356068,-1.0918145642857142,0.7064448714285714,-0.0056721514285714,-0.26831466
736,7.360000477,-0.7830537866666667,-0.0057726943333333,-1.225508466666667,0.6302925833333334,-0.1740914666666666,-0.1188606966666666
737,7.370000477,-0.78649187,-0.0226711837142857,-1.2672603285714286,0.4305164371428571,-0.3594399757142857,0.0933069235714285
738,7.380000477,-0.7303474799999999,-0.0259466366666666,-1.0955111,0.1811162133333333,-0.49295375,0.36900265
739,7.390000477,-0.5984756557142857,-0.0574685128571428,-0.8449404428571429,0.1469087714285714,-0.4852745028571429,0.6430694428571428
740,7.400000477,-0.37224734,-0.12061679,-0.6862595,0.4266768,-0.2987043,0.9191724
741,7.410000477,-0.2871029857142857,-0.1235437922857143,-0.7711686371428572,0.6954496,-0.1435491,1.0315683
742,7.420000477,-0.12284253,-0.077931374,-0.95859253,0.8249492000000002,-0.124001995,1.0169079
743,7.430000477,-0.18995011,0.010183521,-1.1840935,0.77974653,-0.28037888,0.83854055
744,7.440000477,-0.250954685,0.0821643451666666,-1.3319425,0.4600697883333333,-0.5277720300000001,0.7397869250000001
745,7.450000477,-0.2476843085714286,0.1421642214285714,-1.332660442857143,0.1893190185714285,-0.6688777314285714,0.6929843857142857
746,7.460000477,-0.2172789333333333,0.1839335,-1.2372368,-0.043064725,-0.7452336549999999,0.66078401
747,7.470000477,-0.1902637142857142,0.1775844071428571,-1.0885782714285714,-0.3574765285714285,-0.7933160642857143,0.56959324
748,7.480000477,-0.26974136,0.12951976,-0.89270455,-0.5229288599999999,-0.7032597242857143,0.5015274142857143
749,7.490000477,-0.34517258,0.09973143,-0.8607514000000002,-0.4810421999999999,-0.5503734,0.536782
750,7.500000477,-0.3648601228571428,0.0715067871428571,-0.92732765,-0.4391555571428571,-0.50499615,0.5359093571428571
751,7.510000477,-0.44372509,0.0457597824999999,-1.0936766083333334,-0.4529432583333333,-0.5051707083333333,0.4653128833333333
752,7.520000477,-0.5068718685714285,0.060874629,-1.2471415857142856,-0.6014664185714286,-0.5214017714285715,0.3486410628571428
753,7.530000477,-0.54308045,0.08631601,-1.3014784,-0.84632885,-0.52593946,0.13484453
754,7.540000477,-0.6732927714285715,0.1469902885714285,-1.2545898285714288,-1.0304556714285715,-0.5992411671428571,0.0126750799999999
755,7.550000477,-0.8402363,0.2287807657142857,-1.168696285714286,-1.1634458285714284,-0.6739390285714286,-0.04404645
756,7.560000477,-0.9602490916666668,0.2670277766666666,-1.0728979333333333,-1.1904395333333333,-0.7491023666666666,0.0147112366666666
757,7.570000477,-0.9321623842857144,0.2674633514285714,-0.8904439142857142,-1.0154463285714286,-0.7936651142857143,0.2153018414285714
758,7.580000477,-0.8097423666666667,0.2483681599999999,-0.6961686533333333,-0.55475112,-0.6778368333333334,0.4915793333333333
759,7.590000477,-0.6714415714285715,0.2227568942857143,-0.8306103085714286,0.06906937,-0.4264586371428571,0.6949041857142858
760,7.600000477,-0.6685146,0.2212934,-1.0891794,0.4743229,-0.27304873,0.82388026
761,7.610000477,-0.5620450285714285,0.2152042057142857,-1.3249335428571432,0.47083234,-0.1732188322857142,0.9053847085714286
762,7.620000477,-0.42106113,0.21150625,-1.5899403,0.29106873,-0.056808796,0.9240592
763,7.630000477,-0.3624950185714286,0.2255401642857142,-1.6821932142857143,-0.0880056385714285,-0.0128277922857142,0.8518047142857142
764,7.640000477,-0.327824,0.26788148,-1.5726222000000003,-0.5797958666666666,0.0016289260833333,0.7287916916666667
765,7.650000477,-0.3243394857142857,0.2755648628571429,-1.4118288857142858,-0.8777439285714285,0.0170164595571428,0.6298053299999999
766,7.660000477,-0.3257681342857143,0.2877389142857143,-1.1223564314285714,-1.1060262714285714,0.0826389087142857,0.5065887214285715
767,7.670000477,-0.44301364,0.33965397,-0.67723465,-0.9037485,0.35368055,0.3755183499999999
768,7.680000477,-0.5277311471428572,0.38915597,-0.6268397285714286,-0.7103717285714285,0.4081332242857142,0.3748202471428571
769,7.690000477,-0.6004314,0.4499652999999999,-0.60595,-0.2527889583333333,0.42250268,0.3997486116666666
770,7.700000477,-0.5556334714285713,0.45118485,-0.6600036428571429,0.1709936028571428,0.2653694985714285,0.4016975285714285
771,7.710000477,-0.53405553,0.4806988,-0.8868505,0.4928519150000001,0.0089590925,0.3349988083333333
772,7.720000477,-0.5110315328571429,0.4823713685714286,-1.0596481,0.62476582,-0.206902689,0.2264716171428571
773,7.730000477,-0.48280257,0.5185364,-1.2392491,0.5657754614285714,-0.2100441957142857,0.0849295842857142
774,7.740000477,-0.473858945,0.5429279833333333,-1.27260985,0.3368822583333333,-0.0114024825,-0.1498102916666666
775,7.750000477,-0.4738124914285714,0.5495485857142858,-1.243892214285714,0.1896680714285714,0.1409311862857143,-0.3278286428571428
776,7.760000477,-0.5602460666666668,0.545855,-1.1892259,0.0259610086666666,0.35653119,-0.6019390866666666
777,7.770000477,-0.6382645557142858,0.5322653685714286,-1.1315338285714287,-0.0764868054285714,0.4259350814285714,-0.7616829157142858
778,7.780000477,-0.6831801,0.4941142,-0.93907917,-0.16706672,0.255945,-0.8756496
779,7.790000477,-0.66680723,0.4811866,-0.8202307,-0.120642334,0.09345963,-0.9147438
780,7.800000477,-0.6224579471428572,0.4316105371428572,-0.7290233285714286,-0.0389633277142857,-0.0803700471428571,-0.9702435942857144
781,7.810000477,-0.6588290866666666,0.4173312666666667,-0.6812795666666668,0.1090362333333333,-0.1329610866666666,-0.9908960533333334
782,7.820000477,-0.7439981228571428,0.42233737,-0.8102258285714286,0.487237947142857,0.0657097142857142,-0.8405694428571427
783,7.830000477,-0.7284317250000001,0.4123309883333333,-0.9799554733333332,0.60097188,0.1406984866666666,-0.7551090266666667
784,7.840000477,-0.6906151942857142,0.4002803314285714,-1.0449912857142858,0.6423931342857143,0.18857728,-0.7009472542857144
785,7.850000477,-0.6332534,0.37467125,-1.10210705,0.629478085,0.29259583,-0.64719267
786,7.860000477,-0.5877477000000001,0.35282546,-1.1421399,0.6123743700000001,0.3854446,-0.6032116400000002
787,7.870000477,-0.3029053,0.3092123,-1.1436294857142857,0.5327896814285714,0.6037352285714286,-0.6590169485714286
788,7.880000477,-0.0960269466666666,0.2943769233333334,-1.2765074333333333,0.4472420166666666,0.4797441583333333,-0.9029340583333332
789,7.890000477,-0.15211253,0.27718082,-1.5074661,0.19944163,0.21685077,-1.1554176
790,7.900000477,-0.23608086,0.25031948,-1.5748175,-0.18172707,0.033596598,-1.3301198
791,7.910000477,-0.2887929771428572,0.1999071285714286,-1.5218963,-0.4627168057142857,-0.0082900698571428,-1.392077228571429
792,7.920000477,-0.38541883,0.13927643,-1.3539509,-0.8357408666666667,0.0431665404999999,-1.3893720333333333
793,7.930000477,-0.4663817414285714,0.1334224185714285,-0.9924926,-1.0061963571428572,0.179327308,-1.198525914285714
794,7.940000477,-0.4876808971428571,0.1321679899999999,-0.8495443557142857,-0.980540742857143,0.2032376142857142,-1.1215592428571428
795,7.950000477,-0.5169029714285714,0.11471052,-0.6206938457142857,-0.5878532071428572,0.140407605,-0.8967674428571428
796,7.960000477,-0.5459261599999999,0.1193565533333333,-0.5642300666666666,-0.18783553,0.088980081,-0.6789567333333334
797,7.970000477,-0.5641444028571428,0.1334921128571428,-0.6395059857142857,0.1024041785714285,0.071469128,-0.4809549471428571
798,7.980000477,-0.60823673,0.15927759,-0.95273846,0.3073579866666666,0.141105716,-0.1290414783333333
799,7.990000477,-0.5601241357142858,0.1540507928571428,-1.0765871514285714,0.2376632228571428,0.2657185642857143,0.1997688685714285
800,8.000000477,-0.40349916,0.16662557,-1.0425608,0.0259610079999999,0.4685198400000001,0.6650599
801,8.010000477,-0.1470207771428571,0.1935957842857142,-0.8789885428571429,-0.0127841608571428,0.5649900857142857,0.8734461057142857
802,8.020000477,0.3676260057142858,0.2773811628571428,-0.5854217285714286,0.2603518301428571,0.6302852942857143,0.7668096485714286
803,8.030000477,0.6083790116666666,0.3119389283333333,-0.4946680583333334,0.4952952916666666,0.6272892666666667,0.5620303666666667
804,8.040000477,0.5442129571428572,0.3017467057142857,-0.6555260428571429,0.9614299142857144,0.4879360857142857,-0.1321829971428571
805,8.050000477,0.28170344,0.2141283466666666,-0.9255011333333332,1.17557555,0.40071581,-0.61290887
806,8.060000477,-0.2356234842857143,0.1240534057142857,-1.2571726714285714,1.0612598714285717,0.3505390714285714,-0.9068899771428572
807,8.070000477,-0.5999436,0.11025034,-1.4586521,0.6736627500000001,0.3139754833333333,-0.7078701666666666
808,8.080000477,-0.6037765285714285,0.1022141542857143,-1.4209974571428572,0.0481260457142857,0.4425151885714286,-0.2072735671428571
809,8.090000477,-0.40052424,0.0849918914285714,-1.1952961714285717,-0.32920304,0.6328814142857143,0.1446180865714285
810,8.100000477,-0.1510098333333333,0.0558264266666666,-0.8626621,-0.4498890133333333,0.8866956916666666,0.4048390099999999
811,8.110000477,0.07387626,0.039209604,-0.4883212,-0.2614862542857143,0.9716616657142856,0.5748290628571429
812,8.120000477,0.21248192,0.014574022,-0.35337427,0.56961507,0.6934643399999999,0.6833854
813,8.130000477,0.2433417128571428,0.0210203898571428,-0.4067092771428572,0.7825389485714285,0.6280164542857143,0.6912391428571428
814,8.140000477,0.2800773133333333,0.0392502586666666,-0.6576552466666666,1.1617297,0.4746792333333333,0.6618020800000001
815,8.150000477,0.22136309,0.0792119441428571,-0.9494281885714286,1.3303817285714286,0.2994024228571428,0.5407961542857143
816,8.160000477,0.10509759,0.07241276,-1.2768428,1.0277505,0.28526568,0.41583428
817,8.170000477,0.11903133,-0.015214303,-1.2299803,0.5903839,0.3976615700000001,0.42438614
818,8.180000477,0.1798972671428571,-0.0986599381428571,-1.0168320142857143,0.2657621971428571,0.5485844814285714,0.4777916342857143
819,8.190000477,0.1869926233333333,-0.1510098323333333,-0.7982681333333334,0.1882427633333333,0.7071065999999999,0.5549038083333333
820,8.200000477,0.1562199228571428,-0.1632281685714285,-0.6319706571428572,0.4003231085714285,0.8793364371428571,0.7790266085714286
821,8.210000477,0.24519724,-0.1686988599999999,-0.5471356,0.5745019000000001,0.83518094,0.9203941
822,8.220000477,0.3838029,-0.109640546,-0.711383,1.0534061,0.532048,1.1500727
823,8.230000477,0.4220890714285715,-0.0646640488571428,-0.8293777142857143,1.1118728857142857,0.4404208785714285,1.1875961285714285
824,8.240000477,0.5586199666666667,-0.0064129739999999,-1.1285516333333334,0.9609645333333332,0.2653113233333333,1.159439033333333
825,8.250000477,0.6582178285714286,0.0161420572857142,-1.3393246571428572,0.7174401,0.1751386357142857,1.0781672742857142
826,8.260000477,0.7268107333333332,-0.0232178165,-1.3616039333333332,-0.220210425,0.2714198,0.7283844933333333
827,8.270000477,0.6880192285714285,-0.1052108442857142,-1.1467262857142857,-0.8695410499999999,0.590842,0.48302746
828,8.280000477,0.5551194714285714,-0.1450650845714285,-0.9336128142857144,-1.1397101214285714,0.8903316914285714,0.4128673085714286
829,8.290000477,0.3606308,-0.14089237,-0.5310371,-1.1981769,1.1613734,0.4500417
830,8.300000477,0.4035165714285714,-0.1448647214285714,-0.1679061457142857,-0.82224402,1.0011568571428573,0.5474282142857143
831,8.310000477,0.5353666,-0.25193545,-0.04463675,-0.17073181,0.6812473999999998,0.62840915
832,8.320000477,0.5104609857142857,-0.2962847071428571,-0.2076079271428571,0.3465685442857142,0.5208999971428572,0.7310314785714286
833,8.330000477,0.5089524666666667,-0.2987979083333333,-0.46194259,0.7972574949999999,0.399494105,0.9171362833333332
834,8.340000477,0.5980532000000001,-0.3194262828571429,-0.7487893285714285,0.967887517142857,0.3470485028571429,1.0668229571428571
835,8.350000477,0.73536305,-0.31171025,-1.01618735,0.9902852333333332,0.34227808,1.2001622
836,8.360000477,1.0215404285714285,-0.2422223257142857,-1.3031335285714287,0.5198746457142857,0.5149442314285715,1.2856808
837,8.370000477,1.1392824714285714,-0.1607933542857142,-1.2231244999999995,0.0688948445714285,0.5768579328571429,1.1451859857142856
838,8.380000477,1.143268,-0.09622513,-1.0838132,-0.4260659500000001,0.5088358,0.88496494
839,8.390000477,1.1798859,-0.14333153,-0.90416855,-0.5611504557142857,0.4501944314285714,0.7676823057142858
840,8.400000477,1.05114365,-0.19153048,-0.7858182083333333,-0.6203154,0.4086568,0.55755085
841,8.410000477,0.8863017,-0.19629194,-0.68650347,-0.52135813,0.46241137,0.5734328599999999
842,8.420000477,0.79111326,-0.16894278,-0.6149749,-0.35337513,0.5072068116666667,0.6477526016666667
843,8.430000477,0.7951204314285715,-0.1558758228571428,-0.6251018285714285,-0.1382696371428571,0.5240196857142857,0.7394088
844,8.440000477,0.8220471571428571,-0.20357024,-0.6590497771428571,0.0634844842857142,0.4652038214285715,0.8111397285714286
845,8.450000477,0.91046475,-0.185666325,-0.6373085399999999,0.226318915,0.4239279949999999,0.83182127
846,8.460000477,1.2960513,-0.16723536,-0.6130236,0.5657754457142857,0.1665867714285714,0.6601731714285715
847,8.470000477,1.3717162166666668,-0.1857577849999999,-0.79037135,0.8408313,-0.29503924,0.2509055
848,8.480000477,1.2540104857142855,-0.1789825671428571,-1.2732799285714285,0.6617657314285713,-0.5913874342857143,-0.1637725171428571
849,8.490000477,1.1545795333333333,-0.1719510916666666,-1.49204335,0.1707318033333333,-0.6204171916666666,-0.4069770033333333
850,8.500000477,1.056302957142857,-0.1623221942857143,-1.447471142857143,-0.5016365042857143,-0.5189583557142857,-0.5874823628571428
851,8.510000477,1.020029,-0.16845496,-1.0567081,-1.0686773,-0.3891097,-0.74859333
852,8.520000477,1.009256,-0.1879937016666666,-0.8911750166666667,-1.1521598,-0.3585673333333333,-0.8239311633333334
853,8.530000477,0.9111812,-0.26291168,-0.4099934,-0.9625643857142856,-0.3398928714285714,-0.9154418757142856
854,8.540000477,0.8376403333333333,-0.2632368933333333,-0.3130162333333333,-0.6349757333333333,-0.30196216,-0.9037485333333332
855,8.550000477,0.7878029285714285,-0.2614830285714286,-0.28615345,-0.0508312262857142,-0.2100441914285714,-0.7698857142857143
856,8.560000477,0.9003421566666666,-0.2379254733333333,-0.3643454616666666,0.5121954,-0.18142164,-0.60199
857,8.570000477,1.0598439942857143,-0.2112057057142857,-0.5784396428571429,0.8650906285714285,-0.4170341485714285,-0.5568309142857143
858,8.580000477,1.4024599,-0.21824445,-1.1372614,0.94426805,-1.0131919833333332,-0.7561016500000001
859,8.590000477,1.4476454714285716,-0.2462861614285714,-1.3449739428571428,0.5807848514285715,-1.3203899142857145,-1.1325545
860,8.600000477,1.2731405999999998,-0.28058258,-1.4040322142857142,-0.11575556,-1.2259705,-1.5475815999999998
861,8.610000477,1.044939,-0.3280679,-1.2182723,-0.7314896000000001,-0.899778,-1.7516046
862,8.620000477,0.8426624142857142,-0.3529735571428571,-0.8779301857142857,-0.9932813428571428,-0.7112879999999999,-1.7589347142857144
863,8.630000477,0.678987775,-0.3707431666666667,-0.549696725,-0.9452861333333332,-0.5831555,-1.5707937333333335
864,8.640000477,0.6312345428571428,-0.3485002885714285,-0.4082468157142856,-0.6909991285714285,-0.5303026857142857,-1.3199973142857144
865,8.650000477,0.6439705,-0.30245668,-0.41340828,-0.030236939,-0.5161659,-0.7815791
866,8.660000477,0.7420772714285714,-0.29806618,-0.5916416828571428,0.2097387745714285,-0.5737600857142856,-0.5720366571428571
867,8.670000477,1.0837218,-0.16821103,-1.0662208,0.31061584,-0.6529957,-0.4369085
868,8.680000477,1.0494340285714288,0.0037240871428571,-1.2101402285714289,-0.0202888571428571,-0.6728918714285713,-0.7344347428571429
869,8.690000477,0.9130323428571429,0.0780184928571428,-0.9655092571428572,-0.4984950114285715,-0.7243775628571428,-1.113880035714286
870,8.700000477,0.7647702,0.05411901,-0.597169,-0.7461499000000001,-0.7299624699999999,-1.4596194999999998
871,8.710000477,0.58661956,-0.025214886,-0.33065954,-0.5796504142857143,-0.5624158042857142,-1.4763741571428572
872,8.720000477,0.4570084,-0.07695571,-0.10393899,-0.1293978108333333,-0.3644721933333333,-1.3162740166666669
873,8.730000477,0.4225115857142857,-0.0694422064285714,-0.0469452471428571,0.4943936005714285,-0.3287230885714285,-1.072516892857143
874,8.740000477,0.4108036028571428,-0.10531103,-0.2162539285714285,1.1240898642857142,-0.45647742,-0.8316685471428571
875,8.750000477,0.331909625,-0.0993147366666666,-0.8619303666666666,1.6972391333333334,-0.774757925,-0.5096247866666667
876,8.760000477,0.2908488471428572,-0.05149255,-1.1283977085714283,1.5717536285714286,-0.8934950228571429,-0.4477292185714286
877,8.770000477,0.3570431766666666,-0.0188323991666666,-1.3366838,1.0452614833333334,-0.99954975,-0.5358657766666667
878,8.780000477,0.4200985714285714,-0.0153188384285714,-1.3776065714285717,0.5959687642857142,-0.9615608285714284,-0.6101491714285715
879,8.790000477,0.4116399,-0.04472822,-1.3305349,0.02351762,-0.6603259,-0.64719266
880,8.800000477,0.3645726771428572,-0.0428465771428571,-1.1234497,-0.24403349,-0.33535513,-0.5114319
881,8.810000477,0.4019543533333333,-0.025946636,-0.9335605666666668,-0.20616095,-0.13377555,-0.3306211
882,8.820000477,0.4430354457142857,-0.0350760875714285,-0.8588349571428572,-0.0813735821428571,-0.11806805,-0.2791353857142857
883,8.830000477,0.3777485114285714,-0.0380379335714285,-0.9487443428571428,0.0062393678571428,-0.1711245014285714,-0.2697108714285715
884,8.840000477,0.263750135,-0.015686891,-1.01169015,0.0027488125,-0.286487365,-0.2866400699999999
885,8.850000477,0.0185681565714285,0.0579824787142857,-1.0358009285714285,-0.1504865864285714,-0.4589208228571428,-0.2815787628571428
886,8.860000477,-0.2110997198333333,0.0706646883333333,-0.80522485,-0.2715216016666666,-0.5308262866666668,-0.1174353833333333
887,8.870000477,-0.2253223771428571,0.0515753071428571,-0.5561082485714286,-0.1293687207142857,-0.4144162471428571,0.2290895485714285
888,8.880000477,-0.06378421,0.011159187,-0.42633584,0.3523279707142857,-0.16868111,0.7160220657142856
889,8.890000477,0.0008841979,-0.0610706359999999,-0.53250057,0.9593355999999998,-0.012827792,1.0853229
890,8.900000477,0.0692244208285714,-0.0872263388571428,-0.7176376985714287,1.2272358142857145,0.051747488,1.262468542857143
891,8.910000477,0.2147330516666666,-0.1025669616666666,-1.1028387583333334,1.4087156500000002,0.0999753333333333,1.3597969666666667
892,8.920000477,0.2359283957142857,-0.0528210271428571,-1.5009760714285714,1.1975661,0.0198089035714285,1.1975442857142855
893,8.930000477,0.146837833,0.0167692719999999,-1.7306497500000002,0.73393301,-0.1172826735,0.9833114
894,8.940000477,0.0367704374285714,0.12445848,-1.6443076285714286,-0.1812034657142857,-0.2798553171428571,0.7610502714285714
895,8.950000477,0.1087432811428571,0.1269063542857142,-1.300559314285714,-0.75819234,-0.2093460828571428,0.5917582657142857
896,8.960000477,0.0606946003333333,0.1331784966666666,-1.04613828,-0.93836315,-0.0521256325,0.3028275183333333
897,8.970000477,-0.0924444267142857,0.1424473385714285,-0.8595100528571429,-0.91003152,0.0505257967142857,0.1763821442857143
898,8.980000477,-0.43715966,0.13220283,-0.8878262,-0.67406994,0.255945,0.0762032
899,8.990000477,-0.59140646,0.116836086,-0.99155176,-0.6143814428571429,0.41720868,0.1379860314285714
900,9.000000477,-0.66436803,0.102170594,-1.1184493,-0.637942682857143,0.6641218514285715,0.2362451671428571
901,9.010000477,-0.77858204,0.10756725,-1.1606774,-0.7925743500000001,0.9084826,0.31443363
902,9.020000477,-0.8363118628571428,0.1429003242857142,-1.0920758857142858,-0.94336635,0.9231429142857144,0.4390464557142857
903,9.030000477,-0.7429600333333334,0.1665341099999999,-0.9966740066666668,-1.0198095166666663,0.89382226,0.5656954466666667
904,9.040000477,-0.5458811571428571,0.1850238685714285,-0.8206228342857144,-1.0224274142857142,0.7480915485714286,0.6542392485714286
905,9.050000477,-0.4520386,0.13220283,-0.6613496,-0.6630747,0.54793,0.60397524
906,9.060000477,-0.5453367142857143,0.1142226985714285,-0.7385491999999999,-0.4096603628571428,0.4892886571428572,0.6846070885714285
907,9.070000477,-0.5777471,0.09095043,-0.8597758000000001,-0.149963,0.37689275,0.8715263
908,9.080000477,-0.53889835,0.0744860466666666,-0.9693858416666666,-0.051005747,0.23028941,1.0181297
909,9.090000477,-0.44008666,0.06972968,-1.1062536,-0.0897509175714285,0.1255727428571428,1.0935256142857144
910,9.100000477,-0.3237688933333333,0.0908691216666666,-1.1884230166666667,-0.2519744909999999,0.0663787358333333,1.0775855166666666
911,9.110000477,-0.2783568257142857,0.1543774671428571,-1.2477383285714283,-0.5091412000000001,0.05803049,1.007308942857143
912,9.120000477,-0.22496739,0.201642855,-1.24060595,-0.72130882,0.0625100366666666,0.9590810866666668
913,9.130000477,-0.10896106,0.2607382028571428,-1.0599529285714284,-1.1253987885714285,0.0269645435714285,0.8156774385714286
914,9.140000477,-0.0780010657142857,0.3073088714285714,-0.8619971285714285,-1.1917193428571429,-0.1171954104285714,0.6771023500000001
915,9.150000477,-0.06768687,0.3386783,-0.5647281,-0.8793146,-0.57358557,0.3669665
916,9.160000477,-0.0849352688571428,0.3196397428571428,-0.5355365014285715,-0.7379471128571428,-0.6426985971428572,0.2910469057142856
917,9.170000477,-0.2790102,0.22275689,-0.5998521,-0.1941476216666666,-0.6951441916666666,0.1368806966666666
918,9.180000477,-0.3930934914285714,0.1899849471428571,-0.7465679285714286,0.0563288514285714,-0.5950524785714286,0.1940094571428571
919,9.190000477,-0.62116426,0.15610667,-1.0801545,0.35215345,-0.35490227,0.4891359499999999
920,9.200000477,-0.6207461457142857,0.16470473,-1.234736614285714,0.3896769142857142,-0.2641478128571429,0.8032859571428571
921,9.210000477,-0.37865014,0.19603496,-1.3918494714285714,0.3907240857142857,-0.22348283,1.0842757028571428
922,9.220000477,-0.137548676,0.2195758233333333,-1.518198333333333,0.32161108,-0.2942247566666667,1.1301184
923,9.230000477,0.0992261765714285,0.2962019571428572,-1.7126740571428571,-0.0054539942857142,-0.6090147428571429,0.7900218885714285
924,9.240000477,0.0513749483333333,0.37534203,-1.8545543166666667,-0.5596378883333334,-0.8203678566666667,0.2093679033333333
925,9.250000477,-0.17149955,0.44772646,-1.6748407428571428,-1.084733842857143,-0.9287496428571428,-0.3198003642857143
926,9.260000477,-0.3173254366666666,0.4367683466666667,-1.3235019833333332,-1.4231722666666666,-1.0553404416666667,-0.6654926283333333
927,9.270000477,-0.3855538457142857,0.3282378,-0.8682126714285714,-1.4997608857142857,-1.1053716857142857,-0.9006070185714286
928,9.280000477,-0.53039676,0.20760359,-0.3299278,-1.131856357142857,-0.9161836285714288,-0.9285314571428572
929,9.290000477,-0.6570505,0.098267935,-0.08954791,-0.19760908,-0.49417543,-0.5971032
930,9.300000477,-0.6968002171428572,0.0307117227142857,-0.1887000271428571,0.7280862971428572,-0.18211975,-0.1623981085714285
931,9.310000477,-0.724173335,-0.0145892659999999,-0.43206789,1.2240361066666667,-0.1260381546666666,0.1124467933333333
932,9.320000477,-0.6837289142857143,-0.066310492,-0.8964416999999999,2.0162759142857145,-0.1974781994285714,0.6366119071428572
933,9.330000477,-0.3901904599999999,-0.0801266299999999,-1.6030204,1.977618,-0.491121215,0.826934455
934,9.340000477,-0.0838986214285714,-0.0216301822857142,-2.1962127,1.28483,-0.8210660185714287,0.7041541542857143
935,9.350000477,-0.056954544,0.06363176,-2.25815,0.36111255,-0.8783983416666666,0.3985269283333333
936,9.360000477,-0.1055854197142857,0.0978018742857142,-2.0174130714285714,-0.6213625514285714,-0.76992935,0.0974955871428571
937,9.370000477,-0.21312219,0.12927583,-1.4693844000000005,-1.377766,-0.52227443,-0.113159455
938,9.380000477,-0.3457315566666666,0.17710383,-1.0979604,-1.5251838,-0.3194731233333333,-0.1343354916666666
939,9.390000477,-0.5369041771428572,0.3139686614285714,-0.50725086,-1.3676433428571428,-0.1185916342857142,-0.0297351714285714
940,9.400000477,-0.54869056,0.3886812,-0.2584297,-0.7946104750000001,-0.0553834833333333,0.1639615856666666
941,9.410000477,-0.5146641714285715,0.3999884914285714,-0.2539695285714285,-0.3319954882857143,-0.0877002114285714,0.2521272128571428
942,9.420000477,-0.45595647,0.408712865,-0.3256745,0.131841202,-0.1325538566666666,0.2957009799999999
943,9.430000477,-0.4106423971428571,0.40519351,-0.6247446285714285,0.76019944,-0.1641433885714285,0.2268206785714285
944,9.440000477,-0.4450564342857143,0.4003848571428571,-0.8397267285714286,0.92059045,-0.1613509414285714,0.1088398964285714
945,9.450000477,-0.4435472099999999,0.39911883,-1.0519262333333332,0.7797465450000001,-0.1362189383333333,-0.0761013891666666
946,9.460000477,-0.4728019428571429,0.4190662414285714,-1.1186715428571428,0.4828747742857143,-0.0328984871428571,-0.2545269557142857
947,9.470000477,-0.53698254,0.45655105,-1.0117968,0.046729814,0.1692047,-0.43080002
948,9.480000477,-0.5890674771428571,0.4801760928571428,-0.8969643085714285,-0.0726471888571428,0.4027228828571428,-0.4496490285714286
949,9.490000477,-0.66168493,0.5407328,-0.7809297,-0.0841660222857142,0.7088009714285715,-0.4297528528571429
950,9.500000477,-0.70235807,0.5841702666666667,-0.7438340333333334,-0.002952428,0.8844559233333333,-0.4047372
951,9.510000477,-0.7565816171428572,0.6300193257142856,-0.7078635714285715,0.1640124934285714,0.9786427714285716,-0.3634323057142857
952,9.520000477,-0.7574425966666666,0.6705777566666667,-0.7017889333333334,0.4490745566666667,0.8795691400000001,-0.30455827
953,9.530000477,-0.6795823671428571,0.6774045285714286,-0.7623877428571427,0.688992082857143,0.5883331542857143,-0.2897815857142857
954,9.540000477,-0.4959740766666667,0.6414500333333334,-0.9044227333333332,0.91250398,0.1525081933333333,-0.32980662
955,9.550000477,-0.3180063657142857,0.5897948714285715,-1.0413325142857144,0.9075008685714284,-0.1103888285714285,-0.4899649428571429
956,9.560000477,-0.21434177,0.48289403,-1.1865326,0.6732845657142857,-0.2213885057142857,-0.9051229371428572
957,9.570000477,-0.21434177,0.48289403,-1.1865326,0.63558656,-0.22662434,-0.96483326
958,9.580000477,-0.1796010728571428,0.3030316171428571,-1.2864949142857145,0.2352198257142857,-0.0409267657142857,-1.3732282085714285
959,9.590000477,-0.37688175,0.15854584,-1.1909232,-0.27335414,0.32924667,-1.9751747
960,9.600000477,-0.4781724999999999,0.0963253042857142,-1.1518964857142855,-0.4356649914285714,0.4140671871428571,-2.157381585714286
961,9.610000477,-0.6352098,-0.0101225433333333,-1.0459858,-0.5380546333333333,0.4444931983333333,-2.281412733333333
962,9.620000477,-0.7689879333333334,-0.0739372366666666,-0.9478804933333334,-0.5268557500000001,0.4135435999999999,-2.2922043999999997
963,9.630000477,-0.8657778714285714,-0.1135954714285714,-0.854161342857143,-0.3511935285714286,0.2355252528571428,-2.131377
964,9.640000477,-0.8623065,-0.1691867,-0.6847961,-0.1588639194285714,0.0327239611428571,-1.9657500857142856
965,9.650000477,-0.806419,-0.2704731,-0.68040556,0.44255883,-0.47218493,-1.5866758
966,9.660000477,-0.7357006,-0.2715184714285714,-0.8828912371428571,0.6729354899999999,-0.4470529357142857,-1.3269784
967,9.670000477,-0.6995225,-0.13772145,-1.2272972,0.70888823,-0.13011047,-1.0112576
968,9.680000477,-0.6443015342857142,-0.0373148957142857,-1.4224654571428572,0.4774644071428571,0.2353507214285714,-0.8468524571428571
969,9.690000477,-0.5868990900000001,0.0324968133333333,-1.5438705833333335,0.0805300333333333,0.601811795,-0.7217160499999999
970,9.700000477,-0.5261674785714285,0.0692679807142857,-1.5191130714285712,-0.3166370397142857,0.8261054914285715,-0.6227587685714285
971,9.710000477,-0.4728194071428571,0.1019092564285714,-1.3700364142857142,-0.6269474728571429,0.9248882142857144,-0.5273793285714286
972,9.720000477,-0.3552443133333333,0.1120390533333333,-1.0775425333333333,-0.8051985,0.8702028199999999,-0.4079950666666667
973,9.730000477,-0.1968930342857142,0.0828358442857142,-0.80384046,-0.63619745,0.6959077,-0.3025221
974,9.740000477,-0.10318692,0.0469793691666666,-0.7125263283333333,-0.31733516,0.56029963,-0.26098448
975,9.750000477,-0.0611490371428571,0.0286514977142857,-0.7392112285714286,-0.0398359671428571,0.4746719442857143,-0.2714561657142857
976,9.760000477,-0.16064961,-0.016433885,-0.95176286,0.2707071516666666,0.3895169366666666,-0.26546404
977,9.770000477,-0.30782285,-0.032532386,-1.0818619,0.32405448,0.39888325,-0.18523943
978,9.780000477,-0.42691517,-0.036922887,-1.1582383,0.23242739,0.4086568,-0.012980504
979,9.790000477,-0.42032942,-0.07207738,-1.2107109,0.058946762,0.46607646,0.19959435
980,9.800000477,-0.3008712028571428,-0.0668244571428571,-1.149217842857143,-0.1054584082857142,0.6578388514285713,0.3891315214285714
981,9.810000477,-0.1307545729999999,-0.0381424695,-1.08539875,-0.18294875,0.819298875,0.473253905
982,9.820000477,0.1155729394285714,0.0045211701428571,-1.0271243714285714,-0.2346089742857142,1.0273360142857142,0.4917538428571428
983,9.830000477,0.30901193,0.0160375215,-1.02329135,-0.228762295,1.1919157,0.300384135
984,9.840000477,0.2832221,0.0055142588571428,-0.9950493,-0.1558969471428571,1.1987223,0.0859767528571428
985,9.850000477,0.0988341671428571,-0.0212730186428571,-0.9078012,0.09315421,0.88893545,0.06398625
986,9.860000477,-0.02239968,-0.0333860955,-0.8379198333333333,0.3399365,0.52593946,0.17271706
987,9.870000477,-0.059149794,-0.016433885,-0.7604407,0.5546057,0.2316856257142857,0.3130374142857142
988,9.880000477,0.03969744,-0.05570447,-0.7384882,0.8273926399999999,-0.070247434,0.432938
989,9.890000477,0.0876009342857142,-0.0732926042857142,-0.8529025428571428,0.9102933257142858,-0.0362145168571428,0.4879142428571428
990,9.900000477,0.1049349916666666,-0.0845577766666666,-0.9823947666666668,0.8905135333333334,0.2592028433333334,0.6027535133333334
991,9.910000477,0.1022054428571428,-0.1012776851428571,-1.0308398,0.7551381285714286,0.7052668028571428,0.7573851285714286
992,9.920000477,0.055795938,-0.08427321,-1.0186265,0.5226670828571429,1.2776088857142855,1.0155117928571429
993,9.930000477,0.17440042,-0.05009439,-0.8975829000000001,0.4496853883333334,1.385758,1.162086
994,9.940000477,0.2551542485714285,-0.0467492442857142,-0.8463342,0.6254639785714285,1.0168643714285714,1.143615114285714
995,9.950000477,0.3662409,-0.08427321,-0.8990463600000002,0.801737,0.5283829,1.0486721
996,9.960000477,0.40724502,-0.1089436414285714,-1.0000801371428572,0.8383878571428571,0.3268032857142857,0.9762430285714286
997,9.970000477,0.40267084,-0.1344234966666666,-1.1145365166666668,0.7691585333333334,0.1687974599999999,0.8894445333333333
998,9.980000477,0.3676172685714285,-0.1487325485714286,-1.1630686857142858,0.5820065571428571,0.17758203,0.8381915
999,9.990000477,0.3077052457142857,-0.1813738171428571,-1.1720718571428572,0.1914133457142857,0.3880625314285714,0.8497103428571429
