id,timestamp,acc_x,acc_y,acc_z,gyro_x,gyro_y,gyro_z
1,0.01,-0.06613952,0.52960426,0.8351639,-0.017715093,0.12705997,-0.08368854
2,0.02,-0.06613952,0.52960426,0.8351639,-0.017715093,0.12705997,-0.08368854
3,0.03,-0.06613952,0.52960426,0.8351639,-0.017715093,0.12705997,-0.08368854
4,0.04,-0.06613952,0.52960426,0.8351639,-0.017715093,0.12705997,-0.08368854
5,0.05,-0.0699600024210263,0.4628581078459549,0.8771892342560915,-0.017715093,0.12705997,-0.08368854
6,0.06,-0.07028849,0.45711923,0.8808026,-0.017715093,0.12705997,-0.08368854
7,0.07,-0.07028849,0.45711923,0.8808026,0.0228391658584957,0.0881171393009335,-0.063545695261476
8,0.08,-0.07028849,0.45711923,0.8808026,0.07452556,0.03848451,-0.037873644
9,0.09,-0.07028849,0.45711923,0.8808026,0.07452556,0.03848451,-0.037873644
10,0.1,-0.07028849,0.45711923,0.8808026,0.07452556,0.03848451,-0.037873644
11,0.11,-0.07028849,0.45711923,0.8808026,0.07452556,0.03848451,-0.037873644
12,0.12,-0.07028849,0.45711923,0.8808026,0.07452556,0.03848451,-0.037873644
13,0.13,-0.07028849,0.45711923,0.8808026,0.07452556,0.03848451,-0.037873644
14,0.14,-0.07028849,0.45711923,0.8808026,0.07452556,0.03848451,-0.037873644
15,0.15,-0.07028849,0.45711923,0.8808026,0.07452556,0.03848451,-0.037873644
16,0.16,-0.07028849,0.45711923,0.8808026,0.07452556,0.03848451,-0.037873644
17,0.17,-0.07028849,0.45711923,0.8808026,0.07452556,0.03848451,-0.037873644
18,0.18,-0.0725646091311088,0.4936569972022784,0.8519317614306183,0.07452556,0.03848451,-0.037873644
19,0.19,-0.07492557,0.5315567,0.82198477,0.0408132511968186,0.0429092504441866,-0.033659605744526
20,0.2,-0.07492557,0.5315567,0.82198477,-0.02321288,0.05131268,-0.02565634
21,0.21,-0.07492557,0.5315567,0.82198477,-0.02321288,0.05131268,-0.02565634
22,0.22,-0.07492557,0.5315567,0.82198477,-0.02321288,0.05131268,-0.02565634
23,0.23,0.0455989550943461,0.452976061798174,0.7182378207068572,-0.02321288,0.05131268,-0.02565634
24,0.24,0.09689073,0.4195344,0.6740861,-0.02321288,0.05131268,-0.02565634
25,0.25,0.09689073,0.4195344,0.6740861,-0.02321288,0.05131268,-0.02565634
26,0.26,0.09689073,0.4195344,0.6740861,-0.02321288,0.05131268,-0.02565634
27,0.27,0.09689073,0.4195344,0.6740861,-0.02321288,0.05131268,-0.02565634
28,0.28,0.09689073,0.4195344,0.6740861,-0.02321288,0.05131268,-0.02565634
29,0.29,0.09689073,0.4195344,0.6740861,-0.02321288,0.05131268,-0.02565634
30,0.3,0.09689073,0.4195344,0.6740861,-0.02321288,0.05131268,-0.02565634
31,0.31,0.09689073,0.4195344,0.6740861,-0.02321288,0.05131268,-0.02565634
32,0.32,0.09689073,0.4195344,0.6740861,-0.0227831816875896,0.0502463916892095,-0.0250993237139664
33,0.33,0.09689073,0.4195344,0.6740861,-0.0091839019087066,0.0165000337338968,-0.0074706291243279
34,0.34,0.09689073,0.4195344,0.6740861,-0.0067195175,0.01038471,-0.004276057
35,0.35,0.09689073,0.4195344,0.6740861,-0.0067195175,0.01038471,-0.004276057
36,0.36,0.0476336191823881,0.4510411947160312,0.7272630817853638,-0.0067195175,0.01038471,-0.004276057
37,0.37,-0.0656514,0.52350277,0.8495633,-0.0067195175,0.01038471,-0.004276057
38,0.38,-0.0656514,0.52350277,0.8495633,-0.0067195175,0.01038471,-0.004276057
39,0.39,-0.0688359603137965,0.5275558898983066,0.8417466403644348,-0.0067195175,0.01038471,-0.004276057
40,0.4,-0.071020655,0.53033644,0.8363842,-0.0067195175,0.01038471,-0.004276057
41,0.41,-0.071020655,0.53033644,0.8363842,-0.0067195175,0.01038471,-0.004276057
42,0.42,-0.071020655,0.53033644,0.8363842,-0.0067195175,0.01038471,-0.004276057
43,0.43,-0.071020655,0.53033644,0.8363842,-0.0067195175,0.01038471,-0.004276057
44,0.44,-0.071020655,0.53033644,0.8363842,-0.0067195175,0.01038471,-0.004276057
45,0.45,-0.071020655,0.53033644,0.8363842,-0.0067195175,0.01038471,-0.004276057
46,0.46,-0.071020655,0.53033644,0.8363842,-0.0067195175,0.01038471,-0.004276057
47,0.47,-0.071020655,0.53033644,0.8363842,-0.0067195175,0.01038471,-0.004276057
48,0.48,-0.0664997523165903,0.5318433904093351,0.8315283878123044,-0.0067195175,0.01038471,-0.004276057
49,0.49,-0.06443111,0.53253293,0.8293065,-0.0067195175,0.01038471,-0.004276057
50,0.5,-0.06443111,0.53253293,0.8293065,-0.0067195175,0.01038471,-0.004276057
51,0.51,-0.06443111,0.53253293,0.8293065,-0.0067195175,0.01038471,-0.004276057
52,0.52,-0.06443111,0.53253293,0.8293065,-0.0067195175,0.01038471,-0.004276057
53,0.53,-0.06443111,0.53253293,0.8293065,-0.0067195175,0.01038471,-0.004276057
54,0.54,-0.06443111,0.53253293,0.8293065,-0.0067195175,0.01038471,-0.004276057
55,0.55,-0.06443111,0.53253293,0.8293065,-0.0067195175,0.01038471,-0.004276057
56,0.56,-0.06443111,0.53253293,0.8293065,-0.0067195175,0.01038471,-0.004276057
57,0.57,-0.06443111,0.53253293,0.8293065,-0.0067195175,0.01038471,-0.004276057
58,0.58,-0.06443111,0.53253293,0.8293065,-0.0067195175,0.01038471,-0.004276057
59,0.59,-0.0639329875065695,0.5294445444157112,0.8223327524356988,-0.0067195175,0.01038471,-0.004276057
60,0.6,-0.06321083,0.52496713,0.8122225,-0.0067195175,0.01038471,-0.004276057
61,0.61,-0.0635757999627633,0.524465295483387,0.81824450298363,-0.0067195175,0.01038471,-0.004276057
62,0.62,-0.065163285,0.5222825,0.844438,-0.0067195175,0.01038471,-0.004276057
63,0.63,-0.065163285,0.5222825,0.844438,-0.0067195175,0.01038471,-0.004276057
64,0.64,-0.05831860617129,0.5333820275287307,0.8492478584277197,-0.0067195175,0.01038471,-0.004276057
65,0.65,-0.0576404532250256,0.5321026687750386,0.8334497833250959,-0.0067195175,0.01038471,-0.004276057
66,0.66,-0.058573738,0.52911615,0.822717,-0.0067195175,0.01038471,-0.004276057
67,0.67,-0.058573738,0.52911615,0.822717,-0.0067195175,0.01038471,-0.004276057
68,0.68,-0.058573738,0.52911615,0.822717,-0.0067195175,0.01038471,-0.004276057
69,0.69,-0.058573738,0.52911615,0.822717,-0.0067195175,0.01038471,-0.004276057
70,0.7,-0.058573738,0.52911615,0.822717,-0.0100316274935787,0.0113310268090634,0.0004555292141163
71,0.71,-0.058573738,0.52911615,0.822717,-0.010995574,0.01160644,0.0018325958
72,0.72,-0.058573738,0.52911615,0.822717,-0.0058947428021529,-0.0036960547864231,0.0087551525023347
73,0.73,-0.058573738,0.52911615,0.822717,-0.002443461,-0.014049901,0.013439035
74,0.74,-0.058573738,0.52911615,0.822717,-0.0223890250798962,-0.0176436962634596,0.0172125202472497
75,0.75,-0.0601694014631643,0.52769777450236,0.8248800046542172,-0.070249505,-0.026267206,0.026267206
76,0.76,-0.06955632,0.5193538,0.83760446,-0.070249505,-0.026267206,0.026267206
77,0.77,-0.06955632,0.5193538,0.83760446,-0.070249505,-0.026267206,0.026267206
78,0.78,-0.06955632,0.5193538,0.83760446,-0.070249505,-0.026267206,0.026267206
79,0.79,-0.06955632,0.5193538,0.83760446,-0.070249505,-0.026267206,0.026267206
80,0.8,-0.06400070564751,0.5260790349459397,0.8439398150250178,-0.070249505,-0.026267206,0.026267206
81,0.81,-0.055645052,0.5361938,0.8534682,-0.070249505,-0.026267206,0.026267206
82,0.82,-0.055645052,0.5361938,0.8534682,-0.070249505,-0.026267206,0.026267206
83,0.83,-0.055645052,0.5361938,0.8534682,-0.070249505,-0.026267206,0.026267206
84,0.84,-0.055645052,0.5361938,0.8534682,0.0481174311099422,-0.0078801087839602,0.0078801087839602
85,0.85,-0.055645052,0.5361938,0.8534682,0.0634835969646439,0.0102747048103062,-0.0010624977921235
86,0.86,-0.055645052,0.5361938,0.8534682,-0.0102181227298601,0.0098624574236393,-0.0016038444182177
87,0.87,-0.055645052,0.5361938,0.8534682,0.009162978,-0.023823744,-0.012217305
88,0.88,-0.055645052,0.5361938,0.8534682,0.009162978,-0.023823744,-0.012217305
89,0.89,-0.055645052,0.5361938,0.8534682,0.009162978,-0.023823744,-0.012217305
90,0.9,-0.055645052,0.5361938,0.8534682,0.009162978,-0.023823744,-0.012217305
91,0.91,-0.055645052,0.5361938,0.8534682,0.009162978,-0.023823744,-0.012217305
92,0.92,-0.077871698177468,0.531023752101821,0.8475552463837542,0.009162978,-0.023823744,-0.012217305
93,0.93,-0.3610866855660791,0.465146289591726,0.77221157687629,0.009162978,-0.023823744,-0.012217305
94,0.94,-0.41343296,0.45297024,0.7582859,0.009162978,-0.023823744,-0.012217305
95,0.95,-0.41343296,0.45297024,0.7582859,0.009162978,-0.023823744,-0.012217305
96,0.96,-0.41343296,0.45297024,0.7582859,0.009162978,-0.023823744,-0.012217305
97,0.97,-0.41343296,0.45297024,0.7582859,0.009162978,-0.023823744,-0.012217305
98,0.98,-0.41343296,0.45297024,0.7582859,0.009162978,-0.023823744,-0.012217305
99,0.99,-0.41343296,0.45297024,0.7582859,0.009162978,-0.023823744,-0.012217305
100,1.0,-0.3656791674448743,0.461739943454289,0.7675694466371901,0.009162978,-0.023823744,-0.012217305
101,1.01,-0.0937254361086434,0.5116826485148978,0.8204384443215796,0.009162978,-0.023823744,-0.012217305
102,1.02,-0.073217176,0.51544887,0.82442534,0.009162978,-0.023823744,-0.012217305
103,1.03,-0.073217176,0.51544887,0.82442534,0.0183210814971897,0.0036505657419682,-0.0227491242091684
104,1.04,-0.0757361958749577,0.5136296177521902,0.818967468573843,0.021380283,0.01282817,-0.026267206
105,1.05,-0.0776102,0.5122762,0.81490713,-0.0009103755702528,0.0044123089934468,-0.0096629395992019
106,1.06,-0.0776102,0.5122762,0.81490713,-0.0253567003288652,-0.0090512122219851,0.0079682355122283
107,1.07,-0.07750972536165,0.5124168639055686,0.8150133459958453,0.028099801,-0.0061086523,-0.034208454
108,1.08,-0.0699611623192802,0.5229848079799002,0.8229932517104945,0.028099801,-0.0061086523,-0.034208454
109,1.09,-0.0690682,0.52423495,0.82393724,0.028099801,-0.0061086523,-0.034208454
110,1.1,-0.0690682,0.52423495,0.82393724,0.028099801,-0.0061086523,-0.034208454
111,1.11,-0.0690682,0.52423495,0.82393724,0.028099801,-0.0061086523,-0.034208454
112,1.12,-0.0690682,0.52423495,0.82393724,0.028099801,-0.0061086523,-0.034208454
113,1.13,-0.0690682,0.52423495,0.82393724,0.028099801,-0.0061086523,-0.034208454
114,1.14,-0.0690682,0.52423495,0.82393724,-0.0063200525480597,-0.019695437036222,0.0011171855579537
115,1.15,-0.0651770650477818,0.5282650727669113,0.8375562180268853,-0.018325957,-0.02443461,0.013439035
116,1.16,-0.0622346,0.53131264,0.84785485,-0.018325957,-0.02443461,0.013439035
117,1.17,-0.0622346,0.53131264,0.84785485,-0.018325957,-0.02443461,0.013439035
118,1.18,-0.0622346,0.53131264,0.84785485,-0.018325957,-0.02443461,0.013439035
119,1.19,-0.0622346,0.53131264,0.84785485,-0.018325957,-0.02443461,0.013439035
120,1.2,-0.0622346,0.53131264,0.84785485,-0.018325957,-0.02443461,0.013439035
121,1.21,-0.0622346,0.53131264,0.84785485,-0.018325957,-0.02443461,0.013439035
122,1.22,-0.0622346,0.53131264,0.84785485,-0.018325957,-0.02443461,0.013439035
123,1.23,-0.0622346,0.53131264,0.84785485,-0.018325957,-0.02443461,0.013439035
124,1.24,-0.0622346,0.53131264,0.84785485,-0.018325957,-0.02443461,0.013439035
125,1.25,-0.0622346,0.53131264,0.84785485,-0.018325957,-0.02443461,0.013439035
126,1.26,-0.0622346,0.53131264,0.84785485,-0.018325957,-0.02443461,0.013439035
127,1.27,-0.0622346,0.53131264,0.84785485,-0.018325957,-0.02443461,0.013439035
128,1.28,-0.0622346,0.53131264,0.84785485,-0.018325957,-0.02443461,0.013439035
129,1.29,-0.0622346,0.53131264,0.84785485,-0.018325957,-0.02443461,0.013439035
130,1.3,-0.0622346,0.53131264,0.84785485,-0.018325957,-0.02443461,0.013439035
131,1.31,-0.0622346,0.53131264,0.84785485,-0.018325957,-0.02443461,0.013439035
132,1.32,-0.0622346,0.53131264,0.84785485,-0.0123560633171672,-0.0195307688789512,0.0179164556547836
133,1.33,-0.0622346,0.53131264,0.84785485,-0.1414633185549527,-0.1533534566358149,0.1113046869215012
134,1.34,-0.0622346,0.53131264,0.84785485,-1.0348218639251874,-1.0640843838835166,0.6530053429937467
135,1.35,-0.0622346,0.53131264,0.84785485,-0.2798628218330708,-0.2830465360297631,0.1708469463395202
136,1.36,-0.0622346,0.53131264,0.84785485,-0.01038471,-0.004276057,-0.0012217305
137,1.37,-0.0622346,0.53131264,0.84785485,-0.0086095338126317,-0.0060512331873682,0.0012635159588953
138,1.38,-0.0615473672363361,0.5306878785205148,0.8482297101302044,-0.004276057,-0.01038471,0.007330383
139,1.39,-0.0553103215683167,0.5250177968754048,0.8516317885450047,-0.004276057,-0.01038471,0.007330383
140,1.4,-0.05418071,0.52399087,0.85224795,-0.004276057,-0.01038471,0.007330383
141,1.41,-0.05418071,0.52399087,0.85224795,-0.0007206678649141,-0.0133931157228512,0.0144411611806294
142,1.42,-0.0539236786373446,0.5265611851310639,0.8519909118670465,0.0036651916,-0.017104227,0.02321288
143,1.43,-0.053083714047257,0.5349608359486003,0.8511509251519904,0.0036651916,-0.017104227,0.02321288
144,1.44,-0.051841158565959,0.5391814862310433,0.8524903073170048,0.0036651916,-0.017104227,0.02321288
145,1.45,-0.049787678,0.53302103,0.8588374,0.0036651916,-0.017104227,0.02321288
146,1.46,-0.049787678,0.53302103,0.8588374,0.0036651916,-0.017104227,0.02321288
147,1.47,-0.049787678,0.53302103,0.8588374,0.0036651916,-0.017104227,0.02321288
148,1.48,-0.0517445411454059,0.5302584215949167,0.8355853016776575,0.0036651916,-0.017104227,0.02321288
149,1.49,-0.053936653,0.5271637,0.8095379,0.0036651916,-0.017104227,0.02321288
150,1.5,-0.053936653,0.5271637,0.8095379,0.0036651916,-0.017104227,0.02321288
151,1.51,-0.053936653,0.5271637,0.8095379,0.0036651916,-0.017104227,0.02321288
152,1.52,-0.053936653,0.5271637,0.8095379,0.0036651916,-0.017104227,0.02321288
153,1.53,-0.053936653,0.5271637,0.8095379,0.0036651916,-0.017104227,0.02321288
154,1.54,-0.053936653,0.5271637,0.8095379,0.0036651916,-0.017104227,0.02321288
155,1.55,-0.053936653,0.5271637,0.8095379,0.0036651916,-0.017104227,0.02321288
156,1.56,-0.053936653,0.5271637,0.8095379,0.0036651916,-0.017104227,0.02321288
157,1.57,-0.060962431673983,0.525278685618024,0.8138218895519753,0.0221082422456225,0.0502343586559721,-0.0424100722474677
158,1.58,-0.063943,0.524479,0.8156393,0.029932396,0.07880162,-0.070249505
159,1.59,-0.063943,0.524479,0.8156393,0.0268711530629099,0.0172706310511278,-0.0237186080464927
160,1.6,-0.063943,0.524479,0.8156393,0.023823744,-0.043982297,0.022602014
161,1.61,-0.063943,0.524479,0.8156393,0.023823744,-0.043982297,0.022602014
162,1.62,-0.063943,0.524479,0.8156393,0.023823744,-0.043982297,0.022602014
163,1.63,-0.063943,0.524479,0.8156393,0.023823744,-0.043982297,0.022602014
164,1.64,-0.063943,0.524479,0.8156393,0.023823744,-0.043982297,0.022602014
165,1.65,-0.063943,0.524479,0.8156393,0.023823744,-0.043982297,0.022602014
166,1.66,-0.063943,0.524479,0.8156393,0.0227118069942946,-0.0377150151279748,0.0168401580050589
167,1.67,-0.063943,0.524479,0.8156393,0.0184072851765833,-0.0053996353978466,-0.0120448414141145
168,1.68,-0.063943,0.524479,0.8156393,0.0474372962367593,0.0103961048701224,-0.0082026339856955
169,1.69,-0.063943,0.524479,0.8156393,0.058643065,0.016493361,-0.0067195175
170,1.7,-0.063943,0.524479,0.8156393,0.058643065,0.016493361,-0.0067195175
171,1.71,-0.063943,0.524479,0.8156393,0.058643065,0.016493361,-0.0067195175
172,1.72,-0.063943,0.524479,0.8156393,0.058643065,0.016493361,-0.0067195175
173,1.73,-0.063943,0.524479,0.8156393,0.0873238960168364,-0.1019478399231734,0.0023096324642993
174,1.74,-0.063943,0.524479,0.8156393,0.09162979,-0.119729586,0.0036651916
175,1.75,-0.063943,0.524479,0.8156393,0.09162979,-0.119729586,0.0036651916
176,1.76,-0.0589579835802991,0.5265459714057826,0.8135723584853439,0.09162979,-0.119729586,0.0036651916
177,1.77,-0.053936653,0.528628,0.81149036,0.09162979,-0.119729586,0.0036651916
178,1.78,-0.053936653,0.528628,0.81149036,0.09162979,-0.119729586,0.0036651916
179,1.79,-0.053936653,0.528628,0.81149036,0.09162979,-0.119729586,0.0036651916
180,1.8,-0.053936653,0.528628,0.81149036,0.09162979,-0.119729586,0.0036651916
181,1.81,-0.053936653,0.528628,0.81149036,0.09162979,-0.119729586,0.0036651916
182,1.82,-0.053936653,0.528628,0.81149036,0.0887129419795828,-0.1157800652721033,0.0029948601019708
183,1.83,-0.053936653,0.528628,0.81149036,0.0103029942815691,-0.0096100791984687,-0.0150248163888452
184,1.84,-0.053936653,0.528628,0.81149036,-0.0067195175,0.013439035,-0.018936822
185,1.85,-0.053936653,0.528628,0.81149036,-0.0067195175,0.013439035,-0.018936822
186,1.86,-0.053936653,0.528628,0.81149036,-0.0067195175,0.013439035,-0.018936822
187,1.87,-0.053936653,0.528628,0.81149036,-0.0067195175,0.013439035,-0.018936822
188,1.88,-0.053936653,0.528628,0.81149036,-0.0067195175,0.013439035,-0.018936822
189,1.89,-0.053936653,0.528628,0.81149036,0.0156969518078775,0.0062657650269782,-0.0027969641570421
190,1.9,-0.053936653,0.528628,0.81149036,0.023823744,0.0036651916,0.0030543262
191,1.91,-0.053936653,0.528628,0.81149036,0.0415756983085974,0.0102053845305786,-0.0019286781148105
192,1.92,-0.053936653,0.528628,0.81149036,0.0438023372726289,0.014070385208937,-0.0079310055814595
193,1.93,-0.053936653,0.528628,0.81149036,0.0033422668195387,0.0074646598689502,-0.011233868758346
194,1.94,-0.053936653,0.528628,0.81149036,-0.0012217305,0.0067195175,-0.01160644
195,1.95,-0.053936653,0.528628,0.81149036,0.0266270301606495,-0.00037918586479,-0.0094222232190654
196,1.96,-0.053936653,0.528628,0.81149036,0.061086524,-0.009162978,-0.0067195175
197,1.97,-0.053936653,0.528628,0.81149036,0.061086524,-0.009162978,-0.0067195175
198,1.98,-0.0535349926939272,0.5314396314685326,0.8330462232023341,0.061086524,-0.009162978,-0.0067195175
199,1.99,-0.053204484,0.5337532,0.8507836,0.061086524,-0.009162978,-0.0067195175
200,2.0,-0.053204484,0.5337532,0.8507836,0.061086524,-0.009162978,-0.0067195175
201,2.01,-0.053204484,0.5337532,0.8507836,0.061086524,-0.009162978,-0.0067195175
202,2.02,-0.053204484,0.5337532,0.8507836,0.061086524,-0.009162978,-0.0067195175
203,2.03,-0.053204484,0.5337532,0.8507836,0.061086524,-0.009162978,-0.0067195175
204,2.04,-0.053204484,0.5337532,0.8507836,0.061086524,-0.009162978,-0.0067195175
205,2.05,-0.053204484,0.5337532,0.8507836,0.061086524,-0.009162978,-0.0067195175
206,2.06,-0.053204484,0.5337532,0.8507836,0.061086524,-0.009162978,-0.0067195175
207,2.07,-0.053204484,0.5337532,0.8507836,0.061086524,-0.009162978,-0.0067195175
208,2.08,-0.0552362193585342,0.5316763137170792,0.8483003657573904,0.061086524,-0.009162978,-0.0067195175
209,2.09,-0.0640423538283681,0.5225528699680161,0.8370743156615897,0.061086524,-0.009162978,-0.0067195175
210,2.1,-0.0549340388859857,0.5242089118086148,0.8190646443564003,0.061086524,-0.009162978,-0.0067195175
211,2.11,-0.05344854,0.524479,0.8161274,0.061086524,-0.009162978,-0.0067195175
212,2.12,-0.05344854,0.524479,0.8161274,0.061086524,-0.009162978,-0.0067195175
213,2.13,-0.0547997850273926,0.5294014264972945,0.835623957993574,0.061086524,-0.009162978,-0.0067195175
214,2.14,-0.05686534,0.536926,0.865427,0.061086524,-0.009162978,-0.0067195175
215,2.15,-0.05686534,0.536926,0.865427,0.061086524,-0.009162978,-0.0067195175
216,2.16,-0.05686534,0.536926,0.865427,0.061086524,-0.009162978,-0.0067195175
217,2.17,-0.05686534,0.536926,0.865427,0.061086524,-0.009162978,-0.0067195175
218,2.18,-0.05686534,0.536926,0.865427,0.061086524,-0.009162978,-0.0067195175
219,2.19,-0.05686534,0.536926,0.865427,0.061086524,-0.009162978,-0.0067195175
220,2.2,-0.05686534,0.536926,0.865427,0.061086524,-0.009162978,-0.0067195175
221,2.21,-0.05686534,0.536926,0.865427,0.061086524,-0.009162978,-0.0067195175
222,2.22,-0.0679051584916437,0.5223144257325557,0.8209430218700076,0.061086524,-0.009162978,-0.0067195175
223,2.23,-0.073461235,0.51496077,0.7985553,0.0207994839498949,-0.0085705217640096,0.0101654917723091
224,2.24,-0.0707774570108235,0.5157721408454504,0.799803572281593,-0.021991149,-0.007941248,0.028099801
225,2.25,-0.0630003312241598,0.5181233536321072,0.8034208500851621,-0.021991149,-0.007941248,0.028099801
226,2.26,-0.06296677,0.5181335,0.80343646,-0.021991149,-0.007941248,0.028099801
227,2.27,-0.06296677,0.5181335,0.80343646,-0.0130448518892907,-0.0091502071545971,0.0266490505290475
228,2.28,-0.0595240279838663,0.5211677834277254,0.8113917278312421,0.02321288,-0.014049901,0.02076942
229,2.29,-0.0253315195795567,0.5513035766754785,0.8904015870956183,0.02321288,-0.014049901,0.02076942
230,2.3,-0.019768637,0.55620646,0.90325594,0.02321288,-0.014049901,0.02076942
231,2.31,-0.0417352164187746,0.5356301764893939,0.843890506436851,0.02321288,-0.014049901,0.02076942
232,2.32,-0.05832968,0.520086,0.7990434,0.007228829641912,-0.0207099223096147,0.0218350229211017
233,2.33,-0.05832968,0.520086,0.7990434,-0.013439035,-0.029321533,0.02321288
234,2.34,-0.05832968,0.520086,0.7990434,-0.013439035,-0.029321533,0.02321288
235,2.35,-0.05832968,0.520086,0.7990434,-0.013439035,-0.029321533,0.02321288
236,2.36,-0.2728302555185141,0.4440308806267027,0.8245748783114237,-0.0372906380907173,-0.0603736228226679,0.017812516424456
237,2.37,-0.34949,0.41684976,0.8336995,-0.045814894,-0.07147124,0.015882496
238,2.38,-0.34949,0.41684976,0.8336995,-0.045814894,-0.07147124,0.015882496
239,2.39,-0.34949,0.41684976,0.8336995,-0.045814894,-0.07147124,0.015882496
240,2.4,-0.34949,0.41684976,0.8336995,-0.045814894,-0.07147124,0.015882496
241,2.41,-0.34949,0.41684976,0.8336995,-0.045814894,-0.07147124,0.015882496
242,2.42,-0.34949,0.41684976,0.8336995,-0.045814894,-0.07147124,0.015882496
243,2.43,-0.2128467199001971,0.4667952454764278,0.8258464528673218,-0.045814894,-0.07147124,0.015882496
244,2.44,-0.03099527,0.5332651,0.81539524,-0.0195789465289754,-0.0738409375051847,0.0045417963631885
245,2.45,-0.03099527,0.5332651,0.81539524,0.04886922,-0.08002335,-0.025045475
246,2.46,-0.03099527,0.5332651,0.81539524,0.04886922,-0.08002335,-0.025045475
247,2.47,-0.03099527,0.5332651,0.81539524,0.1056857340320718,0.0310271061697969,-0.0575858360549125
248,2.48,-0.03099527,0.5332651,0.81539524,0.0140791961545718,-0.0153390653351851,-0.0161510314109319
249,2.49,-0.03099527,0.5332651,0.81539524,-0.039095376,-0.05009095,0.008552114
250,2.5,-0.03099527,0.5332651,0.81539524,-0.039095376,-0.05009095,0.008552114
251,2.51,-0.03099527,0.5332651,0.81539524,-0.039095376,-0.05009095,0.008552114
252,2.52,-0.03099527,0.5332651,0.81539524,-0.039095376,-0.05009095,0.008552114
253,2.53,-0.03099527,0.5332651,0.81539524,-0.0128235606740007,-0.036849107641137,-0.0028888380089333
254,2.54,-0.03099527,0.5332651,0.81539524,0.1080258908676684,0.0240629141058402,-0.0555168257683426
255,2.55,-0.03099527,0.5332651,0.81539524,-0.0159771139317533,-0.0530386334500135,0.0020580419361704
256,2.56,-0.03099527,0.5332651,0.81539524,0.0265309343676689,0.0162400738717293,-0.0446191019931608
257,2.57,-0.0320700276367056,0.5369073291843501,0.8309195126252916,0.092240654,0.09590584,-0.099571034
258,2.58,-0.0353883,0.54815257,0.8788501,0.092240654,0.09590584,-0.099571034
259,2.59,-0.0353883,0.54815257,0.8788501,0.092240654,0.09590584,-0.099571034
260,2.6,-0.0353883,0.54815257,0.8788501,0.092240654,0.09590584,-0.099571034
261,2.61,-0.0353883,0.54815257,0.8788501,0.092240654,0.09590584,-0.099571034
262,2.62,-0.0353883,0.54815257,0.8788501,0.092240654,0.09590584,-0.099571034
263,2.63,-0.0353883,0.54815257,0.8788501,0.092240654,0.09590584,-0.099571034
264,2.64,-0.0353883,0.54815257,0.8788501,0.092240654,0.09590584,-0.099571034
265,2.65,-0.0353883,0.54815257,0.8788501,0.092240654,0.09590584,-0.099571034
266,2.66,-0.0353883,0.54815257,0.8788501,0.092240654,0.09590584,-0.099571034
267,2.67,-0.0353883,0.54815257,0.8788501,0.1085338445851155,0.0855374483058303,-0.0862402398294119
268,2.68,-0.030553253686457,0.5476690747293986,0.8651911518269745,0.11911872,0.07880162,-0.077579886
269,2.69,-0.025626011,0.54717636,0.85127175,0.1180458341822098,0.0691456265637903,-0.0726445992950429
270,2.7,-0.025626011,0.54717636,0.85127175,0.1160644,0.05131268,-0.06352998
271,2.71,-0.025626011,0.54717636,0.85127175,0.1156875087739705,0.0520181429756767,-0.0641001488151583
272,2.72,-0.025626011,0.54717636,0.85127175,0.0958242651961098,0.0891980557814343,-0.0941496731177106
273,2.73,-0.025626011,0.54717636,0.85127175,0.092240654,0.09590584,-0.099571034
274,2.74,-0.025626011,0.54717636,0.85127175,0.092240654,0.09590584,-0.099571034
275,2.75,-0.025626011,0.54717636,0.85127175,0.092240654,0.09590584,-0.099571034
276,2.76,-0.025626011,0.54717636,0.85127175,0.092240654,0.09590584,-0.099571034
277,2.77,-0.025626011,0.54717636,0.85127175,0.092240654,0.09590584,-0.099571034
278,2.78,-0.0746868550247871,0.5114430942652809,0.7556610449827655,0.092240654,0.09590584,-0.099571034
279,2.79,-0.087616555,0.5020258,0.7304634,0.0540132084097112,0.0854120361222808,-0.0815816504022179
280,2.8,-0.087616555,0.5020258,0.7304634,0.029932396,0.07880162,-0.070249505
281,2.81,-0.087616555,0.5020258,0.7304634,0.029932396,0.07880162,-0.070249505
282,2.82,-0.087616555,0.5020258,0.7304634,0.029932396,0.07880162,-0.070249505
283,2.83,-0.087616555,0.5020258,0.7304634,0.029932396,0.07880162,-0.070249505
284,2.84,-0.087616555,0.5020258,0.7304634,0.029932396,0.07880162,-0.070249505
285,2.85,-0.087616555,0.5020258,0.7304634,0.029932396,0.07880162,-0.070249505
286,2.86,-0.087616555,0.5020258,0.7304634,0.029932396,0.07880162,-0.070249505
287,2.87,-0.087616555,0.5020258,0.7304634,0.029932396,0.07880162,-0.070249505
288,2.88,-0.087616555,0.5020258,0.7304634,0.029932396,0.07880162,-0.070249505
289,2.89,-0.087616555,0.5020258,0.7304634,0.0954916218786416,-0.040327401184441,0.0715828998885945
290,2.9,-0.087616555,0.5020258,0.7304634,0.18692477,-0.20647246,0.26939157
291,2.91,-0.087616555,0.5020258,0.7304634,0.18692477,-0.20647246,0.26939157
292,2.92,-0.087616555,0.5020258,0.7304634,0.18692477,-0.20647246,0.26939157
293,2.93,-0.087616555,0.5020258,0.7304634,0.1489933178802192,-0.1724270806794923,0.2314601189865824
294,2.94,-0.087616555,0.5020258,0.7304634,-0.0688951266941917,0.0231387184274393,0.013571680767418
295,2.95,-0.087616555,0.5020258,0.7304634,-0.08735373,0.03970624,-0.004886922
296,2.96,-0.0437561713456515,0.5053339713935686,0.8176505528833036,-0.08735373,0.03970624,-0.004886922
297,2.97,0.012690976,0.5095915,0.9298581,-0.08735373,0.03970624,-0.004886922
298,2.98,0.012690976,0.5095915,0.9298581,-0.08735373,0.03970624,-0.004886922
299,2.99,0.012690976,0.5095915,0.9298581,-0.08735373,0.03970624,-0.004886922
300,3.0,0.012690976,0.5095915,0.9298581,-0.08735373,0.03970624,-0.004886922
301,3.01,0.012690976,0.5095915,0.9298581,-0.08735373,0.03970624,-0.004886922
302,3.02,0.012690976,0.5095915,0.9298581,-0.08735373,0.03970624,-0.004886922
303,3.03,0.012690976,0.5095915,0.9298581,-0.08735373,0.03970624,-0.004886922
304,3.04,0.012690976,0.5095915,0.9298581,-0.08735373,0.03970624,-0.004886922
305,3.05,0.012690976,0.5095915,0.9298581,-0.2464123780696811,0.1086182955117802,-0.0537664029910532
306,3.06,0.012690976,0.5095915,0.9298581,-0.32986724,0.14477506,-0.07941248
307,3.07,0.012690976,0.5095915,0.9298581,-0.32986724,0.14477506,-0.07941248
308,3.08,0.012690976,0.5095915,0.9298581,-0.32986724,0.14477506,-0.07941248
309,3.09,0.0017443144541253,0.5097327430526424,0.9309174518321368,-0.32986724,0.14477506,-0.07941248
310,3.1,-0.06296677,0.5105677,0.9371798,-0.3304982078119528,0.1439831742290032,-0.0788153896587643
311,3.11,-0.06296677,0.5105677,0.9371798,-0.4029248859056109,0.0530852635330096,-0.0102773927621162
312,3.12,-0.06296677,0.5105677,0.9371798,-0.42088616,0.030543262,0.0067195175
313,3.13,-0.06296677,0.5105677,0.9371798,-0.42088616,0.030543262,0.0067195175
314,3.14,-0.06296677,0.5105677,0.9371798,-0.4376853799239065,0.077581080325464,-0.017316289907411
315,3.15,-0.0667392281564794,0.4842344725969226,0.913287562988406,-0.4605924,0.14172074,-0.05009095
316,3.16,-0.07541369,0.42368335,0.8583493,-0.4605924,0.14172074,-0.05009095
317,3.17,-0.07541369,0.42368335,0.8583493,-0.4605924,0.14172074,-0.05009095
318,3.18,-0.07541369,0.42368335,0.8583493,-0.4605924,0.14172074,-0.05009095
319,3.19,-0.07541369,0.42368335,0.8583493,-0.4605924,0.14172074,-0.05009095
320,3.2,-0.07541369,0.42368335,0.8583493,-0.4605924,0.14172074,-0.05009095
321,3.21,-0.07541369,0.42368335,0.8583493,-0.4605924,0.14172074,-0.05009095
322,3.22,-0.07541369,0.42368335,0.8583493,-0.4605924,0.14172074,-0.05009095
323,3.23,-0.07541369,0.42368335,0.8583493,-0.4605924,0.14172074,-0.05009095
324,3.24,-0.07541369,0.42368335,0.8583493,-0.4605924,0.14172074,-0.05009095
325,3.25,-0.07541369,0.42368335,0.8583493,-0.4605924,0.14172074,-0.05009095
326,3.26,-0.07541369,0.42368335,0.8583493,-0.4605924,0.14172074,-0.05009095
327,3.27,-0.07541369,0.42368335,0.8583493,-0.4605924,0.14172074,-0.05009095
328,3.28,-0.07541369,0.42368335,0.8583493,-0.4605924,0.14172074,-0.05009095
329,3.29,-0.07541369,0.42368335,0.8583493,-0.4605924,0.14172074,-0.05009095
330,3.3,-0.07541369,0.42368335,0.8583493,-0.4605924,0.14172074,-0.05009095
331,3.31,-0.07541369,0.42368335,0.8583493,-0.4605924,0.14172074,-0.05009095
332,3.32,-0.07541369,0.42368335,0.8583493,-0.4605924,0.14172074,-0.05009095
333,3.33,-0.07541369,0.42368335,0.8583493,-0.4605924,0.14172074,-0.05009095
334,3.34,-0.07541369,0.42368335,0.8583493,-0.4605924,0.14172074,-0.05009095
335,3.35,-0.07541369,0.42368335,0.8583493,-0.4605924,0.14172074,-0.05009095
336,3.36,-0.07541369,0.42368335,0.8583493,-0.4605924,0.14172074,-0.05009095
337,3.37,-0.07541369,0.42368335,0.8583493,-0.4605924,0.14172074,-0.05009095
338,3.38,-0.07541369,0.42368335,0.8583493,-0.4605924,0.14172074,-0.05009095
339,3.39,-0.07541369,0.42368335,0.8583493,-0.4605924,0.14172074,-0.05009095
340,3.4,-0.07541369,0.42368335,0.8583493,-0.4605924,0.14172074,-0.05009095
341,3.41,-0.07541369,0.42368335,0.8583493,-0.2586570355363747,0.0850642016234652,-0.0496500432719223
342,3.42,-0.07541369,0.42368335,0.8583493,0.09896017,-0.015271631,-0.04886922
343,3.43,-0.07541369,0.42368335,0.8583493,0.09896017,-0.015271631,-0.04886922
344,3.44,-0.07541369,0.42368335,0.8583493,0.09896017,-0.015271631,-0.04886922
345,3.45,-0.07541369,0.42368335,0.8583493,0.09896017,-0.015271631,-0.04886922
346,3.46,-0.07541369,0.42368335,0.8583493,0.0900160900702086,-0.0398678493834317,-0.0140866893347861
347,3.47,-0.07541369,0.42368335,0.8583493,0.07696902,-0.07574729,0.036651913
348,3.48,-0.07541369,0.42368335,0.8583493,0.0806065718954841,-0.0685567816371948,0.0303073471478044
349,3.49,-0.07541369,0.42368335,0.8583493,0.1028668236425681,-0.0245539657476773,-0.008518664728798
350,3.5,-0.07541369,0.42368335,0.8583493,0.10323623,-0.023823744,-0.009162978
351,3.51,-0.0691975021496623,0.4748337487595517,0.858526980218396,0.10323623,-0.023823744,-0.009162978
352,3.52,-0.06687169,0.49397188,0.85859346,0.10323623,-0.023823744,-0.009162978
353,3.53,-0.06687169,0.49397188,0.85859346,0.10323623,-0.023823744,-0.009162978
354,3.54,-0.06687169,0.49397188,0.85859346,0.10323623,-0.023823744,-0.009162978
355,3.55,-0.0667756417688329,0.4860960096561579,0.8557120209358587,0.10323623,-0.023823744,-0.009162978
356,3.56,-0.0663988314199694,0.4551978929932378,0.8444077413484549,0.10323623,-0.023823744,-0.009162978
357,3.57,-0.06638357,0.45394647,0.8439499,0.10323623,-0.023823744,-0.009162978
358,3.58,-0.06638357,0.45394647,0.8439499,0.10323623,-0.023823744,-0.009162978
359,3.59,-0.06638357,0.45394647,0.8439499,0.10323623,-0.023823744,-0.009162978
360,3.6,-0.06638357,0.45394647,0.8439499,0.10323623,-0.023823744,-0.009162978
361,3.61,-0.06638357,0.45394647,0.8439499,0.10323623,-0.023823744,-0.009162978
362,3.62,-0.06638357,0.45394647,0.8439499,0.0632424878304566,-0.04687895744632,0.0218909838802287
363,3.63,-0.06638357,0.45394647,0.8439499,0.05131268,-0.05375614,0.031154128
364,3.64,-0.1739464896638456,0.5045955550419485,0.7810898713833754,0.05131268,-0.05375614,0.031154128
365,3.65,-0.31361356,0.5703618,0.6994681,0.05131268,-0.05375614,0.031154128
366,3.66,-0.31361356,0.5703618,0.6994681,0.05131268,-0.05375614,0.031154128
367,3.67,-0.31361356,0.5703618,0.6994681,0.05131268,-0.05375614,0.031154128
368,3.68,-0.31361356,0.5703618,0.6994681,0.05131268,-0.05375614,0.031154128
369,3.69,-0.31361356,0.5703618,0.6994681,0.05131268,-0.05375614,0.031154128
370,3.7,-0.31361356,0.5703618,0.6994681,0.05131268,-0.05375614,0.031154128
371,3.71,-0.2516425465475418,0.5296814295775263,0.7577639332086836,0.05131268,-0.05375614,0.031154128
372,3.72,-0.07492557,0.413677,0.92400074,0.05131268,-0.05375614,0.031154128
373,3.73,-0.07492557,0.413677,0.92400074,0.05131268,-0.05375614,0.031154128
374,3.74,-0.0728557739505557,0.4666957162244579,0.8724149253781829,-0.0136443384580143,0.0390965310007991,0.0941186032494518
375,3.75,-0.07175283,0.4949481,0.8449261,-0.048258353,0.08857546,0.12767084
376,3.76,-0.07175283,0.4949481,0.8449261,-0.0507063134884386,0.0333603490283754,0.0980233155110163
377,3.77,-0.07175283,0.4949481,0.8449261,-0.05375614,-0.035430185,0.061086524
378,3.78,-0.0699819739994665,0.4978573646881248,0.8396135454736483,-0.05375614,-0.035430185,0.061086524
379,3.79,-0.080865156815886,0.503769297312793,0.821839209925791,-0.0500815216391018,-0.0348931253186592,0.0600124047298635
380,3.8,-0.3601036269172084,0.4616461911957814,0.7765519818709873,0.0142668579663834,-0.0254883608365945,0.0412028773863455
381,3.81,-0.40952805,0.45419052,0.76853627,0.02565634,-0.023823744,0.037873644
382,3.82,-0.350810845549948,0.4617839630668661,0.7800279481937197,0.02565634,-0.023823744,0.037873644
383,3.83,-0.05662128,0.49982923,0.83760446,0.02565634,-0.023823744,0.037873644
384,3.84,-0.05662128,0.49982923,0.83760446,0.02565634,-0.023823744,0.037873644
385,3.85,-0.05662128,0.49982923,0.83760446,0.02565634,-0.023823744,0.037873644
386,3.86,-0.05662128,0.49982923,0.83760446,0.02565634,-0.023823744,0.037873644
387,3.87,-0.05662128,0.49982923,0.83760446,0.02565634,-0.023823744,0.037873644
388,3.88,-0.05662128,0.49982923,0.83760446,0.02565634,-0.023823744,0.037873644
389,3.89,-0.05662128,0.49982923,0.83760446,0.02565634,-0.023823744,0.037873644
390,3.9,-0.0597826700322899,0.498173264850036,0.8246578020642739,0.02565634,-0.023823744,0.037873644
391,3.91,-0.061746486,0.4971446,0.8166155,0.02565634,-0.023823744,0.037873644
392,3.92,-0.061746486,0.4971446,0.8166155,0.02565634,-0.023823744,0.037873644
393,3.93,-0.061746486,0.4971446,0.8166155,0.02565634,-0.023823744,0.037873644
394,3.94,-0.061746486,0.4971446,0.8166155,0.02565634,-0.023823744,0.037873644
395,3.95,-0.061746486,0.4971446,0.8166155,0.02565634,-0.023823744,0.037873644
396,3.96,-0.061746486,0.4971446,0.8166155,0.02565634,-0.023823744,0.037873644
397,3.97,-0.0617896384080821,0.4986981072014986,0.8186437024327927,0.02565634,-0.023823744,0.037873644
398,3.98,-0.0632489978009057,0.5056717471210034,0.827922457883934,0.02565634,-0.023823744,0.037873644
399,3.99,-0.3382778946418995,0.4490877890120205,0.7921244237747261,0.02565634,-0.023823744,0.037873644
400,4.0,-0.41074833,0.43417785,0.7826916,0.02565634,-0.023823744,0.037873644
401,4.01,-0.41074833,0.43417785,0.7826916,-0.0380413118562323,-0.0232524648418088,0.0210209026610604
402,4.02,-0.394569665970606,0.4283460035395137,0.8061443827210746,-0.11056661,-0.022602014,0.0018325958
403,4.03,-0.34778157,0.41148052,0.87396896,-0.11056661,-0.022602014,0.0018325958
404,4.04,-0.34778157,0.41148052,0.87396896,-0.11056661,-0.022602014,0.0018325958
405,4.05,-0.34778157,0.41148052,0.87396896,-0.11056661,-0.022602014,0.0018325958
406,4.06,-0.2149590438074315,0.4451538388619458,0.8692371118239319,-0.1138718215586189,-0.0190213667921527,-0.0080830428437085
407,4.07,-0.053204484,0.48616204,0.86347455,-0.11789699,-0.014660766,-0.020158553
408,4.08,-0.053204484,0.48616204,0.86347455,-0.11789699,-0.014660766,-0.020158553
409,4.09,-0.053204484,0.48616204,0.86347455,-0.11789699,-0.014660766,-0.020158553
410,4.1,-0.053204484,0.48616204,0.86347455,-0.0050787536511241,0.0200002582260738,-0.0011289703084337
411,4.11,-0.053204484,0.48616204,0.86347455,0.084910266,0.047647487,0.014049901
412,4.12,-0.053204484,0.48616204,0.86347455,0.084910266,0.047647487,0.014049901
413,4.13,-0.053204484,0.48616204,0.86347455,0.084910266,0.047647487,0.014049901
414,4.14,-0.053204484,0.48616204,0.86347455,0.084910266,0.047647487,0.014049901
415,4.15,-0.053204484,0.48616204,0.86347455,0.084910266,0.047647487,0.014049901
416,4.16,-0.0528695322538809,0.483594109703597,0.8689453490722229,0.084910266,0.047647487,0.014049901
417,4.17,-0.052472305,0.48054874,0.8754333,0.084910266,0.047647487,0.014049901
418,4.18,-0.052472305,0.48054874,0.8754333,0.084910266,0.047647487,0.014049901
419,4.19,-0.052472305,0.48054874,0.8754333,0.084910266,0.047647487,0.014049901
420,4.2,-0.052472305,0.48054874,0.8754333,-0.0538227172987348,0.0103411390470868,-0.0135412543801874
421,4.21,-0.0487500549935402,0.4724661300506791,0.8757523928791904,-0.13316862,-0.010995574,-0.029321533
422,4.22,-0.043930303,0.46200037,0.87616557,-0.13316862,-0.010995574,-0.029321533
423,4.23,-0.043930303,0.46200037,0.87616557,-0.13316862,-0.010995574,-0.029321533
424,4.24,-0.043930303,0.46200037,0.87616557,-0.13316862,-0.010995574,-0.029321533
425,4.25,-0.2429468176113344,0.5215337782033762,0.7788876170377813,-0.0970971294151929,-0.0067013487797427,-0.0361922932118167
426,4.26,-0.3751686022841492,0.4886060127828216,0.758611362972736,-0.081855945,-0.004886922,-0.039095376
427,4.27,-0.3584028513790518,0.4310888308585892,0.8036353208546814,-0.081855945,-0.004886922,-0.039095376
428,4.28,-0.1253854873488147,0.4540623747553657,0.876434615593881,-0.081855945,-0.004886922,-0.039095376
429,4.29,-0.047347106,0.4617563,0.90081537,-0.081855945,-0.004886922,-0.039095376
430,4.3,-0.047347106,0.4617563,0.90081537,-0.0665468040804675,-0.0031008555593878,-0.042667507836999
431,4.31,-0.047347106,0.4617563,0.90081537,-0.04520403,-0.00061086525,-0.047647487
432,4.32,-0.047347106,0.4617563,0.90081537,-0.04520403,-0.00061086525,-0.047647487
433,4.33,-0.047347106,0.4617563,0.90081537,0.0006406757827709,-0.0081728789319315,-0.0008575330611672
434,4.34,-0.047347106,0.4617563,0.90081537,0.014049901,-0.01038471,0.01282817
435,4.35,-0.1345443450743914,0.481165325879569,0.8851351331364714,0.014049901,-0.01038471,0.01282817
436,4.36,-0.26992732,0.5112999,0.8607899,0.014049901,-0.01038471,0.01282817
437,4.37,-0.26992732,0.5112999,0.8607899,0.014049901,-0.01038471,0.01282817
438,4.38,-0.26992732,0.5112999,0.8607899,0.014049901,-0.01038471,0.01282817
439,4.39,-0.26992732,0.5112999,0.8607899,-0.0426932530427221,0.0069042201499295,-0.0208630788694532
440,4.4,-0.2496238323684814,0.536430819576503,0.8494312981979946,-0.06414085,0.013439035,-0.03359759
441,4.41,-0.23502712,0.5544981,0.8412653,-0.060491667920184,0.0078436234400597,-0.0438152970357153
442,4.42,-0.23502712,0.5544981,0.8412653,-0.05497787,-0.00061086525,-0.059253927
443,4.43,-0.23502712,0.5544981,0.8412653,-0.05497787,-0.00061086525,-0.059253927
444,4.44,-0.23502712,0.5544981,0.8412653,-0.0522142010486895,-0.0144292188933546,-0.0414874718309521
445,4.45,-0.23502712,0.5544981,0.8412653,-0.050701816,-0.021991149,-0.03176499
446,4.46,-0.1728535334075912,0.5214270349049044,0.8544110616886992,-0.050701816,-0.021991149,-0.03176499
447,4.47,-0.051496077,0.45687518,0.88007045,-0.050701816,-0.021991149,-0.03176499
448,4.48,-0.051496077,0.45687518,0.88007045,-0.050701816,-0.021991149,-0.03176499
449,4.49,-0.051496077,0.45687518,0.88007045,-0.0683136203630429,0.0002332734718844,-0.0330229790659264
450,4.5,-0.0536159188574074,0.4492883764080594,0.8865415579378145,-0.076358154,0.01038471,-0.03359759
451,4.51,-0.056133166,0.44027928,0.8942258,-0.076358154,0.01038471,-0.03359759
452,4.52,-0.056133166,0.44027928,0.8942258,-0.0698757917577548,0.0083319618507994,-0.0272232668929365
453,4.53,-0.056133166,0.44027928,0.8942258,-0.0145695357934304,-0.0091816867740974,0.0271612201480802
454,4.54,-0.0579928968596615,0.4408991852065087,0.8946906876295149,-0.0030543262,-0.01282817,0.03848451
455,4.55,-0.05906185,0.4412555,0.8949579,-0.0030543262,-0.01282817,0.03848451
456,4.56,-0.05906185,0.4412555,0.8949579,-0.0030543262,-0.01282817,0.03848451
457,4.57,-0.05906185,0.4412555,0.8949579,-0.0073096014610385,-0.0059358228885371,0.0326110317600416
458,4.58,-0.05906185,0.4412555,0.8949579,-0.0435616895983584,0.052782346825534,-0.0174270592600991
459,4.59,-0.0684314573348791,0.4451595063887531,0.8955435229531657,-0.0327455798205989,0.0559555994095838,-0.0194259715457998
460,4.6,-0.0707766,0.44613665,0.8956901,-0.029321533,0.055588737,-0.018936822
461,4.61,-0.0707766,0.44613665,0.8956901,-0.029321533,0.055588737,-0.018936822
462,4.62,-0.0707766,0.44613665,0.8956901,-0.029321533,0.055588737,-0.018936822
463,4.63,-0.0707766,0.44613665,0.8956901,-0.029321533,0.055588737,-0.018936822
464,4.64,-0.0707766,0.44613665,0.8956901,-0.029321533,0.055588737,-0.018936822
465,4.65,-0.0645678545877418,0.4482396114410175,0.886777526856524,-0.029321533,0.055588737,-0.018936822
466,4.66,-0.055645052,0.45126185,0.87396896,-0.029321533,0.055588737,-0.018936822
467,4.67,-0.055645052,0.45126185,0.87396896,-0.029321533,0.055588737,-0.018936822
468,4.68,-0.055645052,0.45126185,0.87396896,-0.029321533,0.055588737,-0.018936822
469,4.69,-0.055645052,0.45126185,0.87396896,-0.0674001066173341,0.0448925092821179,-0.0232153137875513
470,4.7,-0.055645052,0.45126185,0.87396896,-0.08368854,0.040317107,-0.025045475
471,4.71,-0.055645052,0.45126185,0.87396896,-0.08368854,0.040317107,-0.025045475
472,4.72,-0.055645052,0.45126185,0.87396896,-0.08368854,0.040317107,-0.025045475
473,4.73,-0.055645052,0.45126185,0.87396896,-0.08368854,0.040317107,-0.025045475
474,4.74,-0.055645052,0.45126185,0.87396896,-0.08368854,0.040317107,-0.025045475
475,4.75,-0.055645052,0.45126185,0.87396896,-0.08368854,0.040317107,-0.025045475
476,4.76,-0.055645052,0.45126185,0.87396896,-0.08368854,0.040317107,-0.025045475
477,4.77,-0.055645052,0.45126185,0.87396896,-0.0751011683525942,0.048188863887881,-0.0245683986238142
478,4.78,-0.055645052,0.45126185,0.87396896,-0.06169739,0.06047566,-0.023823744
479,4.79,-0.055645052,0.45126185,0.87396896,-0.0572976818061967,0.0534720434451244,-0.0234645841804419
480,4.8,-0.055645052,0.45126185,0.87396896,-0.0334623261998789,0.0155300518942139,-0.0215188410444031
481,4.81,-0.055645052,0.45126185,0.87396896,-0.03176499,0.01282817,-0.021380283
482,4.82,-0.055645052,0.45126185,0.87396896,-0.03176499,0.01282817,-0.021380283
483,4.83,-0.055645052,0.45126185,0.87396896,-0.03176499,0.01282817,-0.021380283
484,4.84,-0.055645052,0.45126185,0.87396896,-0.03176499,0.01282817,-0.021380283
485,4.85,-0.055645052,0.45126185,0.87396896,-0.03176499,0.01282817,-0.021380283
486,4.86,-0.055645052,0.45126185,0.87396896,-0.03176499,0.01282817,-0.021380283
487,4.87,-0.055645052,0.45126185,0.87396896,-0.03176499,0.01282817,-0.021380283
488,4.88,-0.055645052,0.45126185,0.87396896,-0.03176499,0.01282817,-0.021380283
489,4.89,-0.0570174965410891,0.4530536499658249,0.8703472424145723,-0.03176499,0.01282817,-0.021380283
490,4.9,-0.06443111,0.46273252,0.8507836,-0.03176499,0.01282817,-0.021380283
491,4.91,-0.06443111,0.46273252,0.8507836,-0.03176499,0.01282817,-0.021380283
492,4.92,-0.06443111,0.46273252,0.8507836,-0.03176499,0.01282817,-0.021380283
493,4.93,-0.06443111,0.46273252,0.8507836,-0.03176499,0.01282817,-0.021380283
494,4.94,-0.06443111,0.46273252,0.8507836,-0.0178585620465454,0.0124308436171306,-0.0404519581585668
495,4.95,-0.06443111,0.46273252,0.8507836,0.010995574,0.01160644,-0.08002335
496,4.96,-0.06443111,0.46273252,0.8507836,0.010995574,0.01160644,-0.08002335
497,4.97,-0.06443111,0.46273252,0.8507836,0.010995574,0.01160644,-0.08002335
498,4.98,-0.0707078745501322,0.4499888151978366,0.8777926490229379,0.010995574,0.01160644,-0.08002335
499,4.99,-0.0793591998792203,0.444438006677023,0.8796115343074422,0.010995574,0.01160644,-0.08002335
500,5.0,-0.08371163,0.44320798,0.8759214,0.0061664307984704,0.0205022301792513,-0.075956702502185
501,5.01,-0.08371163,0.44320798,0.8759214,-0.00061086525,0.032986723,-0.070249505
502,5.02,-0.08371163,0.44320798,0.8759214,-0.00061086525,0.032986723,-0.070249505
503,5.03,-0.08371163,0.44320798,0.8759214,-0.00061086525,0.032986723,-0.070249505
504,5.04,-0.08371163,0.44320798,0.8759214,-0.00061086525,0.032986723,-0.070249505
505,5.05,-0.08371163,0.44320798,0.8759214,-0.00061086525,0.032986723,-0.070249505
506,5.06,-0.08371163,0.44320798,0.8759214,-0.00061086525,0.032986723,-0.070249505
507,5.07,-0.08371163,0.44320798,0.8759214,-0.00061086525,0.032986723,-0.070249505
508,5.08,-0.08371163,0.44320798,0.8759214,-0.00061086525,0.032986723,-0.070249505
509,5.09,-0.0693860485435058,0.4473403387525144,0.8909357474232711,-0.00061086525,0.032986723,-0.070249505
510,5.1,-0.05832968,0.45052966,0.9025237,-0.00061086525,0.032986723,-0.070249505
511,5.11,-0.05832968,0.45052966,0.9025237,-0.00061086525,0.032986723,-0.070249505
512,5.12,-0.05832968,0.45052966,0.9025237,-0.00061086525,0.032986723,-0.070249505
513,5.13,-0.05832968,0.45052966,0.9025237,-0.00061086525,0.032986723,-0.070249505
514,5.14,-0.0782557795560575,0.4417074365264418,0.8844228751644231,-0.00061086525,0.032986723,-0.070249505
515,5.15,-0.09030118,0.43637437,0.87348086,-0.0270135115875585,0.0299692775866688,-0.0632087978006544
516,5.16,-0.09030118,0.43637437,0.87348086,-0.064751714,0.02565634,-0.053145275
517,5.17,-0.09030118,0.43637437,0.87348086,-0.064751714,0.02565634,-0.053145275
518,5.18,-0.09030118,0.43637437,0.87348086,-0.064751714,0.02565634,-0.053145275
519,5.19,-0.09030118,0.43637437,0.87348086,-0.064751714,0.02565634,-0.053145275
520,5.2,-0.09030118,0.43637437,0.87348086,-0.064751714,0.02565634,-0.053145275
521,5.21,-0.09030118,0.43637437,0.87348086,-0.064751714,0.02565634,-0.053145275
522,5.22,-0.090215878758714,0.4366729225969543,0.8731823161407783,-0.064751714,0.02565634,-0.053145275
523,5.23,-0.0898550278583192,0.4379358933556684,0.8719193823454032,-0.064751714,0.02565634,-0.053145275
524,5.24,-0.08981306,0.43808278,0.8717725,-0.064751714,0.02565634,-0.053145275
525,5.25,-0.08981306,0.43808278,0.8717725,-0.1505521385797393,-0.0011799174135779,-0.0633506142784162
526,5.26,-0.08981306,0.43808278,0.8717725,-0.20341812,-0.017715093,-0.06963864
527,5.27,-0.08981306,0.43808278,0.8717725,-0.20341812,-0.017715093,-0.06963864
528,5.28,-0.08981306,0.43808278,0.8717725,-0.20341812,-0.017715093,-0.06963864
529,5.29,-0.08981306,0.43808278,0.8717725,-0.20341812,-0.017715093,-0.06963864
530,5.3,-0.08981306,0.43808278,0.8717725,-0.20341812,-0.017715093,-0.06963864
531,5.31,-0.08981306,0.43808278,0.8717725,-0.20341812,-0.017715093,-0.06963864
532,5.32,-0.08981306,0.43808278,0.8717725,-0.1944924485609433,-0.0200580820038879,-0.0688576429956757
533,5.33,-0.08981306,0.43808278,0.8717725,-0.1523518535402856,-0.0302436633948295,-0.0647833560212847
534,5.34,-0.08981306,0.43808278,0.8717725,-0.0987543690859432,-0.0229349155872045,-0.0506531100471727
535,5.35,-0.08981306,0.43808278,0.8717725,-0.08735373,-0.021380283,-0.047647487
536,5.36,-0.08981306,0.43808278,0.8717725,-0.08735373,-0.021380283,-0.047647487
537,5.37,-0.08981306,0.43808278,0.8717725,-0.08735373,-0.021380283,-0.047647487
538,5.38,-0.08981306,0.43808278,0.8717725,-0.08735373,-0.021380283,-0.047647487
539,5.39,-0.08981306,0.43808278,0.8717725,-0.08735373,-0.021380283,-0.047647487
540,5.4,-0.08981306,0.43808278,0.8717725,-0.08735373,-0.021380283,-0.047647487
541,5.41,-0.08981306,0.43808278,0.8717725,-0.2304734947140819,-0.0359139605470932,-0.1158818725779305
542,5.42,-0.0779136297809612,0.445040911570188,0.8755540919422126,-0.44226643,-0.057421334,-0.21685717
543,5.43,-0.032215554,0.47176263,0.89007676,-0.4353338734539101,-0.0540947221428997,-0.2106102496902379
544,5.44,-0.032215554,0.47176263,0.89007676,-0.3027257445021579,0.0095377590616833,-0.091117186996723
545,5.45,0.0113492322813897,0.4871000648604612,0.9700271774910664,-0.27550024,0.022602014,-0.06658431
546,5.46,0.03294773,0.49470404,1.0096649,-0.27550024,0.022602014,-0.06658431
547,5.47,0.03294773,0.49470404,1.0096649,-0.1970811168740127,0.01984077732751,-0.0290314925800643
548,5.48,0.03294773,0.49470404,1.0096649,-0.015271631,0.013439035,0.0580322
549,5.49,0.03294773,0.49470404,1.0096649,-0.015271631,0.013439035,0.0580322
550,5.5,0.03294773,0.49470404,1.0096649,-0.015271631,0.013439035,0.0580322
551,5.51,0.03294773,0.49470404,1.0096649,-0.015271631,0.013439035,0.0580322
552,5.52,0.03294773,0.49470404,1.0096649,-0.015271631,0.013439035,0.0580322
553,5.53,0.0194920088881627,0.498137584588788,0.9976939429287356,-0.015271631,0.013439035,0.0580322
554,5.54,-0.0024405725,0.5037342,0.9781815,-0.015271631,0.013439035,0.0580322
555,5.55,-0.0024405725,0.5037342,0.9781815,-0.015271631,0.013439035,0.0580322
556,5.56,-0.0024405725,0.5037342,0.9781815,0.0408011531923359,0.0061251938959454,0.0731474706572123
557,5.57,-0.0024405725,0.5037342,0.9781815,-0.1964771773924693,0.0388186258822412,-0.0441156855759479
558,5.58,-0.0024405725,0.5037342,0.9781815,-0.3585779,0.061086524,-0.12217305
559,5.59,0.0021721296786973,0.5047189219884987,0.9715993227334928,-0.3585779,0.061086524,-0.12217305
560,5.6,0.019280521,0.50837123,0.9471862,-0.3585779,0.061086524,-0.12217305
561,5.61,0.019280521,0.50837123,0.9471862,-0.3585779,0.061086524,-0.12217305
562,5.62,0.019280521,0.50837123,0.9471862,-0.3585779,0.061086524,-0.12217305
563,5.63,-0.1813116246772033,0.4745125933045854,0.870277027127524,-0.2106350163426935,0.0741917005827408,-0.0030615537758872
564,5.64,-0.40147418,0.4373506,0.78586435,-0.048258353,0.08857546,0.12767084
565,5.65,-0.3541543622790388,0.446276296277571,0.7967659678765374,-0.048258353,0.08857546,0.12767084
566,5.66,-0.0858959069682312,0.4968765228066343,0.8585677945275559,-0.048258353,0.08857546,0.12767084
567,5.67,-0.1012786331561453,0.4377515793047251,0.8763336846728859,-0.048258353,0.08857546,0.12767084
568,5.68,-0.11299851,0.41855815,0.88007045,-0.048258353,0.08857546,0.12767084
569,5.69,-0.11299851,0.41855815,0.88007045,-0.048258353,0.08857546,0.12767084
570,5.7,-0.11299851,0.41855815,0.88007045,-0.048258353,0.08857546,0.12767084
571,5.71,-0.11299851,0.41855815,0.88007045,-0.048258353,0.08857546,0.12767084
572,5.72,-0.11299851,0.41855815,0.88007045,-0.048258353,0.08857546,0.12767084
573,5.73,-0.11299851,0.41855815,0.88007045,-0.048258353,0.08857546,0.12767084
574,5.74,-0.11299851,0.41855815,0.88007045,-0.0424587550077482,0.0834581676304301,0.1170951020107177
575,5.75,-0.11299851,0.41855815,0.88007045,0.0134619363486968,0.0341163809131925,0.0151220720256405
576,5.76,-0.0183836289146863,0.4827204140477687,0.91394286376752,0.02443461,0.02443461,-0.004886922
577,5.77,0.028798755,0.51471674,0.9308343,0.02443461,0.02443461,-0.004886922
578,5.78,0.028798755,0.51471674,0.9308343,0.02443461,0.02443461,-0.004886922
579,5.79,0.028798755,0.51471674,0.9308343,0.02443461,0.02443461,-0.004886922
580,5.8,0.028798755,0.51471674,0.9308343,0.02443461,0.02443461,-0.004886922
581,5.81,0.028798755,0.51471674,0.9308343,0.02443461,0.02443461,-0.004886922
582,5.82,0.028798755,0.51471674,0.9308343,0.02443461,0.02443461,-0.004886922
583,5.83,0.028798755,0.51471674,0.9308343,0.02443461,0.02443461,-0.004886922
584,5.84,0.028798755,0.51471674,0.9308343,0.02443461,0.02443461,-0.004886922
585,5.85,0.028798755,0.51471674,0.9308343,0.02443461,0.02443461,-0.004886922
586,5.86,0.028798755,0.51471674,0.9308343,-0.6567376318255396,0.5838429452444737,-0.3907668884067566
587,5.87,0.028798755,0.51471674,0.9308343,-0.68294734,0.6053675,-0.40561453
588,5.88,0.028798755,0.51471674,0.9308343,-0.68294734,0.6053675,-0.40561453
589,5.89,0.028798755,0.51471674,0.9308343,-0.68294734,0.6053675,-0.40561453
590,5.9,0.028798755,0.51471674,0.9308343,-0.5225361713079334,0.4328527937870023,-0.3175888026920112
591,5.91,0.028798755,0.51471674,0.9308343,0.4838255710781585,-0.6494421720018936,0.2346528213218637
592,5.92,0.028798755,0.51471674,0.9308343,0.56382865,-0.73548174,0.27855456
593,5.93,0.028798755,0.51471674,0.9308343,0.56382865,-0.73548174,0.27855456
594,5.94,0.028798755,0.51471674,0.9308343,0.56382865,-0.73548174,0.27855456
595,5.95,0.0353365885166512,0.5201120376102552,0.9357218146240016,0.56382865,-0.73548174,0.27855456
596,5.96,0.0403564486768027,0.5119288733852653,0.9463766611867456,0.56382865,-0.73548174,0.27855456
597,5.97,-0.1584661917275659,0.1673951145327941,0.8987934852790198,0.56382865,-0.73548174,0.27855456
598,5.98,-0.191829,0.10958171,0.89080894,0.56382865,-0.73548174,0.27855456
599,5.99,-0.191829,0.10958171,0.89080894,0.3104146314471779,-0.2806844895316495,-0.0158370348036731
600,6.0,-0.191829,0.10958171,0.89080894,-0.01038471,0.2950479,-0.3885103
601,6.01,-0.191829,0.10958171,0.89080894,-0.01038471,0.2950479,-0.3885103
602,6.02,-0.191829,0.10958171,0.89080894,-0.01038471,0.2950479,-0.3885103
603,6.03,-0.191829,0.10958171,0.89080894,-0.01038471,0.2950479,-0.3885103
604,6.04,-0.191829,0.10958171,0.89080894,0.6886092260171944,-0.8470857576380261,0.3028080226530861
605,6.05,-0.191829,0.10958171,0.89080894,0.8240572,-1.0684034,0.43676865
606,6.06,-0.191829,0.10958171,0.89080894,0.8240572,-1.0684034,0.43676865
607,6.07,-0.191829,0.10958171,0.89080894,0.8240572,-1.0684034,0.43676865
608,6.08,-0.191829,0.10958171,0.89080894,0.8240572,-1.0684034,0.43676865
609,6.09,-0.191829,0.10958171,0.89080894,0.8240572,-1.0684034,0.43676865
610,6.1,-0.2517273367677186,0.1045779165984657,0.8797711673547358,0.8240572,-1.0684034,0.43676865
611,6.11,-0.29116032,0.10128376,0.87250465,0.8240572,-1.0684034,0.43676865
612,6.12,-0.29116032,0.10128376,0.87250465,0.8240572,-1.0684034,0.43676865
613,6.13,-0.29116032,0.10128376,0.87250465,0.8240572,-1.0684034,0.43676865
614,6.14,-0.29116032,0.10128376,0.87250465,0.8240572,-1.0684034,0.43676865
615,6.15,-0.29116032,0.10128376,0.87250465,0.8240572,-1.0684034,0.43676865
616,6.16,-0.29116032,0.10128376,0.87250465,0.8240572,-1.0684034,0.43676865
617,6.17,-0.29116032,0.10128376,0.87250465,0.8240572,-1.0684034,0.43676865
618,6.18,-0.29116032,0.10128376,0.87250465,0.8240572,-1.0684034,0.43676865
619,6.19,-0.29116032,0.10128376,0.87250465,0.8240572,-1.0684034,0.43676865
620,6.2,-0.29116032,0.10128376,0.87250465,0.8240572,-1.0684034,0.43676865
621,6.21,-0.29116032,0.10128376,0.87250465,0.8240572,-1.0684034,0.43676865
622,6.22,-0.29116032,0.10128376,0.87250465,0.5296191239212693,-0.6700791651367206,0.359418662627868
623,6.23,-0.29116032,0.10128376,0.87250465,0.18692477,-0.20647246,0.26939157
624,6.24,-0.29116032,0.10128376,0.87250465,0.18692477,-0.20647246,0.26939157
625,6.25,-0.29116032,0.10128376,0.87250465,0.18692477,-0.20647246,0.26939157
626,6.26,-0.29116032,0.10128376,0.87250465,0.18692477,-0.20647246,0.26939157
627,6.27,-0.29116032,0.10128376,0.87250465,-0.2406445811409963,0.1546135644112301,-0.0101349828530736
628,6.28,-0.3114379922444771,0.1148871254092015,0.8805545957656892,-0.8698721,0.68600166,-0.42149702
629,6.29,-0.38829508,0.16644704,0.91106576,-0.8698721,0.68600166,-0.42149702
630,6.3,-0.38829508,0.16644704,0.91106576,-0.8698721,0.68600166,-0.42149702
631,6.31,-0.2034526636997808,0.2858783675282377,0.9806189516211082,-0.8698721,0.68600166,-0.42149702
632,6.32,-0.12690976,0.33533466,1.0094208,-0.8698721,0.68600166,-0.42149702
633,6.33,-0.12690976,0.33533466,1.0094208,-0.8698721,0.68600166,-0.42149702
634,6.34,-0.12690976,0.33533466,1.0094208,-0.8698721,0.68600166,-0.42149702
635,6.35,-0.12690976,0.33533466,1.0094208,-0.8698721,0.68600166,-0.42149702
636,6.36,-0.12690976,0.33533466,1.0094208,-0.1660475408981111,-0.3670329641216563,0.1463850540986416
637,6.37,-0.12690976,0.33533466,1.0094208,0.16432275,-0.86132,0.4129449
638,6.38,-0.0964160839785503,0.3398113888455257,0.9613445910254644,0.16432275,-0.86132,0.4129449
639,6.39,-0.012202863,0.3521746,0.82857436,0.16432275,-0.86132,0.4129449
640,6.4,-0.012202863,0.3521746,0.82857436,0.16432275,-0.86132,0.4129449
641,6.41,-0.012202863,0.3521746,0.82857436,0.16432275,-0.86132,0.4129449
642,6.42,-0.0592722776585892,0.3398680422225094,0.8245144703314965,0.16432275,-0.86132,0.4129449
643,6.43,-0.102748096,0.32850105,0.82076454,0.16432275,-0.86132,0.4129449
644,6.44,-0.102748096,0.32850105,0.82076454,0.16432275,-0.86132,0.4129449
645,6.45,-0.102748096,0.32850105,0.82076454,0.16432275,-0.86132,0.4129449
646,6.46,-0.102748096,0.32850105,0.82076454,0.0719831146298524,-0.3789193373740962,0.18488900551302
647,6.47,-0.102748096,0.32850105,0.82076454,-0.1159515877871638,-0.0518875921260458,-0.0165186862464721
648,6.48,-0.0753163045274074,0.3589808118983786,0.818263620366256,-0.25961772,-0.16737708,-0.023823744
649,6.49,-0.017084008,0.42368335,0.81295466,-0.266591110939947,-0.1660360433483273,-0.0236091781181699
650,6.5,-0.017084008,0.42368335,0.81295466,-0.3299275658095799,-0.1538559564869079,-0.0216603640608302
651,6.51,-0.017084008,0.42368335,0.81295466,-0.3390302,-0.15210545,-0.021380283
652,6.52,-0.017084008,0.42368335,0.81295466,-0.3390302,-0.15210545,-0.021380283
653,6.53,-0.017084008,0.42368335,0.81295466,-0.3390302,-0.15210545,-0.021380283
654,6.54,-0.017084008,0.42368335,0.81295466,-0.3390302,-0.15210545,-0.021380283
655,6.55,-0.017084008,0.42368335,0.81295466,-0.3390302,-0.15210545,-0.021380283
656,6.56,-0.017084008,0.42368335,0.81295466,-0.3390302,-0.15210545,-0.021380283
657,6.57,-0.0342119163484314,0.4789146664774693,0.8365365970335549,-0.3390302,-0.15210545,-0.021380283
658,6.58,-0.1724004640459828,0.4963151526202811,0.8296218279635799,-0.3390302,-0.15210545,-0.021380283
659,6.59,-0.42954078,0.42026657,0.7668279,-0.3390302,-0.15210545,-0.021380283
660,6.6,-0.42954078,0.42026657,0.7668279,-0.3390302,-0.15210545,-0.021380283
661,6.61,-0.42954078,0.42026657,0.7668279,-0.3390302,-0.15210545,-0.021380283
662,6.62,-0.3620026608647615,0.4262412315236024,0.7681206600895265,-0.3390302,-0.15210545,-0.021380283
663,6.63,0.00953140210266,0.4591084522745124,0.7752322648344286,-0.3390302,-0.15210545,-0.021380283
664,6.64,0.042221904,0.46200037,0.775858,-0.3390302,-0.15210545,-0.021380283
665,6.65,0.042221904,0.46200037,0.775858,-0.3390302,-0.15210545,-0.021380283
666,6.66,0.042221904,0.46200037,0.775858,-0.3390302,-0.15210545,-0.021380283
667,6.67,0.042221904,0.46200037,0.775858,-0.4534865671344674,-0.0762484293196133,-0.061940567261568
668,6.68,0.042221904,0.46200037,0.775858,-1.0021521166146443,0.2873847610002986,-0.2563730065272718
669,6.69,0.042221904,0.46200037,0.775858,-1.0164797,0.2968805,-0.26145032
670,6.7,0.042221904,0.46200037,0.775858,-1.0164797,0.2968805,-0.26145032
671,6.71,0.042221904,0.46200037,0.775858,-1.0164797,0.2968805,-0.26145032
672,6.72,0.042221904,0.46200037,0.775858,-1.0164797,0.2968805,-0.26145032
673,6.73,0.042221904,0.46200037,0.775858,-1.0164797,0.2968805,-0.26145032
674,6.74,0.042221904,0.46200037,0.775858,-1.0164797,0.2968805,-0.26145032
675,6.75,0.042221904,0.46200037,0.775858,-1.3616101099321605,-0.2192547793401235,-0.0041108108142633
676,6.76,0.042221904,0.46200037,0.775858,-2.0299053,-1.2186762,0.49418998
677,6.77,0.084270054280397,0.4492971968109344,0.8295272838420582,-2.0329385896538263,-1.207138814043818,0.4619069670074275
678,6.78,0.4832735223482911,0.3287541973185815,1.338806056841611,-2.061722093409887,-1.0976582072095944,0.1555668769482831
679,6.79,0.51642513,0.31873876,1.38112,-2.0641136,-1.0885619,0.1301143
680,6.8,0.51642513,0.31873876,1.38112,-2.0641136,-1.0885619,0.1301143
681,6.81,0.51642513,0.31873876,1.38112,-1.1405953416811976,-0.7786952875016366,-1.2975888145192045
682,6.82,0.5422446797746047,0.3034307277681192,1.3642301261112928,-0.1160644,-0.43493605,-2.8814514
683,6.83,0.6399181,0.24552159,1.300337,-0.1160644,-0.43493605,-2.8814514
684,6.84,0.6399181,0.24552159,1.300337,-0.1160644,-0.43493605,-2.8814514
685,6.85,0.6399181,0.24552159,1.300337,-0.1160644,-0.43493605,-2.8814514
686,6.86,0.6399181,0.24552159,1.300337,-0.1160644,-0.43493605,-2.8814514
687,6.87,0.6399181,0.24552159,1.300337,-0.1160644,-0.43493605,-2.8814514
688,6.88,0.6399181,0.24552159,1.300337,-0.1160644,-0.43493605,-2.8814514
689,6.89,0.6399181,0.24552159,1.300337,-0.1160644,-0.43493605,-2.8814514
690,6.9,0.6399181,0.24552159,1.300337,-0.1160644,-0.43493605,-2.8814514
691,6.91,0.6399181,0.24552159,1.300337,-0.1160644,-0.43493605,-2.8814514
692,6.92,0.5479033625978385,0.1779203803507485,1.2615751627933969,-0.1160644,-0.43493605,-2.8814514
693,6.93,0.0470549220386113,-0.1900419851208246,1.0505893330638891,-0.1160644,-0.43493605,-2.8814514
694,6.94,-0.025317444737094,-0.1884189092070472,1.0967662768634387,-0.1160644,-0.43493605,-2.8814514
695,6.95,-0.03807293,-0.17840585,1.1185144,-0.1160644,-0.43493605,-2.8814514
696,6.96,-0.03807293,-0.17840585,1.1185144,-0.1160644,-0.43493605,-2.8814514
697,6.97,-0.03807293,-0.17840585,1.1185144,-0.1137264953568409,-0.4352173416207877,-2.8778357416832687
698,6.98,-0.03807293,-0.17840585,1.1185144,0.8583078817766326,-0.5521704116295804,-1.374547662712536
699,6.99,-0.03807293,-0.17840585,1.1185144,0.9602802,-0.5644395,-1.2168436
700,7.0,-0.03807293,-0.17840585,1.1185144,0.9602802,-0.5644395,-1.2168436
701,7.01,-0.03807293,-0.17840585,1.1185144,0.9602802,-0.5644395,-1.2168436
702,7.02,-0.0348307115538026,-0.184861336762809,1.1305279707493066,0.9602802,-0.5644395,-1.2168436
703,7.03,-0.0152867428185137,-0.223774763959975,1.2029453155457384,0.9602802,-0.5644395,-1.2168436
704,7.04,-0.010738519,-0.2328306,1.2197981,0.5310802966479629,-0.6590089576946991,-2.2682110000612363
705,7.05,-0.010738519,-0.2328306,1.2197981,0.27550024,-0.7153232,-2.8942795
706,7.06,-0.0239477938413271,-0.0594976250561862,1.1351470943905249,0.27550024,-0.7153232,-2.8942795
707,7.07,-0.0996965174144439,0.3270026187234758,0.9851298164002028,0.27550024,-0.7153232,-2.8942795
708,7.08,-0.2997023,-0.33460248,1.5177921,0.27550024,-0.7153232,-2.8942795
709,7.09,-0.2997023,-0.33460248,1.5177921,0.27550024,-0.7153232,-2.8942795
710,7.1,-0.1968533293827722,0.1119987859661537,1.1256131048888476,0.27550024,-0.7153232,-2.8942795
711,7.11,-0.136428,0.3743838,0.895202,0.8871120147154556,-0.00094788526928,-1.7863418347649858
712,7.12,-0.136428,0.3743838,0.895202,2.0288404627678913,1.3326147653090756,0.2819047284345531
713,7.13,-0.136428,0.3743838,0.895202,2.1551325,1.4801265,0.51068336
714,7.14,-0.1018047388910202,0.3585716061677089,0.9388673096239588,2.1551325,1.4801265,0.51068336
715,7.15,0.045708692448184,0.2912032851461831,1.1249046569681218,2.1551325,1.4801265,0.51068336
716,7.16,0.049543623,0.2894519,1.1297411,2.1551325,1.4801265,0.51068336
717,7.17,0.049543623,0.2894519,1.1297411,2.1551325,1.4801265,0.51068336
718,7.18,0.049543623,0.2894519,1.1297411,2.083810327009624,1.5249289291181192,0.4831590008433417
719,7.19,0.049543623,0.2894519,1.1297411,1.9382755,1.6163495,0.4269948
720,7.2,0.049543623,0.2894519,1.1297411,1.9382755,1.6163495,0.4269948
721,7.21,0.049543623,0.2894519,1.1297411,1.9382755,1.6163495,0.4269948
722,7.22,0.049543623,0.2894519,1.1297411,1.9382755,1.6163495,0.4269948
723,7.23,0.049543623,0.2894519,1.1297411,1.9382755,1.6163495,0.4269948
724,7.24,0.049543623,0.2894519,1.1297411,1.9382755,1.6163495,0.4269948
725,7.25,0.049543623,0.2894519,1.1297411,1.9382755,1.6163495,0.4269948
726,7.26,0.049543623,0.2894519,1.1297411,1.317552302974151,0.7966613426116542,0.0469359179421704
727,7.27,-0.1387853150511735,0.3352527984236242,1.0523157266048593,0.98349303,0.3555236,-0.15760323
728,7.28,-0.3390137572196267,0.3637803650371874,0.9082256282061728,0.98349303,0.3555236,-0.15760323
729,7.29,-0.236202676736057,0.2837533033750534,0.7513781751950328,0.98349303,0.3555236,-0.15760323
730,7.3,-0.3072664502583438,0.5402464504568498,0.701441454394802,0.98349303,0.3555236,-0.15760323
731,7.31,-0.33265,0.63186425,0.68360436,0.98349303,0.3555236,-0.15760323
732,7.32,-0.2843809837176235,0.6197456148084616,0.7073280821756243,0.98349303,0.3555236,-0.15760323
733,7.33,-0.21794313,0.60306543,0.7399816,0.98349303,0.3555236,-0.15760323
734,7.34,-0.21794313,0.60306543,0.7399816,0.98349303,0.3555236,-0.15760323
735,7.35,-0.21794313,0.60306543,0.7399816,0.98349303,0.3555236,-0.15760323
736,7.36,-0.21794313,0.60306543,0.7399816,0.98349303,0.3555236,-0.15760323
737,7.37,-0.21794313,0.60306543,0.7399816,0.98349303,0.3555236,-0.15760323
738,7.38,-0.21794313,0.60306543,0.7399816,0.98349303,0.3555236,-0.15760323
739,7.39,-0.21794313,0.60306543,0.7399816,0.98349303,0.3555236,-0.15760323
740,7.4,-0.21794313,0.60306543,0.7399816,0.98349303,0.3555236,-0.15760323
741,7.41,-0.21794313,0.60306543,0.7399816,0.98349303,0.3555236,-0.15760323
742,7.42,-0.21794313,0.60306543,0.7399816,0.98349303,0.3555236,-0.15760323
743,7.43,-0.21794313,0.60306543,0.7399816,0.8803247386808785,0.4225946306736922,-0.1529455178421546
744,7.44,-0.21794313,0.60306543,0.7399816,0.7128797,0.5314528,-0.14538592
745,7.45,-0.21794313,0.60306543,0.7399816,0.7128797,0.5314528,-0.14538592
746,7.46,-0.21794313,0.60306543,0.7399816,0.7128797,0.5314528,-0.14538592
747,7.47,-0.21794313,0.60306543,0.7399816,0.7128797,0.5314528,-0.14538592
748,7.48,-0.21794313,0.60306543,0.7399816,0.1857966278728386,0.139810951984474,-0.3700202085203227
749,7.49,-0.2428570655576647,0.5890305979085843,0.7310125792520576,-0.16432275,-0.12034045,-0.51923543
750,7.5,-0.29116032,0.5618198,0.7136234,-0.16432275,-0.12034045,-0.51923543
751,7.51,-0.29116032,0.5618198,0.7136234,-0.16432275,-0.12034045,-0.51923543
752,7.52,-0.3724508236405174,0.4755216515355342,0.756522117296886,0.2597405268315212,0.0388399543432169,-0.2677220514783857
753,7.53,-0.41001618,0.4356422,0.77634615,0.45570546,0.112399206,-0.15149458
754,7.54,-0.41001618,0.4356422,0.77634615,0.45570546,0.112399206,-0.15149458
755,7.55,-0.41001618,0.4356422,0.77634615,0.45570546,0.112399206,-0.15149458
756,7.56,-0.4175818816707189,0.4280764711365354,0.7851064289890572,0.45570546,0.112399206,-0.15149458
757,7.57,-0.376675424270801,0.4676076161701045,0.7601339090709677,0.45570546,0.112399206,-0.15149458
758,7.58,-0.3364771291934502,0.5057022069202992,0.7281567574912514,0.45570546,0.112399206,-0.15149458
759,7.59,-0.42392743,0.41807005,0.7748818,0.4432336218826249,0.1073338516317464,-0.1554957846750158
760,7.6,-0.42392743,0.41807005,0.7748818,0.3013302795528848,0.049700749904877,-0.2010210962920045
761,7.61,-0.42392743,0.41807005,0.7748818,0.27672195,0.03970624,-0.20891592
762,7.62,-0.42392743,0.41807005,0.7748818,0.27672195,0.03970624,-0.20891592
763,7.63,-0.3077578324637707,0.4819066233735845,0.8145770500286534,0.27672195,0.03970624,-0.20891592
764,7.64,-0.2489384,0.5142286,0.8346757,0.3023364378080695,0.1338245937254909,-0.0403368401193423
765,7.65,-0.2489384,0.5142286,0.8346757,0.32925636,0.23273966,0.13683382
766,7.66,-0.2489384,0.5142286,0.8346757,0.32925636,0.23273966,0.13683382
767,7.67,-0.2489384,0.5142286,0.8346757,0.32925636,0.23273966,0.13683382
768,7.68,-0.2489384,0.5142286,0.8346757,0.32925636,0.23273966,0.13683382
769,7.69,-0.2489384,0.5142286,0.8346757,0.32925636,0.23273966,0.13683382
770,7.7,-0.2489384,0.5142286,0.8346757,0.32925636,0.23273966,0.13683382
771,7.71,-0.2400166149740129,0.5228298361233292,0.8118103146154316,0.32925636,0.23273966,0.13683382
772,7.72,-0.20818083,0.5535218,0.7302193,0.32925636,0.23273966,0.13683382
773,7.73,-0.20818083,0.5535218,0.7302193,0.32925636,0.23273966,0.13683382
774,7.74,-0.20818083,0.5535218,0.7302193,0.32925636,0.23273966,0.13683382
775,7.75,-0.20818083,0.5535218,0.7302193,0.32925636,0.23273966,0.13683382
776,7.76,-0.2307404794253857,0.5429215183575496,0.6844204859211244,0.32925636,0.23273966,0.13683382
777,7.77,-0.24869433,0.5344854,0.647972,0.2267363514181414,0.1634585582930289,0.0785656085998191
778,7.78,-0.2515362280196182,0.5338647542357072,0.654929748062399,0.016493361,0.021380283,-0.040927973
779,7.79,-0.2697201578809703,0.5298935424016662,0.6994490101492978,0.016493361,0.021380283,-0.040927973
780,7.8,-0.26992732,0.5298483,0.6999562,0.016493361,0.021380283,-0.040927973
781,7.81,-0.26992732,0.5298483,0.6999562,0.016493361,0.021380283,-0.040927973
782,7.82,-0.2691626632493747,0.5296144797558687,0.7016182214626699,0.016493361,0.021380283,-0.040927973
783,7.83,-0.2448708246411106,0.5221864100642883,0.7544178038918202,0.016493361,0.021380283,-0.040927973
784,7.84,-0.2403964,0.5208182,0.7641432,0.016493361,0.021380283,-0.040927973
785,7.85,-0.2403964,0.5208182,0.7641432,0.1867118131641833,-0.0199227218655812,0.0829810482556924
786,7.86,-0.2403964,0.5208182,0.7641432,0.34880406,-0.059253927,0.20097467
787,7.87,-0.2403964,0.5208182,0.7641432,0.2306374804470455,-0.0400352087318069,0.1358974228111414
788,7.88,-0.2403964,0.5208182,0.7641432,-0.0266705180191704,0.001933889412599,-0.0047819042832408
789,7.89,-0.2403964,0.5208182,0.7641432,-0.007330383,-0.00061086525,0.010995574
790,7.9,-0.2403964,0.5208182,0.7641432,-0.007330383,-0.00061086525,0.010995574
791,7.91,-0.2403964,0.5208182,0.7641432,0.2113494907274802,0.0465998145544476,0.1182582430118333
792,7.92,-0.2403964,0.5208182,0.7641432,0.3463606,0.07574729,0.18448131
793,7.93,-0.242270170887706,0.5239044156557667,0.7379103669259831,0.3463606,0.07574729,0.18448131
794,7.94,-0.24869433,0.5344854,0.647972,0.3463606,0.07574729,0.18448131
795,7.95,-0.24869433,0.5344854,0.647972,0.3463606,0.07574729,0.18448131
796,7.96,-0.24869433,0.5344854,0.647972,0.3463606,0.07574729,0.18448131
797,7.97,-0.24869433,0.5344854,0.647972,0.3600626078575843,0.0545933016551621,0.1138077549442103
798,7.98,-0.24869433,0.5344854,0.647972,0.3811799,0.021991149,0.004886922
799,7.99,-0.24869433,0.5344854,0.647972,0.3715856849678188,0.015665758635271,0.0055661585436356
800,8.0,-0.24869433,0.5344854,0.647972,0.2363939663037774,-0.0687165928081286,0.0146785477724123
801,8.01,-0.24869433,0.5344854,0.647972,-0.1297455816168536,-0.0517880776616868,0.0156458909521303
802,8.02,-0.24869433,0.5344854,0.647972,-0.21930063,-0.047647487,0.015882496
803,8.03,-0.24869433,0.5344854,0.647972,-0.2251265588123977,-0.0037997098177093,0.0033107557767482
804,8.04,-0.2883362794702991,0.5102021054218341,0.6957775431981665,-0.23090707,0.03970624,-0.009162978
805,8.05,-0.3735500063109615,0.4580031076776509,0.7985396059622638,-0.23090707,0.03970624,-0.009162978
806,8.06,-0.38853914,0.44882128,0.8166155,-0.23090707,0.03970624,-0.009162978
807,8.07,-0.38853914,0.44882128,0.8166155,-0.23090707,0.03970624,-0.009162978
808,8.08,-0.3759667156821333,0.4547241833840089,0.8223267594014817,-0.23090707,0.03970624,-0.009162978
809,8.09,-0.2490934970509389,0.5142926749225808,0.8799612970517827,-0.23090707,0.03970624,-0.009162978
810,8.1,-0.22843759,0.52399087,0.88934463,-0.23090707,0.03970624,-0.009162978
811,8.11,-0.22843759,0.52399087,0.88934463,-0.1261656820997562,0.0826231970413203,-0.0457774458977561
812,8.12,-0.22843759,0.52399087,0.88934463,-0.017715093,0.12705997,-0.08368854
813,8.13,-0.2552397025012179,0.5283493551047393,0.8558294623130566,-0.017715093,0.12705997,-0.08368854
814,8.14,-0.3590082,0.5452239,0.72607034,-0.017715093,0.12705997,-0.08368854
815,8.15,-0.3590082,0.5452239,0.72607034,-0.017715093,0.12705997,-0.08368854
816,8.16,-0.3590082,0.5452239,0.72607034,-0.017715093,0.12705997,-0.08368854
817,8.17,-0.3590082,0.5452239,0.72607034,-0.017715093,0.12705997,-0.08368854
818,8.18,-0.3354882349107605,0.538051590246787,0.7554056862952011,-0.017715093,0.12705997,-0.08368854
819,8.19,-0.2733650465587853,0.519107397599094,0.8328890174290963,-0.017715093,0.12705997,-0.08368854
820,8.2,-0.27017137,0.5181335,0.83687234,-0.017715093,0.12705997,-0.08368854
821,8.21,-0.27017137,0.5181335,0.83687234,-0.0634701651174265,0.0490584689783714,-0.0823812527755173
822,8.22,-0.27017137,0.5181335,0.83687234,-0.081855945,0.017715093,-0.081855945
823,8.23,-0.27017137,0.5181335,0.83687234,-0.081855945,0.017715093,-0.081855945
824,8.24,-0.27017137,0.5181335,0.83687234,-0.081855945,0.017715093,-0.081855945
825,8.25,-0.27017137,0.5181335,0.83687234,-0.081855945,0.017715093,-0.081855945
826,8.26,-0.27017137,0.5181335,0.83687234,-0.081855945,0.017715093,-0.081855945
827,8.27,-0.27017137,0.5181335,0.83687234,-0.081855945,0.017715093,-0.081855945
828,8.28,-0.27017137,0.5181335,0.83687234,0.0038877636658702,0.0432513556567037,-0.0343128216987142
829,8.29,-0.27017137,0.5181335,0.83687234,0.1704314,0.09285152,0.0580322
830,8.3,-0.27017137,0.5181335,0.83687234,0.1704314,0.09285152,0.0580322
831,8.31,-0.27017137,0.5181335,0.83687234,0.1704314,0.09285152,0.0580322
832,8.32,-0.27017137,0.5181335,0.83687234,0.1704314,0.09285152,0.0580322
833,8.33,-0.27017137,0.5181335,0.83687234,0.1704314,0.09285152,0.0580322
834,8.34,-0.3242827369445443,0.4855014653188178,0.820019330298018,0.1704314,0.09285152,0.0580322
835,8.35,-0.4150761338556462,0.4307482139389035,0.7917416857767315,0.1704314,0.09285152,0.0580322
836,8.36,-0.4300289,0.4217309,0.78708464,0.1704314,0.09285152,0.0580322
837,8.37,-0.4300289,0.4217309,0.78708464,0.1704314,0.09285152,0.0580322
838,8.38,-0.4300289,0.4217309,0.78708464,0.1704314,0.09285152,0.0580322
839,8.39,-0.4300289,0.4217309,0.78708464,0.1704314,0.09285152,0.0580322
840,8.4,-0.4300289,0.4217309,0.78708464,0.1704314,0.09285152,0.0580322
841,8.41,-0.4300289,0.4217309,0.78708464,0.1704314,0.09285152,0.0580322
842,8.42,-0.4300289,0.4217309,0.78708464,0.1704314,0.09285152,0.0580322
843,8.43,-0.4300289,0.4217309,0.78708464,0.1704314,0.09285152,0.0580322
844,8.44,-0.4300289,0.4217309,0.78708464,0.1634203968390996,0.0906124035892292,0.0526730036500874
845,8.45,-0.4300289,0.4217309,0.78708464,0.0673766879860331,0.059938755366744,-0.0207426092236793
846,8.46,-0.4300289,0.4217309,0.78708464,0.05375614,0.055588737,-0.031154128
847,8.47,-0.4300289,0.4217309,0.78708464,0.05375614,0.055588737,-0.031154128
848,8.48,-0.4300289,0.4217309,0.78708464,0.05375614,0.055588737,-0.031154128
849,8.49,-0.405758049148345,0.4391375970444385,0.7831434915504586,0.05375614,0.055588737,-0.031154128
850,8.5,-0.2690221542469814,0.5372025685691563,0.7609400482727208,0.05375614,0.055588737,-0.031154128
851,8.51,-0.24967057,0.55108124,0.7577977,0.05375614,0.055588737,-0.031154128
852,8.52,-0.2519437984922881,0.5483294760484589,0.767488872759716,0.05375614,0.055588737,-0.031154128
853,8.53,-0.25430766,0.545468,0.77756643,0.05375614,0.055588737,-0.031154128
854,8.54,-0.25430766,0.545468,0.77756643,0.05375614,0.055588737,-0.031154128
855,8.55,-0.25430766,0.545468,0.77756643,0.05375614,0.055588737,-0.031154128
856,8.56,-0.1508952438789746,0.4074061420137833,0.9359891962530188,0.05375614,0.055588737,-0.031154128
857,8.57,-0.11299851,0.3568117,0.99404514,0.05375614,0.055588737,-0.031154128
858,8.58,-0.11299851,0.3568117,0.99404514,0.05375614,0.055588737,-0.031154128
859,8.59,-0.1648298490725912,0.4123078889061054,0.9244131555846724,0.05375614,0.055588737,-0.031154128
860,8.6,-0.3026650232734824,0.5202742730172629,0.7705174538253845,0.05375614,0.055588737,-0.031154128
861,8.61,-0.4166057,0.42246306,0.7909895,0.05375614,0.055588737,-0.031154128
862,8.62,-0.4166057,0.42246306,0.7909895,0.05375614,0.055588737,-0.031154128
863,8.63,-0.4166057,0.42246306,0.7909895,0.05375614,0.055588737,-0.031154128
864,8.64,-0.4166057,0.42246306,0.7909895,0.05375614,0.055588737,-0.031154128
865,8.65,-0.4166057,0.42246306,0.7909895,0.05375614,0.055588737,-0.031154128
866,8.66,-0.4166057,0.42246306,0.7909895,0.05375614,0.055588737,-0.031154128
867,8.67,-0.4166057,0.42246306,0.7909895,0.05375614,0.055588737,-0.031154128
868,8.68,-0.4166057,0.42246306,0.7909895,0.05375614,0.055588737,-0.031154128
869,8.69,-0.4166057,0.42246306,0.7909895,0.05375614,0.055588737,-0.031154128
870,8.7,-0.4166057,0.42246306,0.7909895,0.05375614,0.055588737,-0.031154128
871,8.71,-0.4166057,0.42246306,0.7909895,0.05375614,0.055588737,-0.031154128
872,8.72,-0.4166057,0.42246306,0.7909895,0.05375614,0.055588737,-0.031154128
873,8.73,-0.4166057,0.42246306,0.7909895,0.0145162883718091,0.018268226219489,0.0036072633958284
874,8.74,-0.4166057,0.42246306,0.7909895,-0.0474459707623913,-0.0205900750894529,0.05777504337326
875,8.75,-0.4166057,0.42246306,0.7909895,0.0140416740395874,0.1481198221431971,-0.000663628418679
876,8.76,-0.3028771282065045,0.5314291519291583,0.7389829763481971,0.015271631,0.15149458,-0.0018325958
877,8.77,-0.27090356,0.5620638,0.7243619,0.015271631,0.15149458,-0.0018325958
878,8.78,-0.2700820908758752,0.5511109282098883,0.7480931845430144,0.015271631,0.15149458,-0.0018325958
879,8.79,-0.26870704,0.532777,0.7878168,0.015271631,0.15149458,-0.0018325958
880,8.8,-0.26870704,0.532777,0.7878168,0.015271631,0.15149458,-0.0018325958
881,8.81,-0.2804146372187128,0.5339152395438479,0.7263518246565818,0.015271631,0.15149458,-0.0018325958
882,8.82,-0.28627914,0.5344854,0.69556314,0.015271631,0.15149458,-0.0018325958
883,8.83,-0.28627914,0.5344854,0.69556314,0.015271631,0.15149458,-0.0018325958
884,8.84,-0.28627914,0.5344854,0.69556314,0.0309325893826903,0.0672138985177676,0.0218649077074464
885,8.85,-0.28627914,0.5344854,0.69556314,0.06169739,-0.0983493,0.06841691
886,8.86,-0.28627914,0.5344854,0.69556314,0.06169739,-0.0983493,0.06841691
887,8.87,-0.28627914,0.5344854,0.69556314,0.06169739,-0.0983493,0.06841691
888,8.88,-0.28627914,0.5344854,0.69556314,0.06169739,-0.0983493,0.06841691
889,8.89,-0.28627914,0.5344854,0.69556314,0.06169739,-0.0983493,0.06841691
890,8.9,-0.28627914,0.5344854,0.69556314,0.06169739,-0.0983493,0.06841691
891,8.91,-0.28627914,0.5344854,0.69556314,0.06169739,-0.0983493,0.06841691
892,8.92,-0.28627914,0.5344854,0.69556314,0.06169739,-0.0983493,0.06841691
893,8.93,-0.28627914,0.5344854,0.69556314,0.06169739,-0.0983493,0.06841691
894,8.94,-0.28627914,0.5344854,0.69556314,-0.0169765788948077,-0.0393438256542879,0.0059148104578835
895,8.95,-0.3757654863409908,0.4689196926014281,0.7295708371924579,-0.048258353,-0.015882496,-0.018936822
896,8.96,-0.4378387,0.4234393,0.75316066,-0.048258353,-0.015882496,-0.018936822
897,8.97,-0.4378387,0.4234393,0.75316066,-0.048258353,-0.015882496,-0.018936822
898,8.98,-0.4378387,0.4234393,0.75316066,-0.048258353,-0.015882496,-0.018936822
899,8.99,-0.4378387,0.4234393,0.75316066,-0.048258353,-0.015882496,-0.018936822
900,9.0,-0.4378387,0.4234393,0.75316066,-0.048258353,-0.015882496,-0.018936822
901,9.01,-0.345537195381693,0.4858477099785908,0.7813493203178403,-0.048258353,-0.015882496,-0.018936822
902,9.02,-0.2660224,0.53961056,0.80563295,-0.048258353,-0.015882496,-0.018936822
903,9.03,-0.2660224,0.53961056,0.80563295,-0.048258353,-0.015882496,-0.018936822
904,9.04,-0.2660224,0.53961056,0.80563295,-0.048258353,-0.015882496,-0.018936822
905,9.05,-0.2660224,0.53961056,0.80563295,-0.048258353,-0.015882496,-0.018936822
906,9.06,-0.258730962651886,0.5427888476128577,0.8060068963810556,-0.048258353,-0.015882496,-0.018936822
907,9.07,-0.25650415,0.5437595,0.8061211,-0.048258353,-0.015882496,-0.018936822
908,9.08,-0.25650415,0.5437595,0.8061211,-0.048258353,-0.015882496,-0.018936822
909,9.09,-0.25650415,0.5437595,0.8061211,-0.048258353,-0.015882496,-0.018936822
910,9.1,-0.25650415,0.5437595,0.8061211,-0.048258353,-0.015882496,-0.018936822
911,9.11,-0.25650415,0.5437595,0.8061211,-0.048258353,-0.015882496,-0.018936822
912,9.12,-0.25650415,0.5437595,0.8061211,-0.048258353,-0.015882496,-0.018936822
913,9.13,-0.25650415,0.5437595,0.8061211,-0.048258353,-0.015882496,-0.018936822
914,9.14,-0.25650415,0.5437595,0.8061211,-0.0302766164701099,0.0568618063819973,-0.0091286020664962
915,9.15,-0.259983864287816,0.5434695303441572,0.8003215880684436,-0.007941248,0.14721853,0.0030543262
916,9.16,-0.2711476,0.54253924,0.7817154,-0.007941248,0.14721853,0.0030543262
917,9.17,-0.2711476,0.54253924,0.7817154,-0.007941248,0.14721853,0.0030543262
918,9.18,-0.2711476,0.54253924,0.7817154,-0.007941248,0.14721853,0.0030543262
919,9.19,-0.2711476,0.54253924,0.7817154,-0.007941248,0.14721853,0.0030543262
920,9.2,-0.2711476,0.54253924,0.7817154,-0.007941248,0.14721853,0.0030543262
921,9.21,-0.2711476,0.54253924,0.7817154,-0.007941248,0.14721853,0.0030543262
922,9.22,-0.2711476,0.54253924,0.7817154,-0.007941248,0.14721853,0.0030543262
923,9.23,-0.2711476,0.54253924,0.7817154,-0.007941248,0.14721853,0.0030543262
924,9.24,-0.2711476,0.54253924,0.7817154,0.0239086844590202,0.0783430513262106,0.0130074295964935
925,9.25,-0.1185471006062962,0.5044709325977622,0.831564141412858,0.040927973,0.04153884,0.018325957
926,9.26,0.07028849,0.45736328,0.8932495,0.040927973,0.04153884,0.018325957
927,9.27,0.0534952570701362,0.4602405209242526,0.889476619973922,0.040927973,0.04153884,0.018325957
928,9.28,-0.2401003047731967,0.5105432332871801,0.823515477432154,0.040927973,0.04153884,0.018325957
929,9.29,-0.29579738,0.520086,0.8110022,0.040927973,0.04153884,0.018325957
930,9.3,-0.29579738,0.520086,0.8110022,0.040927973,0.04153884,0.018325957
931,9.31,-0.29579738,0.520086,0.8110022,0.040927973,0.04153884,0.018325957
932,9.32,-0.29579738,0.520086,0.8110022,0.040927973,0.04153884,0.018325957
933,9.33,-0.29579738,0.520086,0.8110022,0.040927973,0.04153884,0.018325957
934,9.34,-0.29579738,0.520086,0.8110022,0.040927973,0.04153884,0.018325957
935,9.35,-0.29579738,0.520086,0.8110022,0.040927973,0.04153884,0.018325957
936,9.36,-0.29579738,0.520086,0.8110022,0.040927973,0.04153884,0.018325957
937,9.37,-0.29579738,0.520086,0.8110022,0.040927973,0.04153884,0.018325957
938,9.38,-0.29579738,0.520086,0.8110022,0.040927973,0.04153884,0.018325957
939,9.39,-0.29579738,0.520086,0.8110022,0.040927973,0.04153884,0.018325957
940,9.4,-0.29579738,0.520086,0.8110022,0.1122596973946592,0.1080139349700184,0.0863187465844479
941,9.41,-0.29579738,0.520086,0.8110022,0.18448131,0.17531833,0.15515977
942,9.42,-0.2939580969490943,0.5348003146492979,0.8401243276553051,0.18448131,0.17531833,0.15515977
943,9.43,-0.28994003,0.56694496,0.90374404,0.18448131,0.17531833,0.15515977
944,9.44,-0.28994003,0.56694496,0.90374404,0.18448131,0.17531833,0.15515977
945,9.45,-0.28994003,0.56694496,0.90374404,0.18448131,0.17531833,0.15515977
946,9.46,-0.28994003,0.56694496,0.90374404,0.18448131,0.17531833,0.15515977
947,9.47,-0.28994003,0.56694496,0.90374404,0.18448131,0.17531833,0.15515977
948,9.48,-0.28994003,0.56694496,0.90374404,0.0112262993898779,0.6706597124615333,0.0294799308880603
949,9.49,-0.28994003,0.56694496,0.90374404,-0.23151793,1.3646729,-0.14660765
950,9.5,-0.28994003,0.56694496,0.90374404,-0.23151793,1.3646729,-0.14660765
951,9.51,-0.28994003,0.56694496,0.90374404,-0.23151793,1.3646729,-0.14660765
952,9.52,-0.28994003,0.56694496,0.90374404,-0.23151793,1.3646729,-0.14660765
953,9.53,-0.3527891288082335,0.5436153818663814,0.7301799450115202,-0.23151793,1.3646729,-0.14660765
954,9.54,-0.4424758,0.5103237,0.4825012,-0.121509485375527,1.065351438378974,-0.018209742122951
955,9.55,-0.4424758,0.5103237,0.4825012,0.1832164975081175,0.2424372607776436,0.3172042726295884
956,9.56,-0.4424758,0.5103237,0.4825012,0.2039087447572382,0.187803161910538,0.2365224976057214
957,9.57,-0.4424758,0.5103237,0.4825012,0.0551859467844923,-0.0141467368601861,0.0559678068392526
958,9.58,-0.4424758,0.5103237,0.4825012,0.03726278,-0.03848451,0.034208454
959,9.59,-0.4424758,0.5103237,0.4825012,0.1108712309102682,0.0288741691893538,0.1515653217348083
960,9.6,-0.4424758,0.5103237,0.4825012,0.16676621,0.08002335,0.2406809
961,9.61,-0.4424758,0.5103237,0.4825012,0.16676621,0.08002335,0.2406809
962,9.62,-0.4424758,0.5103237,0.4825012,0.16676621,0.08002335,0.2406809
963,9.63,-0.4424758,0.5103237,0.4825012,0.16676621,0.08002335,0.2406809
964,9.64,-0.4424758,0.5103237,0.4825012,0.16676621,0.08002335,0.2406809
965,9.65,-0.4424758,0.5103237,0.4825012,0.1754031025527383,0.1452797763783798,0.3083364627622033
966,9.66,-0.4424758,0.5103237,0.4825012,0.1777618,0.16310102,0.3268129
967,9.67,-0.3710137989757228,0.5484061888724315,0.5991574547037515,0.1777618,0.16310102,0.3268129
968,9.68,-0.29042813,0.59135073,0.7307074,0.1777618,0.16310102,0.3268129
969,9.69,-0.29042813,0.59135073,0.7307074,0.1512498715850394,0.1344681400971974,0.2885178967688733
970,9.7,-0.29042813,0.59135073,0.7307074,0.0557816550364496,0.0313624762546533,0.1506193778842526
971,9.71,-0.29042813,0.59135073,0.7307074,0.040317107,0.014660766,0.1282817
972,9.72,-0.3153956204833571,0.5714018154303591,0.7343458683085632,0.040317107,0.014660766,0.1282817
973,9.73,-0.33899552,0.5525456,0.73778504,0.040317107,0.014660766,0.1282817
974,9.74,-0.33899552,0.5525456,0.73778504,0.040317107,0.014660766,0.1282817
975,9.75,-0.33899552,0.5525456,0.73778504,0.040317107,0.014660766,0.1282817
976,9.76,-0.33899552,0.5525456,0.73778504,0.040317107,0.014660766,0.1282817
977,9.77,-0.33899552,0.5525456,0.73778504,0.040317107,0.014660766,0.1282817
978,9.78,-0.33899552,0.5525456,0.73778504,0.040317107,0.014660766,0.1282817
979,9.79,-0.33899552,0.5525456,0.73778504,0.040317107,0.014660766,0.1282817
980,9.8,-0.33899552,0.5525456,0.73778504,0.040317107,0.014660766,0.1282817
981,9.81,-0.33899552,0.5525456,0.73778504,0.040317107,0.014660766,0.1282817
982,9.82,-0.33899552,0.5525456,0.73778504,0.040317107,0.014660766,0.1282817
983,9.83,-0.33899552,0.5525456,0.73778504,0.040317107,0.014660766,0.1282817
984,9.84,-0.33899552,0.5525456,0.73778504,0.040317107,0.014660766,0.1282817
985,9.85,-0.33899552,0.5525456,0.73778504,0.040317107,0.014660766,0.1282817
986,9.86,-0.33899552,0.5525456,0.73778504,0.040317107,0.014660766,0.1282817
987,9.87,-0.33899552,0.5525456,0.73778504,0.040317107,0.014660766,0.1282817
988,9.88,-0.33899552,0.5525456,0.73778504,0.040317107,0.014660766,0.1282817
989,9.89,-0.33899552,0.5525456,0.73778504,0.040317107,0.014660766,0.1282817
990,9.9,-0.33899552,0.5525456,0.73778504,0.040317107,0.014660766,0.1282817
991,9.91,-0.33899552,0.5525456,0.73778504,0.040317107,0.014660766,0.1282817
992,9.92,-0.3392334170668848,0.5524464768313552,0.7387068916418652,0.040317107,0.014660766,0.1282817
993,9.93,-0.343907713070142,0.5504988654669382,0.7568197986297147,0.040317107,0.014660766,0.1282817
994,9.94,-0.3448529,0.55010504,0.7604824,0.018664818196076,0.0991046982192193,0.0802136215916643
995,9.95,-0.3448529,0.55010504,0.7604824,0.009773844,0.1337795,0.06047566
996,9.96,-0.3448529,0.55010504,0.7604824,0.009773844,0.1337795,0.06047566
997,9.97,-0.3448529,0.55010504,0.7604824,0.009773844,0.1337795,0.06047566
998,9.98,-0.3448529,0.55010504,0.7604824,0.009773844,0.1337795,0.06047566
999,9.99,-0.3448529,0.55010504,0.7604824,0.009773844,0.1337795,0.06047566
