id,timestamp,acc_x,acc_y,acc_z,gyro_x,gyro_y,gyro_z
1,0.01,0.07297312,0.7175283,0.68336034,0.021380283,-0.0061086523,0.004886922
2,0.02,0.07297312,0.7175283,0.68336034,0.021380283,-0.0061086523,0.004886922
3,0.03,0.07297312,0.7175283,0.68336034,0.021380283,-0.0061086523,0.004886922
4,0.04,0.07297312,0.7175283,0.68336034,0.021380283,-0.0061086523,0.004886922
5,0.05,0.07297312,0.7175283,0.68336034,0.021380283,-0.0061086523,0.004886922
6,0.06,0.07297312,0.7175283,0.68336034,0.0286873392280407,-0.0181131024766158,0.0069746524729281
7,0.07,0.0770514854536587,0.7185922255292884,0.6812324598793675,0.029932396,-0.020158553,0.007330383
8,0.08,0.07858644,0.71899265,0.6804316,0.029932396,-0.020158553,0.007330383
9,0.09,0.07858644,0.71899265,0.6804316,0.029932396,-0.020158553,0.007330383
10,0.1,0.07858644,0.71899265,0.6804316,0.029932396,-0.020158553,0.007330383
11,0.11,0.07858644,0.71899265,0.6804316,0.029932396,-0.020158553,0.007330383
12,0.12,0.07858644,0.71899265,0.6804316,0.029932396,-0.020158553,0.007330383
13,0.13,0.07858644,0.71899265,0.6804316,0.029932396,-0.020158553,0.007330383
14,0.14,0.07858644,0.71899265,0.6804316,0.029932396,-0.020158553,0.007330383
15,0.15,0.07858644,0.71899265,0.6804316,0.029932396,-0.020158553,0.007330383
16,0.16,0.07858644,0.71899265,0.6804316,0.029932396,-0.020158553,0.007330383
17,0.17,0.07858644,0.71899265,0.6804316,0.029932396,-0.020158553,0.007330383
18,0.18,0.07858644,0.71899265,0.6804316,0.029932396,-0.020158553,0.007330383
19,0.19,0.07858644,0.71899265,0.6804316,0.029932396,-0.020158553,0.007330383
20,0.2,0.07858644,0.71899265,0.6804316,0.029932396,-0.020158553,0.007330383
21,0.21,0.07858644,0.71899265,0.6804316,0.029932396,-0.020158553,0.007330383
22,0.22,0.07858644,0.71899265,0.6804316,0.029932396,-0.020158553,0.007330383
23,0.23,0.07858644,0.71899265,0.6804316,0.029932396,-0.020158553,0.007330383
24,0.24,0.0778370945268907,0.71899265,0.6756358012534325,0.029932396,-0.020158553,0.007330383
25,0.25,0.07736614,0.71899265,0.6726217,0.029932396,-0.020158553,0.007330383
26,0.26,0.07736614,0.71899265,0.6726217,0.029932396,-0.020158553,0.007330383
27,0.27,0.07736614,0.71899265,0.6726217,0.0250745882038516,-0.014595579303634,0.0067819208013318
28,0.28,0.07736614,0.71899265,0.6726217,-0.0025262000165633,0.0170117763827877,0.0036657026165893
29,0.29,0.07736614,0.71899265,0.6726217,-0.007941248,0.02321288,0.0030543262
30,0.3,0.07736614,0.71899265,0.6726217,-0.007941248,0.02321288,0.0030543262
31,0.31,0.07736614,0.71899265,0.6726217,-0.007941248,0.02321288,0.0030543262
32,0.32,0.07736614,0.71899265,0.6726217,-0.007941248,0.02321288,0.0030543262
33,0.33,0.07736614,0.71899265,0.6726217,0.0152903789028494,0.0126530483324009,0.0056942837711662
34,0.34,0.07736614,0.71899265,0.6726217,0.018936822,0.010995574,0.0061086523
35,0.35,0.07736614,0.71899265,0.6726217,0.018936822,0.010995574,0.0061086523
36,0.36,0.07736614,0.71899265,0.6726217,0.018936822,0.010995574,0.0061086523
37,0.37,0.0787430547740207,0.7172159881824522,0.6755087897854103,0.018936822,0.010995574,0.0061086523
38,0.38,0.0847448330519017,0.7094717686382311,0.6880932090154899,0.018936822,0.010995574,0.0061086523
39,0.39,0.084931925,0.70923036,0.6884855,0.018936822,0.010995574,0.0061086523
40,0.4,0.084931925,0.70923036,0.6884855,0.018936822,0.010995574,0.0061086523
41,0.41,0.081396070814693,0.7094922727400131,0.695688167423548,0.024181325338211,-0.0099824366699166,0.0074197783760162
42,0.42,0.07834238,0.70971847,0.70190865,0.028710667,-0.028099801,0.008552114
43,0.43,0.07834238,0.70971847,0.70190865,0.028710667,-0.028099801,0.008552114
44,0.44,0.07834238,0.70971847,0.70190865,0.028710667,-0.028099801,0.008552114
45,0.45,0.07834238,0.70971847,0.70190865,0.028710667,-0.028099801,0.008552114
46,0.46,0.07834238,0.70971847,0.70190865,0.028710667,-0.028099801,0.008552114
47,0.47,0.07834238,0.70971847,0.70190865,0.028710667,-0.028099801,0.008552114
48,0.48,0.0881717698076068,0.7095294333531403,0.6992623150831417,0.028710667,-0.028099801,0.008552114
49,0.49,0.091033354,0.7094744,0.6984919,0.028710667,-0.028099801,0.008552114
50,0.5,0.091033354,0.7094744,0.6984919,0.028710667,-0.028099801,0.008552114
51,0.51,0.091033354,0.7094744,0.6984919,0.0276654995844744,-0.0269501168942508,0.0077159800675795
52,0.52,0.091033354,0.7094744,0.6984919,0.022602014,-0.021380283,0.0036651916
53,0.53,0.091033354,0.7094744,0.6984919,0.022602014,-0.021380283,0.0036651916
54,0.54,0.091033354,0.7094744,0.6984919,0.022602014,-0.021380283,0.0036651916
55,0.55,0.0855883111294081,0.7118290035506263,0.6955486003376996,0.022602014,-0.021380283,0.0036651916
56,0.56,0.082003236,0.7133793,0.6936107,0.022602014,-0.021380283,0.0036651916
57,0.57,0.082003236,0.7133793,0.6936107,0.022602014,-0.021380283,0.0036651916
58,0.58,0.082003236,0.7133793,0.6936107,0.022602014,-0.021380283,0.0036651916
59,0.59,0.082003236,0.7133793,0.6936107,0.022602014,-0.021380283,0.0036651916
60,0.6,0.082003236,0.7133793,0.6936107,0.1139591047272326,-0.167733449181162,-0.1276890465082292
61,0.61,0.0837684115423032,0.7118857063596473,0.6959190215428084,0.14538592,-0.2180789,-0.17287487
62,0.62,0.08517598,0.7145924693101626,0.6884581563841171,0.14538592,-0.2180789,-0.17287487
63,0.63,0.08517598,0.7214332,0.6721336,0.14538592,-0.2180789,-0.17287487
64,0.64,0.08517598,0.7214332,0.6721336,0.1295463031085423,-0.1920298592950561,-0.1517804019485437
65,0.65,0.08517598,0.7214332,0.6721336,0.0303072665082162,-0.0288263095099944,-0.019618449966495
66,0.66,0.08517598,0.7214332,0.6721336,0.016493361,-0.0061086523,-0.0012217305
67,0.67,0.08517598,0.7214332,0.6721336,0.016493361,-0.0061086523,-0.0012217305
68,0.68,0.08517598,0.7214332,0.6721336,0.016493361,-0.0061086523,-0.0012217305
69,0.69,0.08517598,0.7214332,0.6721336,0.016493361,-0.0061086523,-0.0012217305
70,0.7,0.08517598,0.7214332,0.6721336,0.016493361,-0.0061086523,-0.0012217305
71,0.71,0.08517598,0.7214332,0.6721336,0.016493361,-0.0061086523,-0.0012217305
72,0.72,0.08517598,0.7214332,0.6721336,0.016493361,-0.0061086523,-0.0012217305
73,0.73,0.08517598,0.7214332,0.6721336,0.016493361,-0.0061086523,-0.0012217305
74,0.74,0.08517598,0.7214332,0.6721336,0.016493361,-0.0061086523,-0.0012217305
75,0.75,0.08517598,0.7214332,0.6721336,0.016493361,-0.0061086523,-0.0012217305
76,0.76,0.08517598,0.7214332,0.6721336,0.016493361,-0.0061086523,-0.0012217305
77,0.77,0.08517598,0.7214332,0.6721336,0.016493361,-0.0061086523,-0.0012217305
78,0.78,0.08517598,0.7214332,0.6721336,0.016493361,-0.0061086523,-0.0012217305
79,0.79,0.08517598,0.7214332,0.6721336,0.016493361,-0.0061086523,-0.0012217305
80,0.8,0.08517598,0.7214332,0.6721336,0.016493361,-0.0061086523,-0.0012217305
81,0.81,0.08517598,0.7214332,0.6721336,0.016493361,-0.0061086523,-0.0012217305
82,0.82,0.08517598,0.7214332,0.6721336,0.016493361,-0.0061086523,-0.0012217305
83,0.83,0.08517598,0.7214332,0.6721336,0.016493361,-0.0061086523,-0.0012217305
84,0.84,0.08517598,0.7214332,0.6721336,0.016493361,-0.0061086523,-0.0012217305
85,0.85,0.08517598,0.7214332,0.6721336,0.016493361,-0.0061086523,-0.0012217305
86,0.86,0.08517598,0.7214332,0.6721336,0.016493361,-0.0061086523,-0.0012217305
87,0.87,0.08517598,0.7214332,0.6721336,0.016493361,-0.0061086523,-0.0012217305
88,0.88,0.08517598,0.7214332,0.6721336,0.016493361,-0.0061086523,-0.0012217305
89,0.89,0.08517598,0.7214332,0.6721336,0.016493361,-0.0061086523,-0.0012217305
90,0.9,0.08517598,0.7214332,0.6721336,0.016493361,-0.0061086523,-0.0012217305
91,0.91,0.08517598,0.7214332,0.6721336,0.016493361,-0.0061086523,-0.0012217305
92,0.92,0.08517598,0.7214332,0.6721336,0.016493361,-0.0061086523,-0.0012217305
93,0.93,0.08517598,0.7214332,0.6721336,0.016493361,-0.0061086523,-0.0012217305
94,0.94,0.08517598,0.7214332,0.6721336,0.016493361,-0.0061086523,-0.0012217305
95,0.95,0.08517598,0.7214332,0.6721336,0.016493361,-0.0061086523,-0.0012217305
96,0.96,0.08517598,0.7214332,0.6721336,0.016493361,-0.0061086523,-0.0012217305
97,0.97,0.08517598,0.7214332,0.6721336,0.016493361,-0.0061086523,-0.0012217305
98,0.98,0.0848579728967722,0.7214666734212805,0.672702668735475,0.016493361,-0.0061086523,-0.0012217305
99,0.99,0.0811651489552214,0.7218553799949875,0.6793109193984963,0.016493361,-0.0061086523,-0.0012217305
100,1.0,0.08053889,0.7219213,0.6804316,0.016493361,-0.0061086523,-0.0012217305
101,1.01,0.08053889,0.7219213,0.6804316,0.016493361,-0.0061086523,-0.0012217305
102,1.02,0.0820516309062932,0.7217620689226731,0.6777245738175406,0.016493361,-0.0061086523,-0.0012217305
103,1.03,0.08517598,0.7214332,0.6721336,0.016493361,-0.0061086523,-0.0012217305
104,1.04,0.08517598,0.7214332,0.6721336,0.016493361,-0.0061086523,-0.0012217305
105,1.05,0.08517598,0.7214332,0.6721336,0.016493361,-0.0061086523,-0.0012217305
106,1.06,0.08517598,0.7214332,0.6721336,0.016493361,-0.0061086523,-0.0012217305
107,1.07,0.085355111495103,0.7209853724855341,0.6718947596375848,0.016493361,-0.0061086523,-0.0012217305
108,1.08,0.0865887689729803,0.7179012372155064,0.6702498942333026,0.016493361,-0.0061086523,-0.0012217305
109,1.09,0.08664032,0.71777236,0.67018116,0.016493361,-0.0061086523,-0.0012217305
110,1.1,0.08664032,0.71777236,0.67018116,0.016493361,-0.0061086523,-0.0012217305
111,1.11,0.08664032,0.71777236,0.67018116,0.016493361,-0.0061086523,-0.0012217305
112,1.12,0.08664032,0.71777236,0.67018116,0.0134639686789698,0.004746669997722,-0.0019790785595942
113,1.13,0.08664032,0.71777236,0.67018116,0.009162978,0.020158553,-0.0030543262
114,1.14,0.0866185714924161,0.717786858920187,0.6701718392716562,0.009162978,0.020158553,-0.0030543262
115,1.15,0.0834682795890792,0.7198870412290692,0.6688217229511849,0.009162978,0.020158553,-0.0030543262
116,1.16,0.08151512,0.72118914,0.66798466,0.009162978,0.020158553,-0.0030543262
117,1.17,0.08151512,0.72118914,0.66798466,0.006740271092672,0.020158553,-0.0005559097080149
118,1.18,0.08151512,0.72118914,0.66798466,-0.0088194704231179,0.020158553,0.015490073690344
119,1.19,0.0086880041946346,0.7139735650374659,0.6908060702935879,-0.01038471,0.020158553,0.017104227
120,1.2,-0.024405725,0.7106947,0.70117646,-0.01038471,0.020158553,0.017104227
121,1.21,-0.024405725,0.7106947,0.70117646,-0.01038471,0.020158553,0.017104227
122,1.22,-0.024405725,0.7106947,0.70117646,-0.01038471,0.020158553,0.017104227
123,1.23,-0.024405725,0.7106947,0.70117646,-0.01038471,0.020158553,0.017104227
124,1.24,-0.024405725,0.7106947,0.70117646,-0.01038471,0.020158553,0.017104227
125,1.25,-0.024405725,0.7106947,0.70117646,-0.01038471,0.020158553,0.017104227
126,1.26,-0.024405725,0.7106947,0.70117646,-0.01038471,0.020158553,0.017104227
127,1.27,-0.0300423476389124,0.716799088337132,0.6921485088566866,-0.01038471,0.020158553,0.017104227
128,1.28,-0.0768198202568385,0.7674584772268721,0.6172269176032763,-0.01038471,0.020158553,0.017104227
129,1.29,-0.08322352,0.7743936,0.60697037,-0.01038471,0.020158553,0.017104227
130,1.3,-0.0080637967870204,0.7519320762689259,0.642822433320656,-0.01038471,0.020158553,0.017104227
131,1.31,0.08664032,0.7236297,0.6879974,-0.01038471,0.020158553,0.017104227
132,1.32,0.08664032,0.7236297,0.6879974,-0.0108517980738269,0.0196914649210754,0.0171820750080565
133,1.33,0.08664032,0.7236297,0.6879974,-0.0239362537294449,0.0066070091226604,0.0193628174983287
134,1.34,0.08664032,0.7236297,0.6879974,-0.028710667,0.0018325958,0.020158553
135,1.35,0.08664032,0.7236297,0.6879974,-0.028710667,0.0018325958,0.020158553
136,1.36,0.08664032,0.7236297,0.6879974,-0.028710667,0.0018325958,0.020158553
137,1.37,0.08664032,0.7236297,0.6879974,-0.028710667,0.0018325958,0.020158553
138,1.38,0.08664032,0.7236297,0.6879974,-0.028710667,0.0018325958,0.020158553
139,1.39,0.08664032,0.7236297,0.6879974,-0.028710667,0.0018325958,0.020158553
140,1.4,0.0829526620787712,0.7229436232904902,0.6817369350916092,-0.028710667,0.0018325958,0.020158553
141,1.41,0.07614586,0.72167724,0.67018116,-0.0247572768319586,-0.0004136485307567,0.0171036606569256
142,1.42,0.07614586,0.72167724,0.67018116,-0.0033301007449754,-0.0125881799490304,0.0005462976394873
143,1.43,0.07614586,0.72167724,0.67018116,-0.0018325958,-0.013439035,-0.00061086525
144,1.44,0.07614586,0.72167724,0.67018116,-0.0018325958,-0.013439035,-0.00061086525
145,1.45,0.07614586,0.72167724,0.67018116,-0.0018325958,-0.013439035,-0.00061086525
146,1.46,0.07614586,0.72167724,0.67018116,-0.0018325958,-0.013439035,-0.00061086525
147,1.47,0.07614586,0.72167724,0.67018116,-0.0018325958,-0.013439035,-0.00061086525
148,1.48,0.0815303298192743,0.7226055769279772,0.6833638852021374,-0.0018325958,-0.013439035,-0.00061086525
149,1.49,0.08322352,0.7228975,0.6875093,-0.0018325958,-0.013439035,-0.00061086525
150,1.5,0.08322352,0.7228975,0.6875093,-0.0018325958,-0.013439035,-0.00061086525
151,1.51,0.08322352,0.7228975,0.6875093,-0.0018325958,-0.013439035,-0.00061086525
152,1.52,0.0544363988872909,0.7149779110211234,0.6806372633463202,-0.0018325958,-0.013439035,-0.00061086525
153,1.53,-0.0739567424210764,0.6796558340795646,0.6499873637020429,-0.0018325958,-0.013439035,-0.00061086525
154,1.54,-0.08444381,0.67677075,0.6474839,0.0120228576065165,0.0209761239192296,0.0051994861631977
155,1.55,0.0061065916940799,0.7015642877732173,0.6685045115927993,0.017104227,0.03359759,0.007330383
156,1.56,0.079562664,0.72167724,0.6855568,0.017104227,0.03359759,0.007330383
157,1.57,0.079562664,0.72167724,0.6855568,0.017104227,0.03359759,0.007330383
158,1.58,0.0790808492910608,0.7219783792313773,0.6851954414771586,0.017104227,0.03359759,0.007330383
159,1.59,0.0744258656433173,0.724887792687936,0.6817042279803702,0.017104227,0.03359759,0.007330383
160,1.6,0.07370529,0.72533816,0.6811638,0.017104227,0.03359759,0.007330383
161,1.61,0.07370529,0.72533816,0.6811638,0.017104227,0.03359759,0.007330383
162,1.62,0.07370529,0.72533816,0.6811638,0.0052801338563225,0.0233157694774477,0.0099008378360856
163,1.63,0.07370529,0.72533816,0.6811638,-0.025045475,-0.0030543262,0.016493361
164,1.64,0.07370529,0.72533816,0.6811638,-0.025045475,-0.0030543262,0.016493361
165,1.65,0.07370529,0.72533816,0.6811638,-0.025045475,-0.0030543262,0.016493361
166,1.66,0.07370529,0.72533816,0.6811638,-0.025045475,-0.0030543262,0.016493361
167,1.67,0.07370529,0.72533816,0.6811638,-0.025045475,-0.0030543262,0.016493361
168,1.68,0.07370529,0.72533816,0.6811638,-0.025045475,-0.0030543262,0.016493361
169,1.69,0.07370529,0.72533816,0.6811638,-0.025045475,-0.0030543262,0.016493361
170,1.7,0.07370529,0.72533816,0.6811638,-0.025045475,-0.0030543262,0.016493361
171,1.71,0.07370529,0.72533816,0.6811638,-0.025045475,-0.0030543262,0.016493361
172,1.72,0.0769390733209038,0.7245648553784194,0.6822885894395603,-0.025045475,-0.0030543262,0.016493361
173,1.73,0.084931925,0.7226535,0.6850687,-0.025045475,-0.0030543262,0.016493361
174,1.74,0.084931925,0.7226535,0.6850687,-0.025045475,-0.0030543262,0.016493361
175,1.75,0.084931925,0.7226535,0.6850687,-0.025045475,-0.0030543262,0.016493361
176,1.76,0.084931925,0.7226535,0.6850687,0.0043012535694558,0.0210250412072134,0.0078398388442365
177,1.77,0.084931925,0.7226535,0.6850687,0.022602014,0.03604105,0.002443461
178,1.78,0.084931925,0.7226535,0.6850687,0.022602014,0.03604105,0.002443461
179,1.79,0.084931925,0.7226535,0.6850687,0.022602014,0.03604105,0.002443461
180,1.8,0.084931925,0.7226535,0.6850687,0.022602014,0.03604105,0.002443461
181,1.81,0.084931925,0.7226535,0.6850687,0.022602014,0.03604105,0.002443461
182,1.82,0.084931925,0.7226535,0.6850687,0.022602014,0.03604105,0.002443461
183,1.83,0.084931925,0.7226535,0.6850687,0.0008856921239966,0.0099814637487959,-0.0008139872814005
184,1.84,0.084931925,0.7226535,0.6850687,-0.026267206,-0.022602014,-0.004886922
185,1.85,0.084931925,0.7226535,0.6850687,-0.0253191584702303,-0.019757871721086,-0.0037492650573949
186,1.86,0.084931925,0.7226535,0.6850687,-0.020158553,-0.004276057,0.002443461
187,1.87,0.084931925,0.7226535,0.6850687,-0.020158553,-0.004276057,0.002443461
188,1.88,0.084931925,0.7226535,0.6850687,-0.020158553,-0.004276057,0.002443461
189,1.89,0.084931925,0.7226535,0.6850687,-0.0168994874329503,-0.001016991344031,0.004616171378033
190,1.9,0.084931925,0.7226535,0.6850687,-0.0126564793770239,-0.0017530132669712,0.007330383
191,1.91,0.084931925,0.7226535,0.6850687,-0.012217305,-0.014049901,0.007330383
192,1.92,0.084931925,0.7226535,0.6850687,-0.012217305,-0.014049901,0.007330383
193,1.93,0.084931925,0.7226535,0.6850687,-0.012217305,-0.014049901,0.007330383
194,1.94,0.084931925,0.7226535,0.6850687,-0.012217305,-0.014049901,0.007330383
195,1.95,0.084931925,0.7226535,0.6850687,-0.012217305,-0.014049901,0.007330383
196,1.96,0.084931925,0.7226535,0.6850687,-0.012217305,-0.014049901,0.007330383
197,1.97,0.084931925,0.7226535,0.6850687,-0.012217305,-0.014049901,0.007330383
198,1.98,0.084931925,0.7226535,0.6850687,-0.012217305,-0.014049901,0.007330383
199,1.99,0.084931925,0.7226535,0.6850687,-0.012217305,-0.014049901,0.007330383
200,2.0,0.084931925,0.7226535,0.6850687,-0.012217305,-0.014049901,0.007330383
201,2.01,0.084931925,0.7226535,0.6850687,-0.012217305,-0.014049901,0.007330383
202,2.02,0.084931925,0.7226535,0.6850687,-0.012217305,-0.014049901,0.007330383
203,2.03,0.084931925,0.7226535,0.6850687,-0.012217305,-0.014049901,0.007330383
204,2.04,0.084931925,0.7226535,0.6850687,-0.012217305,-0.014049901,0.007330383
205,2.05,0.084931925,0.7226535,0.6850687,-0.012217305,-0.014049901,0.007330383
206,2.06,0.084931925,0.7226535,0.6850687,-0.012217305,-0.014049901,0.007330383
207,2.07,0.084931925,0.7226535,0.6850687,-0.012217305,-0.014049901,0.007330383
208,2.08,0.084931925,0.7226535,0.6850687,-0.012217305,-0.014049901,0.007330383
209,2.09,0.084931925,0.7226535,0.6850687,-0.012217305,-0.014049901,0.007330383
210,2.1,0.084931925,0.7226535,0.6850687,-0.012217305,-0.014049901,0.007330383
211,2.11,0.084931925,0.7226535,0.6850687,-0.012217305,-0.014049901,0.007330383
212,2.12,0.084931925,0.7226535,0.6850687,-0.012217305,-0.014049901,0.007330383
213,2.13,0.084931925,0.7226535,0.6850687,-0.012217305,-0.014049901,0.007330383
214,2.14,0.084931925,0.7226535,0.6850687,-0.012217305,-0.014049901,0.007330383
215,2.15,0.084931925,0.7226535,0.6850687,-0.012217305,-0.014049901,0.007330383
216,2.16,0.084931925,0.7226535,0.6850687,-0.012217305,-0.014049901,0.007330383
217,2.17,0.084931925,0.7226535,0.6850687,-0.012217305,-0.014049901,0.007330383
218,2.18,0.084931925,0.7226535,0.6850687,-0.012217305,-0.014049901,0.007330383
219,2.19,0.084931925,0.7226535,0.6850687,-0.012217305,-0.014049901,0.007330383
220,2.2,0.084931925,0.7226535,0.6850687,-0.012217305,-0.014049901,0.007330383
221,2.21,0.084931925,0.7226535,0.6850687,-0.012217305,-0.014049901,0.007330383
222,2.22,0.084931925,0.7226535,0.6850687,-0.012217305,-0.014049901,0.007330383
223,2.23,0.084931925,0.7226535,0.6850687,-0.012217305,-0.014049901,0.007330383
224,2.24,0.084931925,0.7226535,0.6850687,-0.012217305,-0.014049901,0.007330383
225,2.25,0.084931925,0.7226535,0.6850687,-0.012217305,-0.014049901,0.007330383
226,2.26,0.084931925,0.7226535,0.6850687,-0.012217305,-0.014049901,0.007330383
227,2.27,0.084931925,0.7226535,0.6850687,-0.012217305,-0.014049901,0.007330383
228,2.28,0.084931925,0.7226535,0.6850687,-0.012217305,-0.014049901,0.007330383
229,2.29,0.084931925,0.7226535,0.6850687,-0.012217305,-0.014049901,0.007330383
230,2.3,0.084931925,0.7226535,0.6850687,-0.012217305,-0.014049901,0.007330383
231,2.31,0.084931925,0.7226535,0.6850687,-0.012217305,-0.014049901,0.007330383
232,2.32,0.084931925,0.7226535,0.6850687,-0.012217305,-0.014049901,0.007330383
233,2.33,0.084931925,0.7226535,0.6850687,-0.012217305,-0.014049901,0.007330383
234,2.34,0.084931925,0.7226535,0.6850687,-0.012217305,-0.014049901,0.007330383
235,2.35,0.084931925,0.7226535,0.6850687,-0.012217305,-0.014049901,0.007330383
236,2.36,0.084931925,0.7226535,0.6850687,-0.012217305,-0.014049901,0.007330383
237,2.37,0.084931925,0.7226535,0.6850687,-0.012217305,-0.014049901,0.007330383
238,2.38,0.084931925,0.7226535,0.6850687,-0.012217305,-0.014049901,0.007330383
239,2.39,0.084931925,0.7226535,0.6850687,-0.012217305,-0.014049901,0.007330383
240,2.4,0.084931925,0.7226535,0.6850687,-0.012217305,-0.014049901,0.007330383
241,2.41,0.084931925,0.7226535,0.6850687,-0.012217305,-0.014049901,0.007330383
242,2.42,0.084931925,0.7226535,0.6850687,-0.012217305,-0.014049901,0.007330383
243,2.43,0.084931925,0.7226535,0.6850687,-0.012217305,-0.014049901,0.007330383
244,2.44,0.084931925,0.7226535,0.6850687,-0.012217305,-0.014049901,0.007330383
245,2.45,0.084931925,0.7226535,0.6850687,-0.012217305,-0.014049901,0.007330383
246,2.46,0.084931925,0.7226535,0.6850687,-0.012217305,-0.014049901,0.007330383
247,2.47,0.084931925,0.7226535,0.6850687,-0.012217305,-0.014049901,0.007330383
248,2.48,0.084931925,0.7226535,0.6850687,-0.012217305,-0.014049901,0.007330383
249,2.49,0.084931925,0.7226535,0.6850687,-0.012217305,-0.014049901,0.007330383
250,2.5,0.084931925,0.7226535,0.6850687,-0.012217305,-0.014049901,0.007330383
251,2.51,0.084931925,0.7226535,0.6850687,-0.012217305,-0.014049901,0.007330383
252,2.52,0.084931925,0.7226535,0.6850687,-0.012217305,-0.014049901,0.007330383
253,2.53,0.084931925,0.7226535,0.6850687,-0.012217305,-0.014049901,0.007330383
254,2.54,0.084931925,0.7226535,0.6850687,-0.012217305,-0.014049901,0.007330383
255,2.55,0.084931925,0.7226535,0.6850687,-0.012217305,-0.014049901,0.007330383
256,2.56,0.084931925,0.7226535,0.6850687,-0.012217305,-0.014049901,0.007330383
257,2.57,0.084931925,0.7226535,0.6850687,-0.012217305,-0.014049901,0.007330383
258,2.58,0.084931925,0.7226535,0.6850687,-0.012217305,-0.014049901,0.007330383
259,2.59,0.084931925,0.7226535,0.6850687,-0.012217305,-0.014049901,0.007330383
260,2.6,0.084931925,0.7226535,0.6850687,-0.012217305,-0.014049901,0.007330383
261,2.61,0.084931925,0.7226535,0.6850687,-0.012217305,-0.014049901,0.007330383
262,2.62,0.084931925,0.7226535,0.6850687,-0.012217305,-0.014049901,0.007330383
263,2.63,0.084931925,0.7226535,0.6850687,-0.012217305,-0.014049901,0.007330383
264,2.64,0.084931925,0.7226535,0.6850687,-0.012217305,-0.014049901,0.007330383
265,2.65,0.084931925,0.7226535,0.6850687,-0.012217305,-0.014049901,0.007330383
266,2.66,0.084931925,0.7226535,0.6850687,-0.012217305,-0.014049901,0.007330383
267,2.67,0.084931925,0.7226535,0.6850687,-0.012217305,-0.014049901,0.007330383
268,2.68,0.084931925,0.7226535,0.6850687,-0.012217305,-0.014049901,0.007330383
269,2.69,0.084931925,0.7226535,0.6850687,-0.012217305,-0.014049901,0.007330383
270,2.7,0.084931925,0.7226535,0.6850687,-0.012217305,-0.014049901,0.007330383
271,2.71,0.084931925,0.7226535,0.6850687,-0.012217305,-0.014049901,0.007330383
272,2.72,0.084931925,0.7226535,0.6850687,-0.012217305,-0.014049901,0.007330383
273,2.73,0.084931925,0.7226535,0.6850687,-0.012217305,-0.014049901,0.007330383
274,2.74,0.084931925,0.7226535,0.6850687,-0.012217305,-0.014049901,0.007330383
275,2.75,0.084931925,0.7226535,0.6850687,-0.012217305,-0.014049901,0.007330383
276,2.76,0.084931925,0.7226535,0.6850687,-0.012217305,-0.014049901,0.007330383
277,2.77,0.084931925,0.7226535,0.6850687,-0.012217305,-0.014049901,0.007330383
278,2.78,0.084931925,0.7226535,0.6850687,-0.012217305,-0.014049901,0.007330383
279,2.79,0.084931925,0.7226535,0.6850687,-0.012217305,-0.014049901,0.007330383
280,2.8,0.084931925,0.7226535,0.6850687,-0.012217305,-0.014049901,0.007330383
281,2.81,0.084931925,0.7226535,0.6850687,-0.012217305,-0.014049901,0.007330383
282,2.82,0.084931925,0.7226535,0.6850687,-0.012217305,-0.014049901,0.007330383
283,2.83,0.084931925,0.7226535,0.6850687,-0.012217305,-0.014049901,0.007330383
284,2.84,0.084931925,0.7226535,0.6850687,-0.012217305,-0.014049901,0.007330383
285,2.85,0.084931925,0.7226535,0.6850687,-0.012217305,-0.014049901,0.007330383
286,2.86,0.084931925,0.7226535,0.6850687,-0.012217305,-0.014049901,0.007330383
287,2.87,0.084931925,0.7226535,0.6850687,-0.012217305,-0.014049901,0.007330383
288,2.88,0.084931925,0.7226535,0.6850687,-0.012217305,-0.014049901,0.007330383
289,2.89,0.084931925,0.7226535,0.6850687,-0.012217305,-0.014049901,0.007330383
290,2.9,0.084931925,0.7226535,0.6850687,-0.012217305,-0.014049901,0.007330383
291,2.91,0.084931925,0.7226535,0.6850687,-0.012217305,-0.014049901,0.007330383
292,2.92,0.084931925,0.7226535,0.6850687,-0.012217305,-0.014049901,0.007330383
293,2.93,0.084931925,0.7226535,0.6850687,-0.012217305,-0.014049901,0.007330383
294,2.94,0.084931925,0.7226535,0.6850687,-0.012217305,-0.014049901,0.007330383
295,2.95,0.084931925,0.7226535,0.6850687,-0.012217305,-0.014049901,0.007330383
296,2.96,0.084931925,0.7226535,0.6850687,-0.012217305,-0.014049901,0.007330383
297,2.97,0.084931925,0.7226535,0.6850687,-0.012217305,-0.014049901,0.007330383
298,2.98,0.084931925,0.7226535,0.6850687,-0.012217305,-0.014049901,0.007330383
299,2.99,0.084931925,0.7226535,0.6850687,-0.012217305,-0.014049901,0.007330383
300,3.0,0.084931925,0.7226535,0.6850687,-0.012217305,-0.014049901,0.007330383
301,3.01,0.084931925,0.7226535,0.6850687,-0.012217305,-0.014049901,0.007330383
302,3.02,0.084931925,0.7226535,0.6850687,-0.012217305,-0.014049901,0.007330383
303,3.03,0.084931925,0.7226535,0.6850687,-0.012217305,-0.014049901,0.007330383
304,3.04,0.084931925,0.7226535,0.6850687,-0.012217305,-0.014049901,0.007330383
305,3.05,0.084931925,0.7226535,0.6850687,-0.012217305,-0.014049901,0.007330383
306,3.06,0.084931925,0.7226535,0.6850687,-0.012217305,-0.014049901,0.007330383
307,3.07,0.084931925,0.7226535,0.6850687,-0.012217305,-0.014049901,0.007330383
308,3.08,0.084931925,0.7226535,0.6850687,-0.012217305,-0.014049901,0.007330383
309,3.09,0.084931925,0.7226535,0.6850687,-0.012217305,-0.014049901,0.007330383
310,3.1,0.084931925,0.7226535,0.6850687,-0.012217305,-0.014049901,0.007330383
311,3.11,0.084931925,0.7226535,0.6850687,-0.012217305,-0.014049901,0.007330383
312,3.12,0.084931925,0.7226535,0.6850687,-0.012217305,-0.014049901,0.007330383
313,3.13,0.084931925,0.7226535,0.6850687,-0.012217305,-0.014049901,0.007330383
314,3.14,0.084931925,0.7226535,0.6850687,-0.012217305,-0.014049901,0.007330383
315,3.15,0.084931925,0.7226535,0.6850687,-0.012217305,-0.014049901,0.007330383
316,3.16,0.084931925,0.7226535,0.6850687,-0.012217305,-0.014049901,0.007330383
317,3.17,0.084931925,0.7226535,0.6850687,-0.012217305,-0.014049901,0.007330383
318,3.18,0.084931925,0.7226535,0.6850687,-0.0328924731782636,-0.0135456279812457,0.0184243770300157
319,3.19,0.0838425015168911,0.7186070726528152,0.6830455182106353,-0.03726278,-0.013439035,0.02076942
320,3.2,0.08322352,0.716308,0.681896,-0.03726278,-0.013439035,0.02076942
321,3.21,0.08322352,0.716308,0.681896,-0.03726278,-0.013439035,0.02076942
322,3.22,0.0838979939550925,0.7160082276564338,0.6803971536354261,-0.0414832266926076,-0.0125949456307719,0.0210507828671883
323,3.23,0.087616555,0.7143555,0.6721336,-0.064751714,-0.007941248,0.022602014
324,3.24,0.087616555,0.7143555,0.6721336,-0.064751714,-0.007941248,0.022602014
325,3.25,0.087616555,0.7143555,0.6721336,-0.064751714,-0.007941248,0.022602014
326,3.26,0.087616555,0.7143555,0.6721336,-0.064751714,-0.007941248,0.022602014
327,3.27,0.087616555,0.7143555,0.6721336,-0.064751714,-0.007941248,0.022602014
328,3.28,0.087616555,0.7143555,0.6721336,-0.064751714,-0.007941248,0.022602014
329,3.29,0.087616555,0.7143555,0.6721336,-0.064751714,-0.007941248,0.022602014
330,3.3,0.087616555,0.7143555,0.6721336,-0.064751714,-0.007941248,0.022602014
331,3.31,0.087616555,0.7143555,0.6721336,-0.064751714,-0.007941248,0.022602014
332,3.32,0.087616555,0.7143555,0.6721336,-0.064751714,-0.007941248,0.022602014
333,3.33,0.087616555,0.7143555,0.6721336,-0.064751714,-0.007941248,0.022602014
334,3.34,0.087616555,0.7143555,0.6721336,-0.064751714,-0.007941248,0.022602014
335,3.35,0.087616555,0.7143555,0.6721336,-0.064751714,-0.007941248,0.022602014
336,3.36,0.087616555,0.7143555,0.6721336,-0.064751714,-0.007941248,0.022602014
337,3.37,0.087616555,0.7143555,0.6721336,-0.064751714,-0.007941248,0.022602014
338,3.38,0.087616555,0.7143555,0.6721336,-0.064751714,-0.007941248,0.022602014
339,3.39,0.087616555,0.7143555,0.6721336,-0.064751714,-0.007941248,0.022602014
340,3.4,0.087616555,0.7143555,0.6721336,-0.064751714,-0.007941248,0.022602014
341,3.41,0.087616555,0.7143555,0.6721336,-0.064751714,-0.007941248,0.022602014
342,3.42,0.087616555,0.7143555,0.6721336,-0.064751714,-0.007941248,0.022602014
343,3.43,0.087616555,0.7143555,0.6721336,-0.057184365395843,-0.0128600260482828,0.0154130303174967
344,3.44,0.0839089317919044,0.7156796647096744,0.677695062844257,-0.052534413,-0.015882496,0.010995574
345,3.45,0.07736614,0.7180164,0.6875093,-0.052534413,-0.015882496,0.010995574
346,3.46,0.07736614,0.7180164,0.6875093,-0.052534413,-0.015882496,0.010995574
347,3.47,0.07736614,0.7180164,0.6875093,-0.052534413,-0.015882496,0.010995574
348,3.48,0.07736614,0.7180164,0.6875093,-0.052534413,-0.015882496,0.010995574
349,3.49,0.07736614,0.7180164,0.6875093,-0.052534413,-0.015882496,0.010995574
350,3.5,0.0774242870393023,0.717551230038887,0.6883039634971873,-0.052534413,-0.015882496,0.010995574
351,3.51,0.0780040026550232,0.7129135684544419,0.696226616896062,-0.052534413,-0.015882496,0.010995574
352,3.52,0.07809832,0.71215904,0.6975156,-0.0505019893211755,-0.0097852306196301,0.0122150272757011
353,3.53,0.0779625876074106,0.7131091333795131,0.6821780120418994,-0.049480084,-0.0067195175,0.01282817
354,3.54,0.07785426,0.7138674,0.66993713,-0.049480084,-0.0067195175,0.01282817
355,3.55,0.07785426,0.7138674,0.66993713,-0.049480084,-0.0067195175,0.01282817
356,3.56,0.07785426,0.7138674,0.66993713,-0.049480084,-0.0067195175,0.01282817
357,3.57,0.07785426,0.7138674,0.66993713,-0.049480084,-0.0067195175,0.01282817
358,3.58,0.07785426,0.7138674,0.66993713,-0.049480084,-0.0067195175,0.01282817
359,3.59,0.07785426,0.7138674,0.66993713,-0.049480084,-0.0067195175,0.01282817
360,3.6,0.07785426,0.7138674,0.66993713,-0.049480084,-0.0067195175,0.01282817
361,3.61,0.0781519445188854,0.7141650897463121,0.6722548202207361,-0.049480084,-0.0067195175,0.01282817
362,3.62,0.0809919227019143,0.7170051178001824,0.6943661133660896,-0.049480084,-0.0067195175,0.01282817
363,3.63,0.08127106,0.71728426,0.6965394,-0.049480084,-0.0067195175,0.01282817
364,3.64,0.08127106,0.71728426,0.6965394,-0.049480084,-0.0067195175,0.01282817
365,3.65,0.0808059801246753,0.717749324630303,0.6907723874406928,-0.049480084,-0.0067195175,0.01282817
366,3.66,0.08005078,0.7185045,0.68140787,-0.049480084,-0.0067195175,0.01282817
367,3.67,0.08005078,0.7185045,0.68140787,-0.049480084,-0.0067195175,0.01282817
368,3.68,0.08005078,0.7185045,0.68140787,-0.049480084,-0.0067195175,0.01282817
369,3.69,0.08005078,0.7185045,0.68140787,-0.049480084,-0.0067195175,0.01282817
370,3.7,0.08005078,0.7185045,0.68140787,-0.049480084,-0.0067195175,0.01282817
371,3.71,0.0801485641644794,0.7183715137734992,0.6815212991692349,-0.0339139973475203,-0.0134648214345434,0.0108310117419039
372,3.72,0.0858620450545512,0.7106011936219685,0.6881489100329174,0.8756048301190041,-0.4075896302203176,-0.1058619681779576
373,3.73,0.08615221,0.71020657,0.6884855,0.92179567,-0.42760566,-0.11178834
374,3.74,0.08615221,0.71020657,0.6884855,0.92179567,-0.42760566,-0.11178834
375,3.75,0.0856622783787786,0.7109006377056433,0.6875464681566155,0.92179567,-0.42760566,-0.11178834
376,3.76,0.0809973018552484,0.7175093345366321,0.6786052989924048,0.92179567,-0.42760566,-0.11178834
377,3.77,0.08029483,0.7185045,0.6772589,0.92179567,-0.42760566,-0.11178834
378,3.78,0.08029483,0.7185045,0.6772589,0.92179567,-0.42760566,-0.11178834
379,3.79,0.078454917357475,0.7168810724500887,0.6767177427012793,0.92179567,-0.42760566,-0.11178834
380,3.8,0.07614586,0.7148437,0.6760386,0.92179567,-0.42760566,-0.11178834
381,3.81,0.07614586,0.7148437,0.6760386,0.92179567,-0.42760566,-0.11178834
382,3.82,0.0767561530013904,0.7151570910913806,0.6764839491478865,0.8574326509978971,-0.3969723321598113,-0.1038616565818069
383,3.83,0.0837228359349299,0.7187345471049186,0.6815677470957217,0.122708928111641,-0.0472834421094041,-0.0133761193672575
384,3.84,0.08517598,0.71948075,0.68262815,-0.0435948901896959,0.0180053851882979,-0.0057536172215325
385,3.85,0.08517598,0.71948075,0.68262815,-0.048258353,0.015271631,-0.009773844
386,3.86,0.08517598,0.71948075,0.68262815,-0.048258353,0.015271631,-0.009773844
387,3.87,0.08517598,0.71948075,0.68262815,-0.048258353,0.015271631,-0.009773844
388,3.88,0.08517598,0.71948075,0.68262815,-0.048258353,0.015271631,-0.009773844
389,3.89,0.08517598,0.71948075,0.68262815,-0.048258353,0.015271631,-0.009773844
390,3.9,0.08517598,0.71948075,0.68262815,-0.048258353,0.015271631,-0.009773844
391,3.91,0.08517598,0.71948075,0.68262815,-0.048258353,0.015271631,-0.009773844
392,3.92,0.0220382999540678,0.741974779518341,0.6519281592424246,-0.048258353,0.015271631,-0.009773844
393,3.93,-0.07443746,0.77634615,0.6050179,-0.048258353,0.015271631,-0.009773844
394,3.94,-0.07443746,0.77634615,0.6050179,-0.048258353,0.015271631,-0.009773844
395,3.95,-0.07443746,0.77634615,0.6050179,-0.048258353,0.015271631,-0.009773844
396,3.96,-0.07443746,0.77634615,0.6050179,-0.048258353,0.015271631,-0.009773844
397,3.97,-0.0562015814825417,0.7685426324264951,0.6129044312451802,-0.048258353,0.015271631,-0.009773844
398,3.98,0.0845834500463642,0.7082977439463228,0.6737902037043157,-0.048258353,0.015271631,-0.009773844
399,3.99,0.08639627,0.707522,0.6745742,-0.048258353,0.015271631,-0.009773844
400,4.0,-0.0083964187559939,0.7531053242631185,0.6162137095720747,-0.048258353,0.015271631,-0.009773844
401,4.01,0.0269470510299693,0.7399509483029197,0.6387526195762205,-0.048258353,0.015271631,-0.009773844
402,4.02,0.088836834,0.7133793,0.67750293,-0.048258353,0.015271631,-0.009773844
403,4.03,0.088836834,0.7133793,0.67750293,-0.0461006360238326,0.0097232157201892,-0.0100820891741801
404,4.04,0.088836834,0.7133793,0.67750293,-0.03970624,-0.0067195175,-0.010995574
405,4.05,0.088836834,0.7133793,0.67750293,-0.03970624,-0.0067195175,-0.010995574
406,4.06,0.088836834,0.7133793,0.67750293,-0.03970624,-0.0067195175,-0.010995574
407,4.07,0.088836834,0.7133793,0.67750293,-0.03970624,-0.0067195175,-0.010995574
408,4.08,0.0872005796504942,0.7145610617659526,0.67423040938206,-0.03970624,-0.0067195175,-0.010995574
409,4.09,0.08444381,0.7165521,0.66871685,-0.03970624,-0.0067195175,-0.010995574
410,4.1,0.08444381,0.7165521,0.66871685,-0.03970624,-0.0067195175,-0.010995574
411,4.11,0.0835391238954998,0.7160092690616862,0.6638315568976154,-0.03970624,-0.0067195175,-0.010995574
412,4.12,0.08322352,0.7158199,0.6621273,-0.03970624,-0.0067195175,-0.010995574
413,4.13,0.08322352,0.7158199,0.6621273,-0.03970624,-0.0067195175,-0.010995574
414,4.14,0.0812264439002746,0.7162378898396913,0.670719374689718,-0.03970624,-0.0067195175,-0.010995574
415,4.15,0.07272906,0.7180164,0.7072779,-0.0380700088172199,-0.0067812620753189,-0.0101928945461224
416,4.16,0.07272906,0.7180164,0.7072779,-0.0126294283202784,-0.0077412840179294,0.0022873903149193
417,4.17,0.07272906,0.7180164,0.7072779,-0.007330383,-0.007941248,0.004886922
418,4.18,0.07272906,0.7180164,0.7072779,-0.007330383,-0.007941248,0.004886922
419,4.19,0.07272906,0.7180164,0.7072779,-0.007330383,-0.007941248,0.004886922
420,4.2,0.07272906,0.7180164,0.7072779,-0.007330383,-0.007941248,0.004886922
421,4.21,0.07272906,0.7180164,0.7072779,-0.007330383,-0.007941248,0.004886922
422,4.22,0.07272906,0.7180164,0.7072779,-0.007330383,-0.007941248,0.004886922
423,4.23,0.07272906,0.7180164,0.7072779,-0.007330383,-0.007941248,0.004886922
424,4.24,0.07272906,0.7180164,0.7072779,-0.007330383,-0.007941248,0.004886922
425,4.25,0.07272906,0.7180164,0.7072779,-0.007330383,-0.007941248,0.004886922
426,4.26,0.07272906,0.7180164,0.7072779,-0.0015860745459885,0.0011539069346402,0.0115886148045316
427,4.27,0.07272906,0.7180164,0.7072779,0.0,0.0036651916,0.013439035
428,4.28,0.07272906,0.7180164,0.7072779,0.0,0.0036651916,0.013439035
429,4.29,0.07272906,0.7180164,0.7072779,0.0,0.0036651916,0.013439035
430,4.3,0.07272906,0.7180164,0.7072779,0.0,0.0036651916,0.013439035
431,4.31,0.07272906,0.7180164,0.7072779,0.0113408079935545,0.0091735843268063,0.005338457816281
432,4.32,0.07272906,0.7180164,0.7072779,0.021380283,0.014049901,-0.0018325958
433,4.33,0.07272906,0.7180164,0.7072779,0.021380283,0.014049901,-0.0018325958
434,4.34,0.07272906,0.7180164,0.7072779,0.021380283,0.014049901,-0.0018325958
435,4.35,0.07272906,0.7180164,0.7072779,-0.0028428930808046,-0.0042167573102066,-0.0002441907253076
436,4.36,0.07272906,0.7180164,0.7072779,-0.015882496,-0.014049901,0.00061086525
437,4.37,0.07272906,0.7180164,0.7072779,-0.014165434210075,-0.013363076218443,0.0007825714336772
438,4.38,0.07272906,0.7180164,0.7072779,-0.0006037992284372,-0.0079384217077716,0.0021387349688422
439,4.39,0.07272906,0.7180164,0.7072779,0.002443461,-0.0067195175,0.002443461
440,4.4,0.07272906,0.7180164,0.7072779,0.002443461,-0.0067195175,0.002443461
441,4.41,0.07272906,0.7180164,0.7072779,0.002443461,-0.0067195175,0.002443461
442,4.42,0.07272906,0.7180164,0.7072779,0.002443461,-0.0067195175,0.002443461
443,4.43,0.07272906,0.7180164,0.7072779,0.0023598927653254,-0.0061226015645623,0.0023957077236015
444,4.44,0.07272906,0.7180164,0.7072779,-0.0018192204186777,0.0237282055662291,7.643074951906025e-06
445,4.45,0.07272906,0.7180164,0.7072779,-0.0018325958,0.023823744,0.0
446,4.46,0.0780881541785211,0.7119658086559693,0.6910277484855664,0.0024943723287015,0.0004581183150143,0.0012980904102771
447,4.47,0.08029483,0.7094744,0.68433654,0.004276057,-0.009162978,0.0018325958
448,4.48,0.08029483,0.7094744,0.68433654,0.004276057,-0.009162978,0.0018325958
449,4.49,0.08029483,0.7094744,0.68433654,0.004276057,-0.009162978,0.0018325958
450,4.5,0.0806579278147637,0.7096272824249741,0.6841263250017248,0.004276057,-0.009162978,0.0018325958
451,4.51,0.0848510517598481,0.7113927983021732,0.6816987214551224,0.004276057,-0.009162978,0.0018325958
452,4.52,0.084931925,0.71142685,0.6816519,0.004276057,-0.009162978,0.0018325958
453,4.53,0.084931925,0.71142685,0.6816519,0.004276057,-0.009162978,0.0018325958
454,4.54,0.082288331109033,0.7103137641364543,0.6831824051769363,0.004276057,-0.009162978,0.0018325958
455,4.55,0.08029483,0.7094744,0.68433654,-0.0023154586828452,-0.0002325380374522,0.0039588910490682
456,4.56,0.08029483,0.7094744,0.68433654,-0.014660766,0.016493361,0.007941248
457,4.57,0.08029483,0.7094744,0.68433654,-0.014660766,0.016493361,0.007941248
458,4.58,0.08029483,0.7094744,0.68433654,-0.014660766,0.016493361,0.007941248
459,4.59,0.08029483,0.7094744,0.68433654,-0.014660766,0.016493361,0.007941248
460,4.6,0.08029483,0.7094744,0.68433654,-0.014660766,0.016493361,0.007941248
461,4.61,0.08029483,0.7094744,0.68433654,-0.014660766,0.016493361,0.007941248
462,4.62,0.08029483,0.7094744,0.68433654,-0.014660766,0.016493361,0.007941248
463,4.63,0.08029483,0.7094744,0.68433654,-0.014660766,0.016493361,0.007941248
464,4.64,0.08029483,0.7094744,0.68433654,-0.014660766,0.016493361,0.007941248
465,4.65,0.08029483,0.7094744,0.68433654,-0.014660766,0.016493361,0.007941248
466,4.66,0.0807511711294143,0.7085617457883199,0.6854773858117487,-0.014660766,0.016493361,0.007941248
467,4.67,0.08127106,0.707522,0.6867771,-0.014660766,0.016493361,0.007941248
468,4.68,0.08127106,0.707522,0.6867771,-0.014660766,0.016493361,0.007941248
469,4.69,0.08127106,0.707522,0.6867771,-0.014660766,0.016493361,0.007941248
470,4.7,0.08127106,0.707522,0.6867771,-0.014660766,0.016493361,0.007941248
471,4.71,0.08127106,0.707522,0.6867771,-0.014660766,0.016493361,0.007941248
472,4.72,0.08127106,0.707522,0.6867771,-0.014660766,0.016493361,0.007941248
473,4.73,0.08127106,0.707522,0.6867771,-0.014660766,0.016493361,0.007941248
474,4.74,0.08127106,0.707522,0.6867771,-0.014660766,0.016493361,0.007941248
475,4.75,0.08127106,0.707522,0.6867771,-0.014660766,0.016493361,0.007941248
476,4.76,0.08127106,0.707522,0.6867771,-0.014660766,0.016493361,0.007941248
477,4.77,0.08127106,0.707522,0.6867771,-0.014660766,0.016493361,0.007941248
478,4.78,0.08127106,0.707522,0.6867771,-0.014660766,0.016493361,0.007941248
479,4.79,0.08127106,0.707522,0.6867771,-0.014660766,0.016493361,0.007941248
480,4.8,0.08127106,0.707522,0.6867771,-0.014660766,0.016493361,0.007941248
481,4.81,0.08127106,0.707522,0.6867771,-0.014660766,0.016493361,0.007941248
482,4.82,0.0803467242844555,0.7084463104663342,0.6878554937722361,-0.014660766,0.016493361,0.007941248
483,4.83,0.07980672,0.7089863,0.6884855,-0.014660766,0.016493361,0.007941248
484,4.84,0.07980672,0.7089863,0.6884855,-0.014660766,0.016493361,0.007941248
485,4.85,0.07980672,0.7089863,0.6884855,-0.014660766,0.016493361,0.007941248
486,4.86,0.07980672,0.7089863,0.6884855,-0.014660766,0.016493361,0.007941248
487,4.87,0.07980672,0.7089863,0.6884855,-0.014660766,0.016493361,0.007941248
488,4.88,0.07980672,0.7089863,0.6884855,-0.014660766,0.016493361,0.007941248
489,4.89,0.07980672,0.7089863,0.6884855,-0.014660766,0.016493361,0.007941248
490,4.9,0.07980672,0.7089863,0.6884855,-0.014660766,0.016493361,0.007941248
491,4.91,0.07980672,0.7089863,0.6884855,-0.014660766,0.016493361,0.007941248
492,4.92,0.07980672,0.7089863,0.6884855,-0.014660766,0.016493361,0.007941248
493,4.93,0.07980672,0.7089863,0.6884855,-0.014660766,0.016493361,0.007941248
494,4.94,0.07980672,0.7089863,0.6884855,-0.014660766,0.016493361,0.007941248
495,4.95,0.0265264895924494,0.7319091789050823,0.6613143448225519,-0.014660766,0.016493361,0.007941248
496,4.96,-0.06711575,0.7721971,0.6135599,-0.014660766,0.016493361,0.007941248
497,4.97,-0.0466921727293352,0.7636461723782936,0.6219792867890662,-0.014660766,0.016493361,0.007941248
498,4.98,0.08444381,0.70874226,0.6760386,-0.014660766,0.016493361,0.007941248
499,4.99,0.08444381,0.70874226,0.6760386,-0.014660766,0.016493361,0.007941248
500,5.0,0.0859949189424285,0.7107586755675285,0.6858105920572669,-0.014660766,0.016493361,0.007941248
501,5.01,0.08688438,0.71191496,0.6914142,-0.014660766,0.016493361,0.007941248
502,5.02,0.08688438,0.71191496,0.6914142,-0.014660766,0.016493361,0.007941248
503,5.03,0.08688438,0.71191496,0.6914142,-0.014660766,0.016493361,0.007941248
504,5.04,0.08688438,0.71191496,0.6914142,-0.014660766,0.016493361,0.007941248
505,5.05,0.08688438,0.71191496,0.6914142,-0.014660766,0.016493361,0.007941248
506,5.06,0.08688438,0.71191496,0.6914142,-0.014660766,0.016493361,0.007941248
507,5.07,0.08688438,0.71191496,0.6914142,-0.014660766,0.016493361,0.007941248
508,5.08,0.08688438,0.71191496,0.6914142,-0.014660766,0.016493361,0.007941248
509,5.09,0.08688438,0.71191496,0.6914142,-0.014660766,0.016493361,0.007941248
510,5.1,0.08688438,0.71191496,0.6914142,-0.014660766,0.016493361,0.007941248
511,5.11,0.08688438,0.71191496,0.6914142,-0.014660766,0.016493361,0.007941248
512,5.12,0.08688438,0.71191496,0.6914142,-0.014660766,0.016493361,0.007941248
513,5.13,0.08688438,0.71191496,0.6914142,-0.009785048468524,0.0174309992170624,0.0064410272824816
514,5.14,0.0870960782451072,0.7118091119617106,0.6905674113566279,0.0012217305,0.019547688,0.0030543262
515,5.15,0.0878550834527963,0.7114296132452963,0.6875314060755926,0.0012217305,0.019547688,0.0030543262
516,5.16,0.08786061,0.71142685,0.6875093,0.0012217305,0.019547688,0.0030543262
517,5.17,0.08786061,0.71142685,0.6875093,0.0012217305,0.019547688,0.0030543262
518,5.18,0.08786061,0.71142685,0.6875093,0.0012217305,0.019547688,0.0030543262
519,5.19,0.08786061,0.71142685,0.6875093,0.0012217305,0.019547688,0.0030543262
520,5.2,0.08786061,0.71142685,0.6875093,0.0012217305,0.019547688,0.0030543262
521,5.21,0.08786061,0.71142685,0.6875093,0.0012217305,0.019547688,0.0030543262
522,5.22,0.08786061,0.71142685,0.6875093,0.0012217305,0.019547688,0.0030543262
523,5.23,0.08786061,0.71142685,0.6875093,0.0012217305,0.019547688,0.0030543262
524,5.24,0.08786061,0.71142685,0.6875093,0.0012217305,0.019547688,0.0030543262
525,5.25,0.08786061,0.71142685,0.6875093,0.0012217305,0.019547688,0.0030543262
526,5.26,0.08786061,0.71142685,0.6875093,0.0012217305,0.019547688,0.0030543262
527,5.27,0.08786061,0.71142685,0.6875093,0.0012217305,0.019547688,0.0030543262
528,5.28,0.08786061,0.71142685,0.6875093,0.0012217305,0.019547688,0.0030543262
529,5.29,0.08786061,0.71142685,0.6875093,0.0012217305,0.019547688,0.0030543262
530,5.3,0.08786061,0.71142685,0.6875093,0.0012217305,0.019547688,0.0030543262
531,5.31,0.08786061,0.71142685,0.6875093,0.0012217305,0.019547688,0.0030543262
532,5.32,0.08786061,0.71142685,0.6875093,0.0012217305,0.019547688,0.0030543262
533,5.33,0.08786061,0.71142685,0.6875093,0.0012217305,0.019547688,0.0030543262
534,5.34,0.08786061,0.71142685,0.6875093,0.0012217305,0.019547688,0.0030543262
535,5.35,0.08786061,0.71142685,0.6875093,0.0012217305,0.019547688,0.0030543262
536,5.36,0.08786061,0.71142685,0.6875093,0.0012217305,0.019547688,0.0030543262
537,5.37,0.08786061,0.71142685,0.6875093,0.0012217305,0.019547688,0.0030543262
538,5.38,0.08786061,0.71142685,0.6875093,0.0012217305,0.019547688,0.0030543262
539,5.39,0.08786061,0.71142685,0.6875093,0.0012217305,0.019547688,0.0030543262
540,5.4,0.08786061,0.71142685,0.6875093,0.0012217305,0.019547688,0.0030543262
541,5.41,0.08786061,0.71142685,0.6875093,-0.0140457959783457,0.0267043407255289,0.0102109792379449
542,5.42,0.08786061,0.71142685,0.6875093,-0.03105430327472,0.037873644,0.019417139511692
543,5.43,0.08786061,0.71142685,0.6875093,-0.0016753712623646,0.037873644,0.0109595684066598
544,5.44,0.08786061,0.71142685,0.6875093,0.002443461,0.037873644,0.009773844
545,5.45,0.08786061,0.71142685,0.6875093,0.002443461,0.037873644,0.009773844
546,5.46,0.0836914706658312,0.7119902491414387,0.6922418361671433,0.002443461,0.037873644,0.009773844
547,5.47,0.079674291902258,0.7110439374679441,0.6992785181743624,0.002443461,0.037873644,0.009773844
548,5.48,0.08127106,0.7080101,0.70215267,0.002443461,0.037873644,0.009773844
549,5.49,0.08127106,0.7080101,0.70215267,0.0008301821307466,0.0327918157599248,0.0090478685418481
550,5.5,0.08127106,0.7080101,0.70215267,-0.0087325938239278,0.0026690726767859,0.0047446195579255
551,5.51,0.08127106,0.7080101,0.70215267,-0.009773844,-0.00061086525,0.004276057
552,5.52,0.08127106,0.7080101,0.70215267,-0.009773844,-0.00061086525,0.004276057
553,5.53,0.08127106,0.7080101,0.70215267,-0.009773844,-0.00061086525,0.004276057
554,5.54,0.08127106,0.7080101,0.70215267,-0.009773844,-0.00061086525,0.004276057
555,5.55,0.08127106,0.7080101,0.70215267,-0.009773844,-0.00061086525,0.004276057
556,5.56,0.08127106,0.7080101,0.70215267,-0.009773844,-0.00061086525,0.004276057
557,5.57,0.08127106,0.7080101,0.70215267,-0.009773844,-0.00061086525,0.004276057
558,5.58,0.08127106,0.7080101,0.70215267,-0.009773844,-0.00061086525,0.004276057
559,5.59,0.08127106,0.7080101,0.70215267,-0.009773844,-0.00061086525,0.004276057
560,5.6,0.08127106,0.7080101,0.70215267,-0.009773844,-0.00061086525,0.004276057
561,5.61,0.0810835129298671,0.7083664368589195,0.7018150888855116,-0.0118862521546158,-0.0040376608472551,0.0038066329383179
562,5.62,0.0791523946945517,0.712035534998853,0.6983391132511017,-0.0336371113118263,-0.0393223894322951,-0.0010268916001763
563,5.63,0.0835989716566689,0.7101039750274364,0.6907659051464392,-0.03726278,-0.04520403,-0.0018325958
564,5.64,0.08615221,0.70874226,0.68702114,-0.03726278,-0.04520403,-0.0018325958
565,5.65,0.08615221,0.70874226,0.68702114,-0.022664622352448,-0.0351243492928062,-0.0039180466649121
566,5.66,0.08615221,0.70874226,0.68702114,0.014049901,-0.009773844,-0.009162978
567,5.67,0.08615221,0.70874226,0.68702114,0.014049901,-0.009773844,-0.009162978
568,5.68,0.08615221,0.70874226,0.68702114,0.014049901,-0.009773844,-0.009162978
569,5.69,0.08615221,0.70874226,0.68702114,-3.856415976932441e-05,-0.0132959602899423,-0.0018252361857446
570,5.7,0.08615221,0.70874226,0.68702114,-0.015271631,-0.017104227,0.0061086523
571,5.71,0.08615221,0.70874226,0.68702114,-0.015271631,-0.017104227,0.0061086523
572,5.72,0.08615221,0.70874226,0.68702114,-0.015271631,-0.017104227,0.0061086523
573,5.73,0.0855325578509605,0.7093618994542411,0.6961610203062807,-0.015271631,-0.017104227,0.0061086523
574,5.74,0.08517598,0.70971847,0.70142055,-0.0313978356059702,-0.000496643352008,-0.014831344814463
575,5.75,0.08517598,0.70971847,0.70142055,-0.056199603,0.025045475,-0.047036625
576,5.76,0.08517598,0.70971847,0.70142055,-0.056199603,0.025045475,-0.047036625
577,5.77,0.08517598,0.70971847,0.70142055,-0.056199603,0.025045475,-0.047036625
578,5.78,0.08517598,0.70971847,0.70142055,-0.056199603,0.025045475,-0.047036625
579,5.79,0.08517598,0.70971847,0.70142055,-0.023088521462249,0.0262996825313474,-0.023206679851233
580,5.8,0.0848223447446495,0.7093648427945479,0.698945106432506,0.02443461,0.028099801,0.010995574
581,5.81,0.0829864528666694,0.7075289927074888,0.6860938800030135,0.02443461,0.028099801,0.010995574
582,5.82,0.08297946,0.707522,0.68604493,0.02443461,0.028099801,0.010995574
583,5.83,0.0820343676482624,0.7043716684960248,0.6827371261310683,0.02443461,0.028099801,0.010995574
584,5.84,0.08151512,0.70264083,0.68091977,0.02443461,0.028099801,0.010995574
585,5.85,0.08151512,0.70264083,0.68091977,0.02443461,0.028099801,0.010995574
586,5.86,0.08151512,0.70264083,0.68091977,0.02443461,0.028099801,0.010995574
587,5.87,0.08151512,0.70264083,0.68091977,0.02443461,0.028099801,0.010995574
588,5.88,0.08151512,0.70264083,0.68091977,0.02443461,0.028099801,0.010995574
589,5.89,0.08151512,0.70264083,0.68091977,0.02443461,0.028099801,0.010995574
590,5.9,0.0813403071169984,0.7032701457779209,0.6838216460941808,0.02443461,0.028099801,0.010995574
591,5.91,0.08029483,0.7070338,0.70117646,0.02443461,0.028099801,0.010995574
592,5.92,0.08029483,0.7070338,0.70117646,0.02443461,0.028099801,0.010995574
593,5.93,0.08029483,0.7070338,0.70117646,0.02443461,0.028099801,0.010995574
594,5.94,0.08029483,0.7070338,0.70117646,0.02443461,0.028099801,0.010995574
595,5.95,0.0821608143550353,0.707328440015949,0.6970516768343584,0.02443461,0.028099801,0.010995574
596,5.96,0.084931925,0.707766,0.6909261,0.0135122349977627,0.0149019313918817,0.0093268780053544
597,5.97,0.084931925,0.707766,0.6909261,-0.019547688,-0.025045475,0.004276057
598,5.98,0.084931925,0.707766,0.6909261,-0.019547688,-0.025045475,0.004276057
599,5.99,0.084931925,0.707766,0.6909261,-0.019547688,-0.025045475,0.004276057
600,6.0,0.084931925,0.707766,0.6909261,-0.019547688,-0.025045475,0.004276057
601,6.01,0.084931925,0.707766,0.6909261,-0.019547688,-0.025045475,0.004276057
602,6.02,0.084931925,0.707766,0.6909261,-0.019547688,-0.025045475,0.004276057
603,6.03,0.084931925,0.707766,0.6909261,-0.019547688,-0.025045475,0.004276057
604,6.04,0.084931925,0.707766,0.6909261,-0.019547688,-0.025045475,0.004276057
605,6.05,0.084931925,0.707766,0.6909261,-0.019547688,-0.025045475,0.004276057
606,6.06,0.084931925,0.707766,0.6909261,-0.019547688,-0.025045475,0.004276057
607,6.07,0.084931925,0.707766,0.6909261,-0.0103746053995295,-0.0134517179808276,0.0027472098582089
608,6.08,0.084931925,0.707766,0.6909261,0.02443461,0.030543262,-0.0030543262
609,6.09,0.084931925,0.707766,0.6909261,0.02443461,0.030543262,-0.0030543262
610,6.1,0.084931925,0.707766,0.6909261,0.02443461,0.030543262,-0.0030543262
611,6.11,0.084931925,0.707766,0.6909261,0.02443461,0.030543262,-0.0030543262
612,6.12,0.084931925,0.707766,0.6909261,0.02443461,0.030543262,-0.0030543262
613,6.13,0.084931925,0.707766,0.6909261,0.02443461,0.030543262,-0.0030543262
614,6.14,0.084931925,0.707766,0.6909261,0.0224756013625062,0.0292928309997957,-0.001637170980007
615,6.15,0.084931925,0.707766,0.6909261,-9.421691896247395e-05,0.0148865645301241,0.0146899320146968
616,6.16,0.084931925,0.707766,0.6909261,-0.004276057,0.012217305,0.017715093
617,6.17,0.084931925,0.707766,0.6909261,-0.004276057,0.012217305,0.017715093
618,6.18,0.084931925,0.707766,0.6909261,-0.006787589028194,0.0079477000998123,0.0140733711068608
619,6.19,0.084931925,0.707766,0.6909261,-0.016493361,-0.008552114,0.0
620,6.2,0.084931925,0.707766,0.6909261,-0.016493361,-0.008552114,0.0
621,6.21,0.084931925,0.707766,0.6909261,-0.016493361,-0.008552114,0.0
622,6.22,0.084931925,0.707766,0.6909261,-0.016493361,-0.008552114,0.0
623,6.23,0.084931925,0.707766,0.6909261,-0.0132095477048624,-0.0029696308069417,0.0047615298692738
624,6.24,0.084931925,0.707766,0.6909261,-0.004276057,0.012217305,0.017715093
625,6.25,0.084931925,0.707766,0.6909261,-0.004276057,0.012217305,0.017715093
626,6.26,0.0835890390061636,0.7089596806506223,0.689433991544603,0.0554782475667136,0.2221043104742642,0.1480541700730499
627,6.27,0.082735404,0.70971847,0.6884855,0.0509362785952458,0.2048217025256283,0.1333628129282901
628,6.28,0.082735404,0.70971847,0.6884855,-0.004276057,0.009162978,0.0067195175
629,6.29,0.082735404,0.70971847,0.6884855,-0.0040032729606108,0.0088447300315726,0.0068104455069275
630,6.3,0.082735404,0.70971847,0.6884855,-0.0015849671169147,0.0060233739012223,0.0076165473998426
631,6.31,0.082735404,0.70971847,0.6884855,-0.0051159204060262,0.0055305012590887,0.0101937759072486
632,6.32,0.082735404,0.70971847,0.6884855,-0.009162978,0.0061086523,0.012217305
633,6.33,0.083973731372237,0.70932741286983,0.689723820428988,-0.009162978,0.0061086523,0.012217305
634,6.34,0.0873725,0.7082541,0.69312257,-0.009162978,0.0061086523,0.012217305
635,6.35,0.0873725,0.7082541,0.69312257,-0.009162978,0.0061086523,0.012217305
636,6.36,0.0873725,0.7082541,0.69312257,-0.009162978,0.0061086523,0.012217305
637,6.37,0.0873725,0.7082541,0.69312257,-0.009162978,0.0061086523,0.012217305
638,6.38,0.0850636665472937,0.7072819902069175,0.6948238268655491,-0.009162978,0.0061086523,0.012217305
639,6.39,0.082735404,0.7063017,0.6965394,-0.009162978,0.0061086523,0.012217305
640,6.4,0.082735404,0.7063017,0.6965394,-0.009162978,0.0061086523,0.012217305
641,6.41,0.082735404,0.7063017,0.6965394,-0.009162978,0.0061086523,0.012217305
642,6.42,0.082735404,0.7063017,0.6965394,-0.009162978,0.0061086523,0.012217305
643,6.43,0.082735404,0.7063017,0.6965394,-0.009162978,0.0061086523,0.012217305
644,6.44,0.082735404,0.7063017,0.6965394,-0.009162978,0.0061086523,0.012217305
645,6.45,0.082735404,0.7063017,0.6965394,-0.0091301017159661,0.0060906233692451,0.0121960944933316
646,6.46,0.082735404,0.7063017,0.6965394,0.0081497390894044,-0.0033854187836595,0.0010478096612379
647,6.47,0.082735404,0.7063017,0.6965394,0.009773844,-0.004276057,0.0
648,6.48,0.0818537998621342,0.7084427350819531,0.688101174074626,0.009773844,-0.004276057,0.0
649,6.49,0.08102701,0.71045065,0.6801876,0.009773844,-0.004276057,0.0
650,6.5,0.08102701,0.71045065,0.6801876,0.009773844,-0.004276057,0.0
651,6.51,0.08102701,0.71045065,0.6801876,-0.0060290880553288,-0.0007642940282733,0.0046823503095892
652,6.52,0.08102701,0.71045065,0.6801876,-0.0067195175,-0.00061086525,0.004886922
653,6.53,0.0860370755088558,0.7096156361166659,0.6828595978959723,-0.0067195175,-0.00061086525,0.004886922
654,6.54,0.088348724,0.70923036,0.68409246,-0.0067195175,-0.00061086525,0.004886922
655,6.55,0.088348724,0.70923036,0.68409246,-0.0067195175,-0.00061086525,0.004886922
656,6.56,0.088348724,0.70923036,0.68409246,-0.0067195175,-0.00061086525,0.004886922
657,6.57,0.088348724,0.70923036,0.68409246,-0.0067195175,-0.00061086525,0.004886922
658,6.58,0.077991745982808,0.7076959916056744,0.6796811999828256,-0.0067195175,-0.00061086525,0.004886922
659,6.59,0.07516963,0.7072779,0.6784792,-0.0067195175,-0.00061086525,0.004886922
660,6.6,0.0783425642346739,0.7082180290187997,0.6901132665132709,-0.0067195175,-0.00061086525,0.004886922
661,6.61,0.083867654728166,0.70923036,0.6986246858975206,-0.0067195175,-0.00061086525,0.004886922
662,6.62,0.08688438,0.70923036,0.69287854,-0.0139389651054636,-0.0503219157976597,0.0531540830096836
663,6.63,0.08688438,0.70923036,0.69287854,-0.028099801,-0.14782938,0.14782938
664,6.64,0.08688438,0.70923036,0.69287854,-0.0256967284754889,-0.1349757369557045,0.1351992785905722
665,6.65,0.08688438,0.70923036,0.69287854,-0.0035958972138664,-0.0167619947063307,0.019041427664397
666,6.66,0.08688438,0.70923036,0.69287854,-0.0018325958,-0.007330383,0.009773844
667,6.67,0.08688438,0.70923036,0.69287854,-0.0018325958,-0.007330383,0.009773844
668,6.68,0.08688438,0.70923036,0.69287854,-0.0018325958,-0.007330383,0.009773844
669,6.69,0.08688438,0.70923036,0.69287854,-0.0018325958,-0.007330383,0.009773844
670,6.7,0.0846126396854324,0.7053968113088482,0.6864892979990498,-0.0018325958,-0.007330383,0.009773844
671,6.71,0.08297946,0.70264083,0.681896,-0.0018325958,-0.007330383,0.009773844
672,6.72,0.08297946,0.70264083,0.681896,-0.0018325958,-0.007330383,0.009773844
673,6.73,0.08297946,0.70264083,0.681896,-0.0018325958,-0.007330383,0.009773844
674,6.74,0.08297946,0.70264083,0.681896,-0.0018325958,-0.007330383,0.009773844
675,6.75,0.08297946,0.70264083,0.681896,-0.0018325958,-0.007330383,0.009773844
676,6.76,0.08297946,0.70264083,0.681896,-0.0018325958,-0.007330383,0.009773844
677,6.77,0.0837165901435853,0.7030708186195926,0.6820188513743817,-0.0018325958,-0.007330383,0.009773844
678,6.78,0.0887791534467706,0.7060239533208128,0.6828625868600396,-0.0018325958,-0.007330383,0.009773844
679,6.79,0.088836834,0.7060576,0.6828722,-0.0018325958,-0.007330383,0.009773844
680,6.8,0.088836834,0.7060576,0.6828722,-0.0018325958,-0.007330383,0.009773844
681,6.81,0.0890563079672197,0.7051797059296606,0.682652733226938,-0.0018325958,-0.007330383,0.009773844
682,6.82,0.089167372040112,0.7047354505482363,0.6825416727946253,-0.0018325958,-0.007330383,0.009773844
683,6.83,0.088836834,0.7060576,0.6828722,-0.0018325958,-0.007330383,0.009773844
684,6.84,0.088836834,0.7060576,0.6828722,-0.0018325958,-0.007330383,0.009773844
685,6.85,0.088836834,0.7060576,0.6828722,-0.0018325958,-0.007330383,0.009773844
686,6.86,0.088836834,0.7060576,0.6828722,-0.0018325958,-0.007330383,0.009773844
687,6.87,0.088836834,0.7060576,0.6828722,-0.0018325958,-0.007330383,0.009773844
688,6.88,0.088836834,0.7060576,0.6828722,-0.0018325958,-0.007330383,0.009773844
689,6.89,0.088836834,0.7060576,0.6828722,-0.0010067461043404,-0.0052657588622461,0.0094022116781871
690,6.9,0.088836834,0.7060576,0.6828722,0.0089999118241812,0.019750884730474,0.0048992161099766
691,6.91,0.088836834,0.7060576,0.6828722,0.01038471,0.02321288,0.004276057
692,6.92,0.088836834,0.7060576,0.6828722,0.01038471,0.0204088835571176,0.0030298362000452
693,6.93,0.0862987280301417,0.7071773564121757,0.6849624046284747,0.01038471,0.017715093,0.0018325958
694,6.94,0.08053889,0.70971847,0.6897058,0.01038471,0.017715093,0.0018325958
695,6.95,0.08053889,0.70971847,0.6897058,0.01038471,0.017715093,0.0018325958
696,6.96,0.08053889,0.70971847,0.6897058,0.01038471,0.017715093,0.0018325958
697,6.97,0.08053889,0.70971847,0.6897058,0.01038471,0.017715093,0.0018325958
698,6.98,0.08053889,0.70971847,0.6897058,0.01038471,0.017715093,0.0018325958
699,6.99,0.08053889,0.70971847,0.6897058,0.01038471,0.017715093,0.0018325958
700,7.0,0.08053889,0.70971847,0.6897058,0.0076103806516496,0.0192563872506257,0.003682148295199
701,7.01,0.08053889,0.70971847,0.6897058,0.004886922,0.02076942,0.005497787
702,7.02,0.08053889,0.70971847,0.6897058,0.004886922,0.02076942,0.005497787
703,7.03,0.08053889,0.70971847,0.6897058,0.004886922,0.02076942,0.005497787
704,7.04,0.08053889,0.70971847,0.6897058,0.004886922,0.02076942,0.005497787
705,7.05,0.08053889,0.70971847,0.6897058,-0.013629132199911,-0.0062925068039501,0.0051417091691342
706,7.06,0.08053889,0.70971847,0.6897058,-0.0205014760707058,-0.0172392354287686,0.0076926236629254
707,7.07,0.08053889,0.70971847,0.6897058,-0.0030305215397314,0.1032274181554942,0.0675679411313918
708,7.08,0.08053889,0.70971847,0.6897058,0.02443461,0.45142943,0.24678956
709,7.09,0.08053889,0.70971847,0.6897058,0.02443461,0.45142943,0.24678956
710,7.1,0.08053889,0.70971847,0.6897058,0.02443461,0.45142943,0.24678956
711,7.11,0.08053889,0.70971847,0.6897058,0.02443461,0.45142943,0.24678956
712,7.12,0.08053889,0.70971847,0.6897058,0.02443461,0.45142943,0.24678956
713,7.13,0.08053889,0.70971847,0.6897058,0.010388278674027,0.3087186981727262,0.173935920406637
714,7.14,0.08053889,0.70971847,0.6897058,-0.021380283,-0.014049901,0.009162978
715,7.15,0.08053889,0.70971847,0.6897058,-0.021380283,-0.014049901,0.009162978
716,7.16,0.08053889,0.70971847,0.6897058,-0.021380283,-0.014049901,0.009162978
717,7.17,0.08053889,0.70971847,0.6897058,0.0059759100318196,0.0058876640176711,0.00359900702734
718,7.18,0.0188843254321044,0.7078544796197019,0.6864079839713114,0.014660766,0.012217305,0.0018325958
719,7.19,-0.024405725,0.7065457,0.68409246,0.0128948183790345,0.0038921220013547,0.0015803175035358
720,7.2,-0.024405725,0.7065457,0.68409246,0.01038471,-0.007941248,0.0012217305
721,7.21,-0.0082115518077332,0.706470902342831,0.6846534562205907,0.01038471,-0.007941248,0.0012217305
722,7.22,0.08127106,0.7060576,0.6877533,0.0096361448143358,-0.0080063405942628,0.0012868231209023
723,7.23,0.08127106,0.7060576,0.6877533,-0.00088962207033,-0.0089216242412317,0.0022021071424563
724,7.24,0.08127106,0.7060576,0.6877533,0.0116603026162888,0.0090137706204176,0.0003050199343526
725,7.25,0.0822473848193578,0.706708509882253,0.6842819287910271,0.022602014,0.021991149,-0.0012217305
726,7.26,0.08346757,0.707522,0.6799435,0.022602014,0.021991149,-0.0012217305
727,7.27,0.08346757,0.707522,0.6799435,0.022602014,0.021991149,-0.0012217305
728,7.28,0.08346757,0.707522,0.6799435,0.022602014,0.021991149,-0.0012217305
729,7.29,0.08346757,0.707522,0.6799435,0.022602014,0.021991149,-0.0012217305
730,7.3,0.08346757,0.707522,0.6799435,0.022602014,0.021991149,-0.0012217305
731,7.31,0.08346757,0.707522,0.6799435,0.022602014,0.021991149,-0.0012217305
732,7.32,0.08346757,0.707522,0.6799435,0.022602014,0.021991149,-0.0012217305
733,7.33,0.08346757,0.707522,0.6799435,0.022602014,0.021991149,-0.0012217305
734,7.34,0.08346757,0.707522,0.6799435,0.022602014,0.021991149,-0.0012217305
735,7.35,0.08346757,0.707522,0.6799435,0.0067339133058969,0.009698958584274,0.0014602018612108
736,7.36,0.08346757,0.707522,0.6799435,-0.02076942,-0.01160644,0.0061086523
737,7.37,0.08346757,0.707522,0.6799435,-0.02076942,-0.01160644,0.0061086523
738,7.38,0.08346757,0.707522,0.6799435,-0.02076942,-0.01160644,0.0061086523
739,7.39,0.08346757,0.707522,0.6799435,-0.02076942,-0.01160644,0.0061086523
740,7.4,0.08346757,0.707522,0.6799435,-0.02076942,-0.01160644,0.0061086523
741,7.41,0.08346757,0.707522,0.6799435,-0.02076942,-0.01160644,0.0061086523
742,7.42,0.08346757,0.707522,0.6799435,-0.02076942,-0.01160644,0.0061086523
743,7.43,0.0834974793163986,0.7075604538349635,0.6803195010089842,-0.02076942,-0.01160644,0.0061086523
744,7.44,0.0849843323648995,0.7094720723079535,0.6990112771431128,-0.02076942,-0.01160644,0.0061086523
745,7.45,0.08517598,0.70971847,0.70142055,-0.02076942,-0.01160644,0.0061086523
746,7.46,0.08517598,0.70971847,0.70142055,-0.02076942,-0.01160644,0.0061086523
747,7.47,0.08517598,0.70971847,0.70142055,-0.02076942,-0.01160644,0.0061086523
748,7.48,0.08517598,0.70971847,0.70142055,-0.02076942,-0.01160644,0.0061086523
749,7.49,0.08517598,0.70971847,0.70142055,-0.0099831582701199,-0.0050408897322888,0.0039982969335782
750,7.5,0.08517598,0.70971847,0.70142055,0.007330383,0.005497787,0.00061086525
751,7.51,0.08517598,0.70971847,0.70142055,0.007330383,0.005497787,0.00061086525
752,7.52,0.08517598,0.70971847,0.70142055,0.007330383,0.005497787,0.00061086525
753,7.53,0.08517598,0.70971847,0.70142055,0.007330383,0.005497787,0.00061086525
754,7.54,0.08517598,0.70971847,0.70142055,0.007330383,0.005497787,0.00061086525
755,7.55,0.08517598,0.70971847,0.70142055,0.007330383,0.005497787,0.00061086525
756,7.56,0.08517598,0.70971847,0.70142055,0.007330383,0.005497787,0.00061086525
757,7.57,0.08517598,0.70971847,0.70142055,0.007330383,0.005497787,0.00061086525
758,7.58,0.08517598,0.70971847,0.70142055,0.007330383,0.005497787,0.00061086525
759,7.59,0.0759450178396464,0.7121648902345451,0.6971819886538996,0.0081491942323284,0.0051061816216821,0.0021060858555947
760,7.6,-0.0501557049193334,0.7455845223800762,0.6392805868371821,0.0193346683363446,-0.0002433930363391,0.0225317355088264
761,7.61,-0.0590155569508793,0.6950476752172857,0.5554742263409795,0.021380283,-0.0012217305,0.026267206
762,7.62,-0.051252022,0.6640798,0.51544887,0.021380283,-0.0012217305,0.026267206
763,7.63,-0.051252022,0.6640798,0.51544887,0.021380283,-0.0012217305,0.026267206
764,7.64,-0.0214908778079596,0.6742170127157883,0.5522030898660245,0.021380283,-0.0012217305,0.026267206
765,7.65,0.082735404,0.70971847,0.68091977,0.021380283,-0.0012217305,0.026267206
766,7.66,0.082735404,0.70971847,0.68091977,0.021380283,-0.0012217305,0.026267206
767,7.67,0.082735404,0.70971847,0.68091977,0.021380283,-0.0012217305,0.026267206
768,7.68,0.082735404,0.70971847,0.68091977,0.021380283,-0.0012217305,0.026267206
769,7.69,0.082735404,0.70971847,0.68091977,0.0004249968988046,-0.0041685674739795,0.0118604466714271
770,7.7,0.082735404,0.70971847,0.68091977,-0.017715093,-0.0067195175,-0.00061086525
771,7.71,0.082735404,0.70971847,0.68091977,-0.017715093,-0.0067195175,-0.00061086525
772,7.72,0.082735404,0.70971847,0.68091977,-0.017715093,-0.0067195175,-0.00061086525
773,7.73,0.082735404,0.70971847,0.68091977,-0.017715093,-0.0067195175,-0.00061086525
774,7.74,0.082735404,0.70971847,0.68091977,-0.017715093,-0.0067195175,-0.00061086525
775,7.75,0.0837183423265639,0.7086126894285226,0.6799368276459535,-0.017715093,-0.0067195175,-0.00061086525
776,7.76,0.084687866,0.707522,0.6789673,-0.017715093,-0.0067195175,-0.00061086525
777,7.77,0.084687866,0.707522,0.6789673,-0.017715093,-0.0067195175,-0.00061086525
778,7.78,0.0849078486681153,0.7090618309052382,0.6908462505080838,-0.017715093,-0.0067195175,-0.00061086525
779,7.79,0.084931925,0.70923036,0.69214636,-0.0024408428503868,0.0098639527173037,0.0046260201287806
780,7.8,0.084931925,0.70923036,0.69214636,0.0036651916,0.016493361,0.0067195175
781,7.81,0.0842696918541418,0.7087888674171979,0.6934708256887326,0.0036651916,0.016493361,0.0067195175
782,7.82,0.0827179294303396,0.7079582211254651,0.6957180970875632,0.0036651916,0.016493361,0.0067195175
783,7.83,0.0825572075943451,0.7097261692238778,0.6881641879178533,0.0036651916,0.016493361,0.0067195175
784,7.84,0.082491346,0.71045065,0.6850687,0.0036651916,0.016493361,0.0067195175
785,7.85,0.082491346,0.71045065,0.6850687,0.0036651916,0.016493361,0.0067195175
786,7.86,0.0825281176956194,0.7100461595401724,0.6867969657767472,0.0036651916,0.016493361,0.0067195175
787,7.87,0.0827310423552748,0.7078139783064328,0.6963344031625732,0.0036651916,0.016493361,0.0067195175
788,7.88,0.082735404,0.707766,0.6965394,0.0036651916,0.016493361,0.0067195175
789,7.89,0.082735404,0.707766,0.6965394,-0.012159173424221,-0.0155717987167061,0.0042209336959122
790,7.9,0.0837277607096476,0.7062774613777144,0.6890967577144888,0.0344754573825592,0.0091979029509813,0.0567669942531394
791,7.91,0.0855148171241169,0.7062431251107981,0.6871884622561154,0.08674286,0.047647487,0.10873401
792,7.92,0.08712844,0.7089863,0.6975156,0.08674286,0.047647487,0.10873401
793,7.93,0.08712844,0.7089863,0.6975156,0.08674286,0.047647487,0.10873401
794,7.94,0.08712844,0.7089863,0.6975156,0.08674286,0.047647487,0.10873401
795,7.95,0.08712844,0.7089863,0.6975156,0.08674286,0.047647487,0.10873401
796,7.96,0.08712844,0.7089863,0.6975156,0.08674286,0.047647487,0.10873401
797,7.97,0.08712844,0.7089863,0.6975156,0.08674286,0.047647487,0.10873401
798,7.98,0.08712844,0.7089863,0.6975156,0.0716231894773212,0.036524970604643,0.093701233990633
799,7.99,0.08712844,0.7089863,0.6975156,-0.0079965613198466,-0.0220458813400087,0.0145390672053088
800,8.0,0.08712844,0.7089863,0.6975156,-0.019547688,-0.030543262,0.0030543262
801,8.01,0.0191208129532233,0.7360505610245748,0.6599263348864762,-0.019547688,-0.030543262,0.0030543262
802,8.02,-0.056377225,0.7660957,0.61819696,-0.019547688,-0.030543262,0.0030543262
803,8.03,-0.056377225,0.7660957,0.61819696,-0.018794028098807,-0.0296706032183039,0.0028163283448385
804,8.04,-0.056377225,0.7660957,0.61819696,-0.0095568337917239,-0.0189749051752613,-0.0001006802810889
805,8.05,-0.056377225,0.7660957,0.61819696,-0.007941248,-0.017104227,-0.00061086525
806,8.06,-0.056377225,0.7660957,0.61819696,-0.007941248,-0.017104227,-0.00061086525
807,8.07,-0.0392781034358172,0.7593174199085828,0.6268441551646906,-0.007941248,-0.017104227,-0.00061086525
808,8.08,0.0765604856332,0.7133977275339115,0.6854248771931479,-0.007941248,-0.017104227,-0.00061086525
809,8.09,0.09322987,0.7067898,0.69385475,-0.007941248,-0.017104227,-0.00061086525
810,8.1,0.09322987,0.7067898,0.69385475,0.0044721629301508,-0.0040701447359016,0.0055958405960947
811,8.11,0.09322987,0.7067898,0.69385475,0.016493361,0.008552114,0.01160644
812,8.12,0.09322987,0.7067898,0.69385475,0.016493361,0.008552114,0.01160644
813,8.13,0.09322987,0.7067898,0.69385475,0.016493361,0.008552114,0.01160644
814,8.14,0.09322987,0.7067898,0.69385475,0.016493361,0.008552114,0.01160644
815,8.15,0.09322987,0.7067898,0.69385475,0.016493361,0.008552114,0.01160644
816,8.16,0.09322987,0.7067898,0.69385475,0.016493361,0.008552114,0.01160644
817,8.17,0.09322987,0.7067898,0.69385475,0.016493361,0.008552114,0.01160644
818,8.18,0.09322987,0.7067898,0.69385475,0.016493361,0.008552114,0.01160644
819,8.19,0.09322987,0.7067898,0.69385475,0.016493361,0.008552114,0.01160644
820,8.2,0.09322987,0.7067898,0.69385475,0.016493361,0.008552114,0.01160644
821,8.21,0.09322987,0.7067898,0.69385475,0.016493361,0.008552114,0.01160644
822,8.22,0.089013945780496,0.7071511541454624,0.6940956651024431,0.016493361,0.008552114,0.01160644
823,8.23,0.07614586,0.7082541,0.694831,0.016493361,0.008552114,0.01160644
824,8.24,0.07614586,0.7082541,0.694831,0.016493361,0.008552114,0.01160644
825,8.25,0.07614586,0.7082541,0.694831,0.016493361,0.008552114,0.01160644
826,8.26,0.07614586,0.7082541,0.694831,0.016493361,0.008552114,0.01160644
827,8.27,0.07614586,0.7082541,0.694831,0.0037962012459607,0.0491124885800054,-0.0162567719390865
828,8.28,0.07614586,0.7082541,0.694831,-0.005497787,0.07880162,-0.036651913
829,8.29,0.07614586,0.7082541,0.694831,-0.005497787,0.07880162,-0.036651913
830,8.3,0.07614586,0.7082541,0.694831,-0.005497787,0.07880162,-0.036651913
831,8.31,0.07614586,0.7082541,0.694831,-0.0104722977686927,0.056582136865443,-0.0187436758613828
832,8.32,0.07614586,0.7082541,0.694831,-0.014660766,0.037873644,-0.0036651916
833,8.33,0.07614586,0.7082541,0.694831,-0.014660766,0.037873644,-0.0036651916
834,8.34,0.0766717892321009,0.7082743315985814,0.6937386843061695,-0.014660766,0.037873644,-0.0036651916
835,8.35,0.0818580586330408,0.7084738385174792,0.6829671905132706,-0.014660766,0.037873644,-0.0036651916
836,8.36,0.082491346,0.7084982,0.6816519,-0.014660766,0.037873644,-0.0036651916
837,8.37,0.0768814663047453,0.702187069109028,0.7249882440052904,-0.014660766,0.037873644,-0.0036651916
838,8.38,0.0934909454054778,0.7051400115545483,0.7574174619047943,-0.014660766,0.037873644,-0.0036651916
839,8.39,0.11592719,0.7133793,0.7577977,-0.0168556347417786,0.0255823826390876,-0.010030309082773
840,8.4,0.11592719,0.7133793,0.7577977,0.0214229369021142,0.1163071641741537,-0.0378959459874532
841,8.41,0.1146962693645449,0.7134367429416929,0.7557379616746074,0.1767446910510837,0.535204634023573,-0.1010704267853172
842,8.42,0.0803148241115586,0.7150412097920287,0.6982064048624277,0.1142111459090304,0.4864399990352354,-0.1429506987348156
843,8.43,0.079318605,0.7150877,0.6965394,0.112399206,0.48502702,-0.1441642
844,8.44,0.079318605,0.7150877,0.6965394,0.112399206,0.48502702,-0.1441642
845,8.45,0.0755234629859766,0.7061928362842766,0.7158708963576985,0.112399206,0.48502702,-0.1441642
846,8.46,0.07150877,0.6967834,0.73632073,0.112399206,0.48502702,-0.1441642
847,8.47,0.07150877,0.6967834,0.73632073,0.112399206,0.48502702,-0.1441642
848,8.48,0.07150877,0.6967834,0.73632073,0.112399206,0.48502702,-0.1441642
849,8.49,0.0872890330942937,0.7026793248952707,0.7439507230764817,0.112399206,0.48502702,-0.1441642
850,8.5,0.11592719,0.7133793,0.7577977,0.112399206,0.48502702,-0.1441642
851,8.51,0.11592719,0.7133793,0.7577977,0.112399206,0.48502702,-0.1441642
852,8.52,0.11592719,0.7133793,0.7577977,0.112399206,0.48502702,-0.1441642
853,8.53,0.11592719,0.7133793,0.7577977,0.112399206,0.48502702,-0.1441642
854,8.54,0.11592719,0.7133793,0.7577977,0.173226536611418,0.6156850069661166,-0.0998063633506415
855,8.55,0.1096138064610354,0.7126874252159189,0.7447817650942784,0.28160888,0.84849185,-0.02076942
856,8.56,0.08029483,0.7094744,0.68433654,0.28160888,0.84849185,-0.02076942
857,8.57,0.08029483,0.7094744,0.68433654,0.28160888,0.84849185,-0.02076942
858,8.58,0.08029483,0.7094744,0.68433654,0.28160888,0.84849185,-0.02076942
859,8.59,0.08029483,0.7094744,0.68433654,0.28160888,0.84849185,-0.02076942
860,8.6,0.08029483,0.7094744,0.68433654,0.28160888,0.84849185,-0.02076942
861,8.61,0.08029483,0.7094744,0.68433654,0.28160888,0.84849185,-0.02076942
862,8.62,0.08029483,0.7094744,0.68433654,0.28160888,0.84849185,-0.02076942
863,8.63,0.08029483,0.7094744,0.68433654,0.28160888,0.84849185,-0.02076942
864,8.64,0.08029483,0.7094744,0.68433654,0.28160888,0.84849185,-0.02076942
865,8.65,0.08029483,0.7094744,0.68433654,0.28160888,0.84849185,-0.02076942
866,8.66,0.08029483,0.7094744,0.68433654,0.28160888,0.84849185,-0.02076942
867,8.67,0.08029483,0.7094744,0.68433654,0.28160888,0.84849185,-0.02076942
868,8.68,0.08029483,0.7094744,0.68433654,0.28160888,0.84849185,-0.02076942
869,8.69,0.08029483,0.7094744,0.68433654,0.28160888,0.84849185,-0.02076942
870,8.7,0.08029483,0.7094744,0.68433654,0.0387724160988413,0.8853550476682077,0.2022530545048803
871,8.71,0.08029483,0.7094744,0.68433654,-0.553754550932648,0.9464602630878745,0.4498929756437023
872,8.72,0.08029483,0.7094744,0.68433654,-0.93462384,0.9828822,0.57971114
873,8.73,0.08029483,0.7094744,0.68433654,-0.93462384,0.9828822,0.57971114
874,8.74,0.08029483,0.7094744,0.68433654,-0.93462384,0.9828822,0.57971114
875,8.75,0.08029483,0.7094744,0.68433654,-0.93462384,0.9828822,0.57971114
876,8.76,0.08029483,0.7094744,0.68433654,-0.7741008452364883,0.9591179367335646,0.5266985636475044
877,8.77,0.08029483,0.7094744,0.68433654,-0.1088705536571433,0.8606354245851393,0.3070068510906993
878,8.78,0.08029483,0.7094744,0.68433654,-0.076358154,0.8558222,0.29626966
879,8.79,0.08029483,0.7094744,0.68433654,-0.076358154,0.8558222,0.29626966
880,8.8,0.08029483,0.7094744,0.68433654,-0.076358154,0.8558222,0.29626966
881,8.81,0.08029483,0.7094744,0.68433654,-0.076358154,0.8558222,0.29626966
882,8.82,0.08029483,0.7094744,0.68433654,-0.076358154,0.8558222,0.29626966
883,8.83,0.08029483,0.7094744,0.68433654,-0.076358154,0.8558222,0.29626966
884,8.84,0.08029483,0.7094744,0.68433654,0.56493119029001,-0.3275925859317055,0.5194977690629435
885,8.85,0.08029483,0.7094744,0.68433654,0.820392,-0.79901177,0.6084218
886,8.86,0.08029483,0.7094744,0.68433654,0.6548870123493048,-0.6086414222852108,0.5121279788681988
887,8.87,0.0685371855013067,0.706975727300396,0.6862521869841653,0.18203785,-0.064751714,0.23701571
888,8.88,-0.1071816343424562,0.6696328889453985,0.714881665221258,0.18203785,-0.064751714,0.23701571
889,8.89,-0.1693837277833822,0.7071033016150534,0.657869525221295,0.18203785,-0.064751714,0.23701571
890,8.9,-0.18621568,0.72338563,0.6343048,0.18203785,-0.064751714,0.23701571
891,8.91,-0.1620749303394599,0.7227418804212733,0.6427808753192674,0.18203785,-0.064751714,0.23701571
892,8.92,-0.0768922017768092,0.7204703542094495,0.6726894420933112,0.18203785,-0.064751714,0.23701571
893,8.93,-0.076389916,0.72045696,0.6728658,0.18203785,-0.064751714,0.23701571
894,8.94,-0.0636546468349428,0.7510216332696615,0.6451878622887177,0.18203785,-0.064751714,0.23701571
895,8.95,-0.058085624,0.7643873,0.63308454,0.18203785,-0.064751714,0.23701571
896,8.96,-0.0568065958782322,0.7620119560702175,0.6325972883634002,0.1219743562038929,0.0851021189361186,0.1550000796773028
897,8.97,-0.05296042,0.75486904,0.63113207,-0.058643065,0.5357288,-0.09162979
898,8.98,-0.05296042,0.75486904,0.63113207,-0.058643065,0.5357288,-0.09162979
899,8.99,-0.0615398143084688,0.7414111900915189,0.6753748237760773,-0.058643065,0.5357288,-0.09162979
900,9.0,-0.065407336,0.7353445,0.6953191,-0.058643065,0.5357288,-0.09162979
901,9.01,-0.065407336,0.7353445,0.6953191,0.0176093608215129,0.3802401644297397,-0.1140082196563867
902,9.02,-0.065407336,0.7353445,0.6953191,0.22235495,-0.03726278,-0.1740966
903,9.03,-0.065407336,0.7353445,0.6953191,0.22235495,-0.03726278,-0.1740966
904,9.04,-0.065407336,0.7353445,0.6953191,0.22235495,-0.03726278,-0.1740966
905,9.05,-0.065407336,0.7353445,0.6953191,0.22235495,-0.03726278,-0.1740966
906,9.06,-0.0315130581758355,0.7296954492871346,0.6914454729094385,0.2126594082727617,-0.1068821541153917,-0.1883705899053717
907,9.07,0.0856393916185324,0.7105218676807655,0.6770718038625877,0.17837265,-0.35308012,-0.23884831
908,9.08,-0.0497595651646942,0.7506716878363852,0.6433288591965782,0.17837265,-0.35308012,-0.23884831
909,9.09,-0.06638357,0.7556012,0.63918597,0.17837265,-0.35308012,-0.23884831
910,9.1,-0.06638357,0.7556012,0.63918597,0.17837265,-0.35308012,-0.23884831
911,9.11,-0.06638357,0.7556012,0.63918597,0.0137717132672942,0.2641733849348289,-0.1366090711528941
912,9.12,-0.06638357,0.7556012,0.63918597,-0.0096966387711949,0.1649991164531149,-0.0998401548021078
913,9.13,-0.06638357,0.7556012,0.63918597,0.03604105,-0.18142697,-0.10751228
914,9.14,-0.0626594487052445,0.7499489884134376,0.6411404727989068,0.0399414617389725,-0.1592805654640173,-0.0907867860616338
915,9.15,-0.0355127261784007,0.7077330981697362,0.6565158210323061,0.0720821,0.02321288,0.047036625
916,9.16,-0.071020655,0.75145227,0.6491923,0.0720821,0.02321288,0.047036625
917,9.17,-0.071020655,0.75145227,0.6491923,0.0720821,0.02321288,0.047036625
918,9.18,-0.071020655,0.75145227,0.6491923,0.0720821,0.02321288,0.047036625
919,9.19,-0.071020655,0.75145227,0.6491923,0.0720821,0.02321288,0.047036625
920,9.2,-0.071020655,0.75145227,0.6491923,0.0720821,0.02321288,0.047036625
921,9.21,-0.0678648327699953,0.7468015845367763,0.6511854464405499,0.0720821,0.02321288,0.047036625
922,9.22,-0.04783522,0.71728426,0.6638357,0.0720821,0.02321288,0.047036625
923,9.23,-0.04783522,0.71728426,0.6638357,0.0720821,0.02321288,0.047036625
924,9.24,-0.04783522,0.71728426,0.6638357,0.0720821,0.02321288,0.047036625
925,9.25,-0.04783522,0.71728426,0.6638357,0.0720821,0.02321288,0.047036625
926,9.26,-0.04783522,0.71728426,0.6638357,0.0720821,0.02321288,0.047036625
927,9.27,-0.0474264413167377,0.717211265366125,0.6649160476195016,0.0720821,0.02321288,0.047036625
928,9.28,-0.0419973766118456,0.7162418102388303,0.6792643426021129,0.0720821,0.02321288,0.047036625
929,9.29,-0.041001618,0.716064,0.681896,0.0720821,0.02321288,0.047036625
930,9.3,-0.041001618,0.716064,0.681896,0.0720821,0.02321288,0.047036625
931,9.31,-0.041001618,0.716064,0.681896,0.0720821,0.02321288,0.047036625
932,9.32,-0.041001618,0.716064,0.681896,0.0720821,0.02321288,0.047036625
933,9.33,-0.041001618,0.716064,0.681896,0.0720821,0.02321288,0.047036625
934,9.34,-0.041001618,0.716064,0.681896,0.0720821,0.02321288,0.047036625
935,9.35,-0.041001618,0.716064,0.681896,0.0720821,0.02321288,0.047036625
936,9.36,-0.041001618,0.716064,0.681896,0.0720821,0.02321288,0.047036625
937,9.37,-0.041001618,0.716064,0.681896,0.0720821,0.02321288,0.047036625
938,9.38,-0.041001618,0.716064,0.681896,0.0720821,0.02321288,0.047036625
939,9.39,-0.041001618,0.716064,0.681896,-0.038839425879119,-0.1160839234485399,0.0131337001004853
940,9.4,-0.041001618,0.716064,0.681896,-0.11178834,-0.20769419,-0.009162978
941,9.41,-0.041001618,0.716064,0.681896,-0.11178834,-0.20769419,-0.009162978
942,9.42,-0.041001618,0.716064,0.681896,-0.11178834,-0.20769419,-0.009162978
943,9.43,-0.041001618,0.716064,0.681896,-0.11178834,-0.20769419,-0.009162978
944,9.44,-0.041001618,0.716064,0.681896,-0.11178834,-0.20769419,-0.009162978
945,9.45,-0.0457207632190429,0.710165070202645,0.6820645359186425,-0.11178834,-0.20769419,-0.009162978
946,9.46,-0.04783522,0.707522,0.68214005,-0.11178834,-0.20769419,-0.009162978
947,9.47,-0.04783522,0.707522,0.68214005,-0.1015309176715244,-0.1698394138846203,-0.0042784914015663
948,9.48,-0.04783522,0.707522,0.68214005,-0.086132,-0.11301007,0.0030543262
949,9.49,-0.04783522,0.707522,0.68214005,-0.086132,-0.11301007,0.0030543262
950,9.5,-0.04783522,0.707522,0.68214005,-0.086132,-0.11301007,0.0030543262
951,9.51,-0.04783522,0.707522,0.68214005,-0.0497442906280382,-0.0773574655639911,-0.0042967256866341
952,9.52,-0.04783522,0.707522,0.68214005,-0.02565634,-0.05375614,-0.009162978
953,9.53,-0.04783522,0.707522,0.68214005,-0.02565634,-0.05375614,-0.009162978
954,9.54,-0.04783522,0.707522,0.68214005,-0.02565634,-0.05375614,-0.009162978
955,9.55,-0.04783522,0.707522,0.68214005,-0.02565634,-0.05375614,-0.009162978
956,9.56,-0.04783522,0.707522,0.68214005,-0.02565634,-0.05375614,-0.009162978
957,9.57,-0.04783522,0.707522,0.68214005,-0.02565634,-0.05375614,-0.009162978
958,9.58,-0.04783522,0.707522,0.68214005,-0.02565634,-0.05375614,-0.009162978
959,9.59,-0.04783522,0.707522,0.68214005,-0.02565634,-0.05375614,-0.009162978
960,9.6,-0.04783522,0.707522,0.68214005,-0.02565634,-0.05375614,-0.009162978
961,9.61,-0.04783522,0.707522,0.68214005,-0.02565634,-0.05375614,-0.009162978
962,9.62,-0.04783522,0.707522,0.68214005,-0.02565634,-0.05375614,-0.009162978
963,9.63,-0.04783522,0.707522,0.68214005,0.2645358348956867,0.9128041362122888,0.397927732746831
964,9.64,-0.0564204743629033,0.7321481115672483,0.6401174762597469,0.44898596,1.5271631,0.65668017
965,9.65,-0.052921370453617,0.7448366448994774,0.6215855072904389,0.44898596,1.5271631,0.65668017
966,9.66,-0.021721095,0.7080101,0.69165826,0.44898596,1.5271631,0.65668017
967,9.67,-0.021721095,0.7080101,0.69165826,0.44898596,1.5271631,0.65668017
968,9.68,-0.021721095,0.7080101,0.69165826,0.44898596,1.5271631,0.65668017
969,9.69,-0.021721095,0.7080101,0.69165826,0.44898596,1.5271631,0.65668017
970,9.7,-0.021721095,0.7080101,0.69165826,0.44898596,1.5271631,0.65668017
971,9.71,-0.0189719727979943,0.7094533716260618,0.6944073822020057,0.44898596,1.5271631,0.65668017
972,9.72,-0.0120507583511013,0.7129145531931612,0.7017515760657917,0.44898596,1.5271631,0.65668017
973,9.73,-0.0130417455047072,0.7105361973428514,0.7053190651760767,0.44898596,1.5271631,0.65668017
974,9.74,-0.013179091,0.71020657,0.7058135,0.44898596,1.5271631,0.65668017
975,9.75,-0.013179091,0.71020657,0.7058135,0.44898596,1.5271631,0.65668017
976,9.76,-0.0136558456324745,0.7094119897983947,0.696119552518395,0.44898596,1.5271631,0.65668017
977,9.77,-0.013911263,0.7089863,0.6909261,0.44898596,1.5271631,0.65668017
978,9.78,-0.013911263,0.7089863,0.6909261,0.3211906273345488,1.0944920361116397,0.4669758602127062
979,9.79,-0.013911263,0.7089863,0.6909261,-0.002443461,-0.0012217305,-0.013439035
980,9.8,-0.013911263,0.7089863,0.6909261,-0.002443461,-0.0012217305,-0.013439035
981,9.81,-0.013911263,0.7089863,0.6909261,-0.1042675351199552,0.3015351942847686,0.1865887009155417
982,9.82,-0.013911263,0.7089863,0.6909261,-0.13988814,0.40744713,0.2565634
983,9.83,-0.013911263,0.7089863,0.6909261,-0.13988814,0.40744713,0.2565634
984,9.84,-0.013911263,0.7089863,0.6909261,-0.13988814,0.40744713,0.2565634
985,9.85,-0.013911263,0.7089863,0.6909261,-0.13988814,0.40744713,0.2565634
986,9.86,-0.013911263,0.7089863,0.6909261,-0.13988814,0.40744713,0.2565634
987,9.87,-0.023378815194559,0.7051992817083325,0.691241675698336,-0.13988814,0.40744713,0.2565634
988,9.88,-0.028554698,0.70312893,0.6914142,-0.13988814,0.40744713,0.2565634
989,9.89,-0.028554698,0.70312893,0.6914142,-0.0901425369251412,0.2345449305861489,0.1551403257313255
990,9.9,-0.028554698,0.70312893,0.6914142,-0.014049901,-0.029932396,0.0
991,9.91,-0.028554698,0.70312893,0.6914142,-0.014049901,-0.029932396,0.0
992,9.92,-0.028554698,0.70312893,0.6914142,-0.014049901,-0.029932396,0.0
993,9.93,-0.028554698,0.70312893,0.6914142,-0.014049901,-0.029932396,0.0
994,9.94,-0.028554698,0.70312893,0.6914142,-0.014049901,-0.029932396,0.0
995,9.95,-0.028554698,0.70312893,0.6914142,-0.014049901,-0.029932396,0.0
996,9.96,-0.028554698,0.70312893,0.6914142,-0.014049901,-0.029932396,0.0
997,9.97,-0.028554698,0.70312893,0.6914142,-0.0155872556232089,-0.0318113848596413,0.0037579779989142
998,9.98,-0.028554698,0.70312893,0.6914142,-0.019547688,-0.036651913,0.013439035
999,9.99,-0.028554698,0.70312893,0.6914142,-0.019547688,-0.036651913,0.013439035
