id,timestamp,acc_x,acc_y,acc_z,gyro_x,gyro_y,gyro_z
0,4.77e-07,0.19827376,0.91193205,-0.39799959375,0.6412369,-0.42249631,0.14996300625
1,0.010000477,0.1832830466666666,0.9243832133333332,-0.4111317133333333,0.7266027833333334,-0.5511878166666666,0.0569106033333333
2,0.020000477,0.1399297657142857,0.9328854,-0.4583063714285714,0.8225058142857142,-0.7735944142857143,-0.0616519442857142
3,0.030000477,0.0745252548571428,0.9581264857142856,-0.5800904542857143,0.8404821885714285,-0.9092025128571428,-0.1414111457142857
4,0.040000477,0.0588906306666666,0.9825472,-0.6344729433333334,0.7304715133333334,-0.8578331533333333,-0.1116832433333333
5,0.050000477,0.1648920228571428,1.0164138571428571,-0.5802602971428571,0.58916218,-0.74165585,-0.0288407184285714
6,0.060000477,0.3646641342857143,1.0446602142857144,-0.4516160614285714,0.5977140571428572,-0.7128587428571429,-0.0887037497142857
7,0.070000477,0.3471137533333333,1.0499799,-0.3590555033333333,0.7589777333333334,-0.9531253,-0.2195995899999999
8,0.080000477,0.2963239085714286,1.0320113714285717,-0.4261311328571429,0.9949392428571427,-1.3296399285714284,-0.28417487
9,0.090000477,0.28544348,1.0237182,-0.46490517,1.0595145,-1.4336585,-0.29045787
10,0.100000477,0.28544348,1.0237182,-0.46490517,1.0595145,-1.4336585,-0.29045787
11,0.110000477,0.2954084933333333,1.0242060333333334,-0.513185425,1.0745820833333333,-1.4566670833333333,-0.2947337983333333
12,0.120000477,0.3626518257142857,0.9916998285714286,-0.8112363557142857,0.8844631857142857,-1.8441478285714288,-0.4754573228571428
13,0.130000477,0.3354057533333334,0.9504213,-0.7319634466666667,0.8432746133333332,-1.900753,-0.5270593666666666
14,0.140000477,0.2446571371428571,0.8988590428571428,-0.6380032657142857,0.9294913571428572,-1.9966851428571428,-0.5951834
15,0.150000477,0.1611330928571428,0.8729907928571429,-0.7528836171428571,1.0476467142857142,-2.050090642857143,-0.6103673142857142
16,0.160000477,0.1235031383333333,0.8354196416666667,-0.78089415,1.112861916666667,-2.09520625,-0.57796331
17,0.170000477,0.0759277731428571,0.7693305657142856,-0.7599529,1.3272402714285716,-2.333698342857143,-0.5611505
18,0.180000477,-0.0873439491428571,0.63447954,-0.7326472571428572,1.7089324857142856,-2.7520414142857144,-0.52467418
19,0.190000477,-0.2780548366666667,0.57938338,-0.7832977333333333,2.0788149666666667,-3.2755666,-0.43991184
20,0.200000477,-0.3933809514285714,0.5831698885714286,-0.8868897085714286,2.4478177428571426,-3.9943299714285714,-0.2843494014285714
21,0.210000477,-0.6754313714285715,0.6890123414285715,-1.04554876,2.671955,-4.506743628571429,-0.0759632214285714
22,0.220000477,-0.932341,0.7812498849999999,-1.1570186999999998,2.7755372,-4.7578892999999995,0.1371352099999999
23,0.230000477,-1.024720114285714,0.8049772928571429,-1.219465785714286,2.7487472285714287,-4.7690591428571425,0.3003186928571428
24,0.240000477,-0.97040725,0.77196575,-1.25743625,2.44743585,-4.64243915,0.976439375
25,0.250000477,-0.7010557285714286,0.6641850971428571,-1.1300267428571429,2.2124450714285713,-4.4240175,1.317117642857143
26,0.260000477,-0.446565685,0.5507486300000001,-0.9894784800000002,1.94951905,-4.08473575,1.56529615
27,0.270000477,-0.41273312,0.4404394714285714,-0.9450463742857144,1.7293522428571428,-3.4601008571428573,1.6092770857142855
28,0.280000477,-0.5408068114285715,0.4282261914285714,-0.8832658714285715,1.529168857142857,-2.9438475142857143,1.7009042142857145
29,0.290000477,-0.6087347033333333,0.4107455133333333,-0.8714024666666665,1.3523140499999995,-2.827204766666666,1.8965789666666664
30,0.300000477,-0.5107005557142857,0.3591629428571429,-0.8794284571428571,1.2684243285714285,-3.154328,2.0061532714285715
31,0.310000477,-0.30672524,0.30291401,-0.969584,1.1346488,-3.7536565,2.0716884
32,0.320000477,-0.0996138284285714,0.2516828085714285,-1.0718787857142855,0.882543427142857,-4.282824685714286,2.0445493285714287
33,0.330000477,0.026038107,0.21736026,-1.0979605,0.66612893,-4.5159936,1.9977759
34,0.340000477,0.2386289085714286,0.0722820914285714,-0.9523378571428572,-0.1307649414285714,-4.419130742857143,1.8415736
35,0.350000477,0.49687858,-0.12883882,-0.8121815533333333,-0.9053774999999998,-3.7947867999999993,1.6817643333333334
36,0.360000477,0.6264694785714287,-0.3530911528571429,-0.5914587228571427,-1.5058694714285714,-3.3405491285714284,1.4563907142857142
37,0.370000477,0.5600892985714286,-0.5163977342857143,-0.38894255,-1.8730758428571428,-3.155375014285714,1.279245042857143
38,0.380000477,0.3055106999999999,-0.70467015,0.0420959516666666,-2.0741319,-2.9489669,1.2700533
39,0.390000477,0.0791945128571428,-0.73238158,0.2684128708571429,-2.097344,-3.044375357142857,1.4912962857142855
40,0.400000477,0.07110171,-0.7588958933333333,0.4304214666666666,-1.9666227,-3.22527345,1.7913095
41,0.410000477,0.1631846128571428,-0.7675012114285715,0.5055303628571428,-1.6833641714285714,-3.398841371428571,2.257822285714286
42,0.420000477,0.27129632,-0.7388845666666667,0.4762167966666666,-1.4779449333333332,-3.4160614,2.5564975333333333
43,0.430000477,0.3855886914285714,-0.6251671342857142,0.3830145071428572,-1.2814266,-3.434445,2.8773959428571425
44,0.440000477,0.4883255257142857,-0.4226858057142857,0.3250102542857143,-1.189799528571429,-4.100268714285714,3.1993997999999997
45,0.450000477,0.6374021885714285,-0.3632921085714286,0.3346275457142857,-1.201667471428571,-4.7331065428571435,3.246980485714286
46,0.460000477,0.9933681171428572,-0.3622467371428571,0.3672296028571429,-1.2812520714285716,-5.055808285714286,3.153019
47,0.470000477,1.14967075,-0.3652550666666667,0.33850044,-1.4653207666666666,-5.0018208,2.955177133333333
48,0.480000477,1.190409142857143,-0.4343284857142857,0.3081800028571428,-1.8507363,-4.747068571428572,2.685066414285714
49,0.490000477,0.9478347833333332,-0.5480299233333333,0.4165181933333333,-2.3934013166666666,-4.428235666666667,2.4223148833333337
50,0.500000477,0.5260498642857143,-0.5363335314285714,0.7579884742857143,-2.684979,-4.273051214285714,2.442647342857143
51,0.510000477,0.0932458557142857,-0.3860024742857142,1.231152,-2.634715,-4.375324328571429,2.897815742857143
52,0.520000477,-0.17225091,-0.155649324,1.6473218,-2.3807770666666666,-4.504591166666667,3.3657174666666663
53,0.530000477,0.3786893428571428,-0.0073218548571428,1.6157389428571427,-1.5786474285714285,-4.0496554428571425,4.0533426285714285
54,0.540000477,1.2687986766666668,0.1092645008333333,1.4631544666666667,-0.8994725833333334,-3.2167217166666666,4.091709333333333
55,0.550000477,1.6094363428571428,0.1698923157142857,1.0988140785714289,-0.6590605428571428,-2.915748485714286,3.5471245714285717
56,0.560000477,1.4323092,0.2077429671428571,0.4897846571428572,-0.6053059857142857,-2.7016029285714285,2.413501214285714
57,0.570000477,0.4214575028571428,0.3927363071428571,-0.1828765114285714,-1.1435497428571428,-2.6916548,1.7447106428571428
58,0.580000477,-0.3430252257142857,0.4880118942857143,0.1089174942857142,-2.0612167428571424,-2.8466355142857145,1.755531357142857
59,0.590000477,-0.5408852000000001,0.6332228999999999,0.5266618200000001,-2.28792835,-3.0743942499999997,2.26593785
60,0.600000477,-0.2761702857142857,0.7522956357142857,1.0516816,-2.3020650714285713,-3.310355714285714,2.9589004857142855
61,0.610000477,0.0894056266666666,0.7677074133333334,1.1510224666666666,-2.1604648999999996,-3.2861545333333333,3.0818262
62,0.620000477,1.0411626714285716,0.9058368571428572,1.1018195285714285,-1.9756983,-3.0890545142857144,2.9105562
63,0.630000477,1.6682158857142857,1.3158389857142858,1.0163703,-2.3889800285714284,-2.479429,1.6963664714285716
64,0.640000477,1.398165257142857,1.5083415,1.4765539857142858,-3.3636740285714284,-1.4099227428571428,0.1263144817714286
65,0.650000477,0.8914544666666667,1.5000061999999998,2.1053970666666664,-3.5500916,-0.9376505333333331,-0.4346178048666667
66,0.660000477,0.2019238042857143,1.6334011428571429,2.6033356428571426,-3.239257585714286,-0.3535714785714286,-0.7238103657142857
67,0.670000477,-0.1065610985714285,1.583476542857143,2.715110442857142,-2.3329785,0.1574895185714286,-0.4602734028571428
68,0.680000477,-0.034736348,1.4843853571428571,2.2776678285714285,-1.613378457142857,0.2545269542857143,-0.2648022885714285
69,0.690000477,-0.2517699008571428,1.5544678857142855,1.6551793428571429,-1.2967850714285714,0.2892580057142857,-0.16916106
70,0.700000477,-0.4067513866666667,1.7612104333333332,1.4403686333333334,-1.4258193,0.0496313433333333,0.0731998566666666
71,0.710000477,-0.4591426585714285,2.1317881285714284,1.5628089428571428,-1.6341473142857144,-0.4082204942857143,0.2711725399999999
72,0.720000477,-0.3012022478571428,2.553184714285714,1.9623574285714285,-1.9577217714285713,-1.203979957142857,0.4547757699999999
73,0.730000477,-0.0292395115,2.9864395,2.7301593,-2.2518884,-1.8954591,0.55312219
74,0.740000477,0.2061705637142857,3.162693142857143,3.544967342857143,-2.2870557714285717,-1.9977323571428571,0.54745005
75,0.750000477,0.53695642,3.1837875714285713,4.114952714285715,-1.9800613857142857,-1.164885707142857,0.4624550142857143
76,0.760000477,0.7250946,3.2045032857142854,4.2406744000000005,-1.5138976571428573,0.1003753057142857,0.2086916
77,0.770000477,0.7986136866666667,3.2398131333333335,4.192825966666667,-1.1132691,1.03126289,-0.110257935
78,0.780000477,0.6943305571428571,3.2920081428571426,3.8580822142857136,-0.6487634057142857,1.9017203285714288,-0.6128106928571428
79,0.790000477,0.4472560514285714,3.2899870571428567,3.4637255714285713,-0.4981459257142857,2.198243,-1.057856542857143
80,0.800000477,0.3424793266666666,3.1767603999999996,3.3813558333333336,-0.5466064833333334,2.1928907333333334,-1.335006666666667
81,0.810000477,0.2459464085714285,2.868795428571429,3.4513252142857143,-0.6163012642857143,2.105394142857143,-1.5692229714285713
82,0.820000477,0.0303850514285714,2.5503229714285713,3.674243099999999,-0.3265851142857143,2.265959714285714,-1.6521236857142856
83,0.830000477,-0.052543717,2.3308980666666668,3.7761553,0.1497593866666666,2.567543666666667,-1.4917908666666666
84,0.840000477,0.0241825955714285,2.140908857142857,3.723853942857143,0.7385579857142857,2.841726857142857,-1.2816012285714289
85,0.850000477,0.1221586964285714,1.9875810285714288,3.5070644000000004,1.6815316142857142,3.074721428571429,-1.015620842857143
86,0.860000477,0.2883908033333333,1.827586266666667,3.2433904333333334,2.511829366666667,3.045226333333334,-0.8577313750000001
87,0.870000477,0.7146322685714287,1.5921573285714286,2.643834542857143,3.0909961714285714,3.0878110285714286,-0.8620363942857142
88,0.880000477,0.9361564885714284,1.4366343999999998,2.1941960857142857,3.2733777714285717,3.3970743142857143,-1.061870642857143
89,0.890000477,1.1153699666666668,1.2021433833333333,1.886538,3.2729705333333334,3.6703266,-1.2702568666666667
90,0.900000477,1.1407939285714286,0.9988475114285712,1.8216176285714287,3.322245457142857,3.8768512,-1.5041241
91,0.910000477,1.0955038285714285,0.7356918828571429,1.7633519714285717,3.544244857142857,3.900587,-1.7259489428571428
92,0.920000477,0.89788777,0.40857567,1.6205976,3.88361435,3.7751888,-1.82124115
93,0.930000477,0.5707171,0.0998751685714285,1.5130020285714283,4.3135635428571435,3.5429795000000004,-1.7351989714285716
94,0.940000477,0.3874006557142856,-0.15051401,1.5657446428571429,4.848141985714285,3.0138112571428572,-1.4582234
95,0.950000477,0.5088508166666666,-0.4680760866666666,1.5389719,5.557539299999999,2.108593866666667,-1.1216174
96,0.960000477,0.75493082,-0.7179469357142858,1.4677816571428572,6.204397242857143,1.3111182,-0.8789655571428572
97,0.970000477,0.9809007,-0.7786531999999999,1.4284166666666664,6.508017533333334,1.0839994,-0.8662832000000001
98,0.980000477,1.3054332714285717,-0.8405281428571428,1.2410349571428572,6.802155242857142,1.0001097,-1.0344698
99,0.990000477,1.4635435714285714,-0.7962529142857143,0.9473070128571428,6.726061042857142,1.154043157142857,-1.4934778714285717
100,1.000000477,1.645360266666667,-0.6782814666666667,0.3092151966666667,6.376074533333333,1.4008254666666666,-1.965808233333333
101,1.010000477,1.641724757142857,-0.6280767314285713,0.1041045122857142,5.977685800000001,1.5842541857142858,-2.189712871428571
102,1.020000477,1.5528258285714287,-0.5466695171428572,0.0385736765714285,4.616368942857143,2.1104555428571428,-2.7840890857142857
103,1.030000477,1.4887657333333333,-0.5944045666666667,0.3400605033333333,3.7844532,2.294291533333334,-3.1334936666666664
104,1.040000477,1.3702846285714287,-0.6340918571428571,0.7554186428571429,3.489617742857143,2.246936271428571,-3.3633468714285715
105,1.050000477,1.2404890666666668,-0.6703744933333334,0.9958100866666668,3.753503666666667,2.0141161000000003,-3.4100039
106,1.060000477,1.1890850857142858,-0.7169364328571428,1.0276905714285711,4.1119835714285715,1.7462159142857143,-3.3801014857142855
107,1.070000477,1.308084466666667,-0.75369235,0.64404162,4.582627,1.3556228,-3.3513625333333334
108,1.080000477,1.3893494000000002,-0.7517642428571428,0.1432357057142857,4.4948976428571426,1.2336278714285716,-3.4595116142857143
109,1.090000477,1.3772754571428574,-0.6706096857142858,-0.1046533148571428,3.9877199,1.201863814285714,-3.651841357142857
110,1.100000477,1.3263056714285713,-0.6623818642857143,-0.0578256721428571,3.633777728571428,1.2140807571428571,-3.736487257142857
111,1.110000477,1.24748135,-0.668392685,0.0280809065,3.45663205,1.21024115,-3.7455627
112,1.120000477,1.0812826,-0.6433912,0.17180881,3.448429114285714,1.0852792571428571,-3.664930942857143
113,1.130000477,1.0028634,-0.5535689,0.0621479371333333,3.611787066666667,0.8429183333333333,-3.5733037666666667
114,1.140000477,1.0849936,-0.4607542385714285,-0.5114409998999999,3.5508768,0.8412894,-3.5181529428571428
115,1.150000477,1.2630309666666666,-0.4908416399999999,-0.8422849566666667,3.0933813333333333,1.2705114,-3.6311305333333337
116,1.160000477,1.369953714285714,-0.6512880428571428,-0.7475392942857143,2.5675873571428576,1.7982251857142857,-3.982047728571429
117,1.170000477,1.1355497428571428,-0.8407546142857143,-0.40702724,2.646124957142857,2.0139416142857143,-4.431631185714286
118,1.180000477,0.7550701999999999,-1.0651927285714284,-0.4981867514285714,3.175642142857143,1.9306918714285717,-4.556942428571428
119,1.190000477,0.2678814866666667,-1.288550766666667,-0.9581148466666668,3.7767159333333336,1.6011833666666668,-4.421159933333333
120,1.200000477,-0.0579171414285714,-1.3792790714285714,-1.3425957714285714,4.0636396,1.1741138714285717,-4.1523870714285716
121,1.210000477,-0.5770371542857143,-1.4156792285714286,-1.9754376285714288,4.072714971428572,0.5477336571428572,-3.6691195142857143
122,1.220000477,-0.7915226571428572,-1.4317211285714286,-2.2238101,3.7013198285714286,0.0611501714285714,-3.1036495142857143
123,1.230000477,-0.9396846257142856,-1.558279042857143,-2.062041014285714,3.274075814285714,-0.0739343342857142,-2.4119958285714285
124,1.240000477,-0.8296418883333333,-1.6203435166666669,-2.1960530499999997,3.11272485,-0.0519729233333333,-2.042189666666667
125,1.250000477,-0.7514245428571428,-1.6756639142857142,-2.3585697,2.794822514285714,-0.0006326642857142,-1.9334624142857144
126,1.260000477,-0.760201875,-1.7714956166666669,-2.2644258333333336,2.2830669666666665,-0.0900490696666666,-1.9118501
127,1.270000477,-0.7192536428571429,-1.9531192857142856,-2.1468455428571427,2.0558937,-0.28714184,-1.9290992142857144
128,1.280000477,-0.7016364766666667,-2.107826333333333,-2.168114166666667,1.974971,-0.38625908,-1.9523696
129,1.290000477,-0.9448939742857144,-2.4362048428571432,-2.4612454428571433,1.7134701428571428,-0.4006285342857142,-2.0195046857142858
130,1.300000477,-1.565226342857143,-2.723207657142857,-2.7843524,1.2610941285714286,-0.2965663371428571,-1.9577218285714288
131,1.310000477,-2.40096835,-2.90238995,-2.9044988333333333,0.36681377,-0.2594573766666666,-1.0006696
132,1.320000477,-2.4365010285714286,-2.9461344714285715,-2.8287234714285714,-0.0818971571428571,-0.3935383428571429,-0.3023257428571428
133,1.330000477,-2.1628293333333333,-2.9875423666666663,-2.5737781666666666,-0.8446999599999999,-0.6196027333333333,1.0053528
134,1.340000477,-1.7593404,-2.914033357142857,-2.2233309285714284,-1.2505352685714288,-0.3957417714285714,1.8319745714285711
135,1.350000477,-1.4730636,-2.8073487,-1.9605108333333332,-1.49118,-0.1709099716666666,2.613917133333333
136,1.360000477,-1.171409742857143,-2.6568709285714287,-1.7536345714285717,-1.5659069857142855,-0.2822550685714285,3.1626835
137,1.370000477,-0.9551624000000002,-2.5504841,-1.65633135,-1.61355305,-0.56259032,3.54520475
138,1.380000477,-0.7011864,-2.4247146142857146,-1.562939557142857,-1.6898216857142856,-1.0746548428571427,3.918956
139,1.390000477,-0.2436596798571428,-2.1925887428571427,-1.3805944285714289,-1.9175805,-2.091279185714286,4.499435542857143
140,1.400000477,0.0405206546666666,-2.038350666666666,-1.2241973999999998,-2.171867466666667,-2.6223672333333337,4.814341733333333
141,1.410000477,0.4565989199999999,-1.7894293142857145,-0.7482579428571429,-2.671365971428571,-3.028318985714286,5.261947142857143
142,1.420000477,0.74595815,-1.6161613,-0.31968328,-3.0402122666666664,-3.157469616666667,5.711472833333334
143,1.430000477,0.8796767857142856,-1.5396324428571428,-0.1176462371428571,-3.1230221428571427,-3.1562477571428573,6.016605642857143
144,1.440000477,1.16785779,-1.4648872333333334,0.1531186799999999,-3.0913452333333336,-3.06523155,6.403562699999999
145,1.450000477,1.4227180428571429,-1.4288638142857142,0.3009931685714285,-2.993609657142857,-2.8904419714285714,6.564797328571428
146,1.460000477,1.8650652714285711,-1.3457013714285715,0.4735250414285714,-2.803134414285714,-2.620447528571429,6.561132271428571
147,1.470000477,2.0575590333333333,-1.2769952,0.5121742166666666,-2.58907615,-2.3603139,6.30867785
148,1.480000477,2.009080585714286,-1.1605032142857143,0.5324483285714285,-2.337843371428572,-2.091279185714286,5.8993229142857135
149,1.490000477,1.883057,-1.0504373,0.5556218666666667,-2.2207352,-2.072604666666667,5.781923833333333
150,1.500000477,1.6730592857142856,-0.93638302,0.5406848142857144,-2.0060660571428572,-2.3584811714285716,5.765634357142857
151,1.510000477,1.6613164333333332,-0.8955705133333334,0.5719845666666666,-1.7691154833333331,-3.1440308333333333,6.0724833333333335
152,1.520000477,1.7364907142857144,-0.86057285,0.6050048285714286,-1.6332746285714286,-3.441251714285714,6.259897314285714
153,1.530000477,1.8088904571428572,-0.8405672857142857,0.5729254285714286,-1.4578742142857144,-3.634454,6.487655942857144
154,1.540000477,1.8134289,-0.8382095166666667,0.4428002333333333,-1.4009782333333334,-3.5455612,6.6448472
155,1.550000477,1.8131849857142857,-0.8283018285714286,0.3156325228571429,-1.5111052571428572,-3.2529362285714285,6.792904942857143
156,1.560000477,1.8193643666666668,-0.8104639666666666,0.1919116,-1.7833686,-2.8695568666666667,6.866788666666667
157,1.570000477,1.9085303,-0.8171426285714285,0.1356742914285714,-2.1847825000000003,-2.483443185714286,6.891687857142856
158,1.580000477,1.9432535,-0.8225175,0.12961122,-2.49113695,-2.2599312166666667,6.84113285
159,1.590000477,2.4621471714285716,-0.6636972457142857,0.6600559128571428,-2.9338558,-2.019373757142857,6.372642342857143
160,1.600000477,2.3682377999999997,-0.4669276233333333,0.8396221533333333,-2.8299535,-1.9728330666666665,5.965992466666667
161,1.610000477,2.144223485714286,-0.26373925,0.8635608885714287,-2.6144699,-1.9656192285714285,5.608559571428572
162,1.620000477,2.0802280333333334,-0.0882825916666666,0.5882507933333333,-2.6010894,-2.144073966666667,5.28713775
163,1.630000477,1.9782991571428572,0.0074220335714285,0.4552356314285714,-2.8465918571428572,-2.275580628571429,5.0923063
164,1.640000477,1.865557414285714,0.0848829964285714,0.4953163742857143,-3.315504457142857,-2.384834885714286,4.854250357142858
165,1.650000477,1.71073485,0.16559909,0.7203621583333333,-3.6089365333333334,-2.3108352,4.65389245
166,1.660000477,1.4557600285714287,0.28969459,0.9801051057142856,-3.591629128571429,-2.105939557142857,4.538006142857142
167,1.670000477,1.2938560499999998,0.40407844,1.11908965,-3.376,-1.92416885,4.4907963
168,1.680000477,1.3125417714285714,0.5895509285714287,1.1885623142857145,-3.0351690428571425,-1.9251287857142856,4.472907171428572
169,1.690000477,1.4519139666666667,0.8663005333333333,1.08757358,-2.7285528666666665,-2.0241442,4.340731600000001
170,1.700000477,1.3948723571428572,1.4690186571428572,0.6868562428571429,-2.996598457142857,-1.9966851428571428,4.111285828571428
171,1.710000477,1.5599588666666666,1.863218466666667,0.9334081233333332,-3.728866066666667,-1.7590365,4.027163333333333
172,1.720000477,1.982659142857143,1.8542371285714283,1.570035,-4.136330314285714,-1.6095824857142855,3.707253857142857
173,1.730000477,2.2198158571428572,1.895441642857143,2.3292344000000003,-4.050986428571429,-1.3158522285714285,3.1312030714285717
174,1.740000477,2.4098814166666664,1.90878,2.6824075,-3.3527878333333336,-0.56666265,2.40663655
175,1.750000477,2.654444857142857,2.041582557142857,2.7658974285714284,-2.4157045142857143,0.3171606257142857,1.6574468285714286
176,1.760000477,2.4580854000000003,2.3115374,2.649987,-1.8444533,0.6800257149999999,1.0546278
177,1.770000477,1.8206941857142855,2.643346828571429,2.283308414285714,-1.327152957142857,0.6756625285714285,0.3235308771428571
178,1.780000477,1.13316065,2.8610206999999996,1.84672365,-1.60377945,-0.07078191,0.0858240399999999
179,1.790000477,1.0465418857142856,2.922431085714286,1.9222680857142855,-2.4043384142857143,-0.5550856257142858,0.3066016914285714
180,1.800000477,1.939734242857143,2.6443878,3.3816518714285713,-3.1393839142857147,-0.03244035,0.3734458228571428
181,1.810000477,1.9808472,2.5746168,4.09560485,-2.6862516666666667,0.7158620766666667,0.1754149633333333
182,1.820000477,1.471457757142857,2.624795928571429,4.479595000000001,-1.5299542857142856,1.1423498714285714,0.1462106542857142
183,1.830000477,1.1291563,2.668977,4.268059,-0.1401894583333333,1.11881765,0.4032609983333333
184,1.840000477,1.164824042857143,2.7341839857142856,4.004615342857143,0.6387281128571428,0.9439117085714288,0.6842798257142857
185,1.850000477,1.9472121500000004,2.8642220333333337,3.4847561,1.6471497,0.62301328,0.9609645566666668
186,1.860000477,2.240836414285714,2.9255538857142858,3.2367046,2.1084266714285715,0.5938089828571428,0.7654352600000001
187,1.870000477,2.4833548,3.0216701142857145,2.6832793714285716,2.1037144857142858,0.92750612,0.2376632157142857
188,1.880000477,2.4959230499999996,3.012188,2.00741885,1.5958385999999998,1.60973525,-0.291068735
189,1.890000477,2.2424088285714285,2.854813857142857,1.750759857142857,0.9441517714285714,2.398077285714286,-0.8135176571428572
190,1.900000477,1.63630475,2.546119,2.2787661499999996,0.3717005666666667,3.244973416666667,-1.3331741166666666
191,1.910000477,1.361155157142857,2.4047656285714285,2.4711285857142857,0.64483654,3.3166170142857143,-1.3988839
192,1.920000477,1.0360665333333332,2.1847208666666664,2.4075288333333336,1.38937208,3.248434766666667,-1.3810239
193,1.930000477,0.8667491800000001,2.043329114285714,2.092713642857143,2.3067774714285716,3.0300423142857142,-1.2781106857142857
194,1.940000477,0.7871147399999999,1.9192887000000003,1.7109230285714283,3.3142172857142858,2.5399684,-1.1440733
195,1.950000477,0.9125837466666668,1.8298729666666669,1.3450276666666667,3.5946833999999996,2.25173575,-1.1370922
196,1.960000477,1.16911445,1.7478327714285715,0.8410899857142857,3.7561215714285714,1.9943944857142857,-1.2194693142857145
197,1.970000477,1.3801619,1.6815005,0.4682488333333333,3.3784435,2.0758117,-1.6471496
198,1.980000477,1.591948271428571,1.5144393571428572,0.2833745428571428,2.5853892857142857,2.523737342857143,-2.268664814285714
199,1.990000477,1.6291803166666667,1.2544533,0.4507681533333333,2.107194,2.7862271,-2.6918511499999997
200,2.000000477,1.6120277714285716,1.106366857142857,0.5749159285714286,1.7323191999999998,2.9593586000000003,-3.091258057142857
201,2.010000477,1.5428164857142856,0.6806669285714285,0.90507455,1.4216597714285713,3.015207457142857,-3.6628364857142857
202,2.020000477,1.5109824666666667,0.41415018,1.0131383433333334,1.4541219333333333,2.9654089333333338,-3.9858292
203,2.030000477,1.4470966142857142,0.0907587742857143,1.1252354714285715,1.5405131571428572,2.934226628571429,-4.142264228571428
204,2.040000477,1.3435742666666668,-0.1751677375,1.2663696,1.8916921166666667,2.929369,-4.180078666666667
205,2.050000477,1.2761414714285717,-0.3183852914285713,1.321984742857143,2.2769767142857145,2.874712742857142,-4.151688771428572
206,2.060000477,1.2174643,-0.4187439499999999,1.3205496,2.5458586000000003,2.8546420500000003,-4.10046485
207,2.070000477,1.1495226714285711,-0.5246778142857143,1.2824354714285715,2.9578314,2.8389344857142857,-3.987109085714285
208,2.080000477,1.097921271428571,-0.6061459714285714,1.2313218142857143,3.4128253571428573,2.786052485714286,-3.8064729
209,2.090000477,1.0985702666666668,-0.6444227833333334,1.205669916666667,3.7498385833333336,2.684419166666667,-3.64925245
210,2.100000477,1.2718600142857144,-0.7573873999999999,1.170743457142857,4.525614714285714,2.230356071428571,-3.3832429142857143
211,2.110000477,1.30218975,-0.8221058916666667,1.0670337833333334,5.092480833333334,1.7215202833333334,-3.305956183333333
212,2.120000477,1.3601403285714286,-0.9134723142857144,0.8552938142857143,5.534210571428572,1.1847601,-3.2727668428571426
213,2.130000477,1.4195543666666666,-0.9869173466666666,0.6561765266666666,5.775408133333333,0.8461761666666666,-3.311046566666666
214,2.140000477,1.422643957142857,-0.9987865142857144,0.4757681885714286,5.828639071428571,0.6833416999999999,-3.4293182000000004
215,2.150000477,1.325199242857143,-0.9457999714285714,0.2880830171428571,5.719559085714286,0.6154504428571429,-3.544681271428572
216,2.160000477,1.2222359,-0.86521816,0.132157105,5.49075315,0.60794575,-3.5922401500000003
217,2.170000477,1.1557381,-0.80443716,0.03222749,5.3062773,0.6140542,-3.608733
218,2.180000477,1.1557381,-0.80443716,0.03222749,5.3062773,0.6140542,-3.608732999999999
219,2.190000477,1.1557381,-0.80443716,0.03222749,5.3062773,0.6140542,-3.608733
220,2.200000477,1.1557381,-0.80443716,0.03222749,5.3062773,0.6140542,-3.608733
221,2.210000477,1.1557381,-0.80443716,0.03222749,5.3062773,0.6140542,-3.608732999999999
222,2.220000477,1.1557381,-0.80443716,0.03222749,5.3062773,0.6140542,-3.608733
223,2.230000477,1.2113816,-0.6846131083333332,0.1383464883333333,5.163135466666667,0.4714977233333333,-3.7056541166666666
224,2.240000477,1.367322814285714,-0.3819691585714286,-0.1141007285714285,5.870525785714286,-0.2499019814285714,-4.474565342857143
225,2.250000477,1.239079257142857,-0.4303909428571428,-0.7631281271428572,5.4239092,0.2339326914285714,-4.788191714285714
226,2.260000477,0.9174417333333332,-0.5229878033333333,-0.9398922116666668,4.541496766666667,0.7545490433333334,-5.224220083333333
227,2.270000477,0.5465170857142857,-0.6022346257142858,-0.7990753542857144,4.076205657142857,0.9463550857142856,-5.387869014285714
228,2.280000477,0.290580985,-0.83910385,-0.66856035,3.712577,0.9744541,-5.4699845
229,2.290000477,0.0358209071428571,-1.1988983714285717,-0.6254110657142856,3.713536885714286,0.7163275,-5.5131800857142865
230,2.300000477,-0.0283988682857142,-1.6234005142857144,-0.9427771314285714,3.909007942857143,0.4175359142857143,-5.664844742857143
231,2.310000477,-0.2574642073333333,-2.3057544,-1.6580438333333334,3.812959466666667,0.3147390466666667,-6.125016333333334
232,2.320000477,-1.2222185514285715,-2.994839285714286,-2.3248612,3.0730198142857144,0.3929275028571428,-6.511653742857143
233,2.330000477,-2.1124606333333333,-3.345052833333334,-2.5697232,2.151734916666667,0.3542404916666666,-6.1944494500000005
234,2.340000477,-2.7027926285714288,-3.5262640857142857,-2.6663664285714286,1.6598901428571426,0.2194468674285714,-5.777066214285715
235,2.350000477,-3.3080196,-3.6375512,-2.285368657142857,0.5680443071428571,-0.4651601645714285,-4.015731714285715
236,2.360000477,-3.3610802,-3.6461275,-2.2198248,0.30695075,-0.6725428,-3.496337
237,2.370000477,-2.5628237714285715,-3.6361268428571423,-1.9416507714285711,-0.3890660942857143,-0.6812692257142857,-1.8956771142857145
238,2.380000477,-2.2265678333333336,-3.62025685,-1.7438568,-0.5435522866666667,-0.22863503,-1.27901233
239,2.390000477,-2.249491,-3.4940061142857144,-1.5002094857142858,-0.1361753107142857,0.3520880057142857,-0.1517082764285714
240,2.400000477,-2.328946833333333,-3.4660658666666664,-1.690505183333333,0.168899271,0.1811671166666666,0.5195255816666667
241,2.410000477,-2.2658552285714286,-3.4000894571428573,-1.8453385285714283,0.4149834371428572,-0.1400803657142857,1.4654662485714287
242,2.420000477,-1.9616911142857143,-3.2594542,-2.028659357142857,0.4703087642857143,-0.44700932,2.4309539714285715
243,2.430000477,-1.55163515,-3.061266116666667,-2.1339712166666667,0.30695075,-0.6668416333333335,3.293688466666667
244,2.440000477,-1.1501542,-2.829050142857142,-2.2589559285714285,-0.1798072542857143,-0.83258485,4.1036065285714285
245,2.450000477,-0.8770125666666667,-2.6554497,-2.2793098,-0.4940736166666666,-0.8832851666666667,4.40873925
246,2.460000477,-0.3499637914285714,-2.300304071428571,-2.0318998857142856,-1.6770811142857145,-0.9601646285714284,5.102603571428572
247,2.470000477,0.0586663142857142,-2.054039714285714,-1.6308224571428571,-2.7341087142857146,-1.0285795142857144,5.576621285714286
248,2.480000477,0.440665935,-1.8384762,-1.12529425,-3.5855207,-1.13006745,5.930563500000001
249,2.490000477,0.8245472714285714,-1.6312886,-0.4728150714285714,-4.304400542857143,-1.2360930285714289,6.291312371428572
250,2.500000477,1.0003377666666668,-1.552082416666667,-0.0686981194166666,-4.662648,-1.3351084000000002,6.6702994
251,2.510000477,1.0847365714285715,-1.5327505857142858,0.1232127619285714,-4.6775411,-1.409050057142857,6.838457085714286
252,2.520000477,1.3050862666666665,-1.4900565,0.6570708333333334,-4.4321551,-1.61732,7.1278242
253,2.530000477,1.5528215428571428,-1.4650506857142858,0.9147049857142856,-3.9577885142857143,-1.764563242857143,7.293625657142857
254,2.540000477,1.6745591333333334,-1.3648560666666667,1.0012474333333332,-3.4205919333333337,-1.7749185666666667,7.285015466666667
255,2.550000477,1.9499177857142855,-1.3882387142857142,1.0447779142857143,-2.6953199428571426,-1.7958036714285714,7.004432914285714
256,2.560000477,2.077590757142857,-1.3016482571428571,1.0616516285714286,-2.2481360571428572,-1.8869071571428573,6.723093971428571
257,2.570000477,2.0542256,-1.1372513,1.0139411833333334,-1.857281,-2.00418985,6.427792749999999
258,2.580000477,1.8416101142857144,-0.9093866985714286,0.7171977714285714,-1.6193123714285715,-2.0005248,6.224118857142857
259,2.590000477,1.6609809999999998,-0.8252818966666666,0.4296083799999999,-1.74732855,-1.82154655,6.2329328
260,2.600000477,1.7133751428571429,-0.8826124585714286,0.4922587128571428,-2.127537342857143,-1.5703137857142857,6.418717457142857
261,2.610000477,1.7887019333333332,-0.91867147,0.6072915633333333,-2.3192852,-1.3640219666666666,6.4872486
262,2.620000477,1.7723638285714287,-0.91113765,0.6884025685714287,-2.412890342857143,-1.2696024,6.489750314285714
263,2.630000477,1.6960875142857144,-0.8930050742857143,0.7687556785714287,-2.4477958285714285,-1.292116485714286,6.468283428571428
264,2.640000477,1.59334495,-0.8411415816666666,0.8353383833333333,-2.3942159166666666,-1.3780715,6.4752354
265,2.650000477,1.6248465285714286,-0.8024292557142857,0.9242917214285714,-2.2331266285714286,-1.4628046428571426,6.562528542857144
266,2.660000477,1.7727863499999998,-0.7768746000000001,1.0372099,-2.0883849,-1.5142903,6.581319333333333
267,2.670000477,2.0084839714285714,-0.7764216,0.9594549571428572,-1.7331045857142855,-1.4392433714285713,6.371071457142857
268,2.680000477,2.0985473999999997,-0.7505925800000001,0.5595245466666666,-1.5349573666666665,-1.0687791,5.821425466666667
269,2.690000477,1.8771610285714284,-0.6166648842857142,0.2216462128571428,-1.872203214285714,-0.7585850285714286,5.4031405
270,2.700000477,1.5915301142857143,-0.5130569514285714,0.1407965428571428,-2.4683901,-0.6203590428571429,5.147631628571429
271,2.710000477,1.3908332,-0.49857584,0.3208418933333333,-3.109034433333333,-0.8107979166666667,5.037708166666667
272,2.720000477,1.3276863428571428,-0.5562432642857144,0.6061765057142857,-3.403662785714286,-1.157031942857143,5.047627342857143
273,2.730000477,1.3776566,-0.6165654416666667,0.8473461666666666,-3.413261783333333,-1.3949715000000005,5.111009733333334
274,2.740000477,1.5349066285714288,-0.6564102457142857,0.9132763142857144,-3.280097142857143,-1.4455264428571428,5.144838999999999
275,2.750000477,1.78182655,-0.6871742150000001,0.920678775,-3.1298286999999996,-1.2821684,5.0216224
276,2.760000477,1.708070085714286,-0.5663875571428572,0.9505694285714286,-2.8506932857142857,-0.8622545142857143,4.654590657142857
277,2.770000477,1.2089511857142856,-0.2702596842857143,0.9868302314285716,-2.4518100142857144,-0.4334397771428571,4.3338087142857145
278,2.780000477,0.6001162916666667,0.1035223033333333,0.8212216816666666,-2.01732305,-0.5304190633333333,4.589753333333333
279,2.790000477,0.6416881200000001,0.3370971971428571,0.5962760557142858,-1.8950663428571428,-1.0303248,5.0774715
280,2.800000477,1.3446923166666669,0.559692215,-0.1845636133333333,-2.4418619,-1.5802618,5.5469513
281,2.810000477,2.048129142857143,0.5692797428571429,-0.4846580514285715,-3.5205526857142857,-1.4179509428571428,5.3305368
282,2.820000477,2.4839209714285713,0.5493395285714285,0.1967144514285714,-5.013158071428571,-1.100834007142857,4.748311999999999
283,2.830000477,2.12332525,0.7447893333333333,1.3947257283333334,-5.837714616666667,-0.45121252,4.216118483333333
284,2.840000477,1.8537972714285715,0.9905499,2.2145892285714286,-5.346680571428572,0.1361316671428571,4.4753505
285,2.850000477,2.04039335,1.11364725,2.8979435,-4.41627285,0.59939387,4.963592
286,2.860000477,2.962267657142857,1.0786866,3.1443123714285717,-3.3030692142857143,0.59293634,5.215697285714286
287,2.870000477,4.5188000285714285,1.5853232142857143,2.987034128571429,-1.4065631,-1.181094962857143,3.7576922571428577
288,2.880000477,4.8537182,2.7651308166666664,2.3135802,-1.4960667333333333,-1.8134018166666668,2.5770881333333335
289,2.890000477,4.9791669999999995,2.976806914285714,2.0716584142857144,-2.2076456428571425,-1.3362719714285711,1.7623379714285714
290,2.900000477,4.624045333333334,2.847915033333333,2.4034685,-3.6824163666666663,0.8361736,0.3020639833333333
291,2.910000477,3.5113067857142854,2.7211213,3.4482063142857142,-4.1405192571428575,2.3872566285714285,-0.3094813971428571
292,2.920000477,2.7206007,2.5102786666666668,4.5101868666666665,-3.6007918333333335,2.9696848333333334,-0.34258349
293,2.930000477,2.5978040142857144,2.249125157142857,4.989202142857143,-2.359179357142857,2.245016357142857,0.0050176814285714
294,2.940000477,2.623815957142857,2.1376377857142854,5.047010457142858,-0.6138578714285714,1.3448020428571428,0.3717005657142857
295,2.950000477,2.599501266666667,2.2607721333333335,4.681390933333334,0.9788827133333332,0.7944577666666666,0.67956758
296,2.960000477,3.070066,2.4876974428571432,4.0273297999999995,2.3271971714285717,0.5280120057142857,0.9820242
297,2.970000477,3.9161434,2.6540269,3.297326566666667,3.2147364333333335,0.7635081533333333,0.7528692333333332
298,2.980000477,4.126817714285714,2.7256250857142854,2.7754799285714284,3.3623869714285712,1.291745585714286,-0.0300624028571428
299,2.990000477,3.693376,2.759043033333333,2.13199425,3.1170009333333333,1.9607687999999996,-1.0772291433333334
300,3.000000477,3.3741819428571427,2.623785414285714,1.9812828571428571,2.648219257142857,2.508727971428571,-1.8428825714285717
301,3.010000477,2.8886702285714287,2.3514698857142853,1.936201857142857,2.3110969714285714,2.9007173285714285,-2.3876928428571427
302,3.020000477,2.5847392,2.20502185,1.91771865,2.2323413000000003,3.1692283499999996,-2.6869643999999995
303,3.030000477,2.2345771285714284,1.9490727714285716,1.802008528571429,2.3907470714285717,3.509121257142857,-2.965772571428572
304,3.040000477,1.9360987,1.7493398666666666,1.7285867,2.6832993000000003,3.524945066666666,-3.0915489333333332
305,3.050000477,1.667523257142857,1.5846612714285713,1.698923214285714,3.1227602857142855,3.137202442857143,-3.1465834
306,3.060000477,1.45603005,1.3898982000000002,1.60584065,3.744341,2.42399455,-3.1860266
307,3.070000477,1.5060765285714286,1.2672298714285717,1.3949812,4.015469914285714,2.0937007142857142,-3.2715451142857144
308,3.080000477,1.6796102,1.0541265,1.01247775,4.206955916666667,1.8495946166666664,-3.4955225
309,3.090000477,1.7760269714285717,0.8542658314285714,0.9258467071428572,4.093832571428572,1.8750175,-3.862496228571428
310,3.100000477,1.8927585285714288,0.4669218514285714,1.0348468928571428,3.921573942857143,1.8160271142857145,-4.424999328571429
311,3.110000477,1.9183741,0.2565088733333333,1.1611957333333334,3.91782165,1.6824261,-4.641675500000001
312,3.120000477,1.951738442857143,-0.1045923457142857,1.3364803857142855,4.0872009857142855,1.2447976142857142,-5.130091428571428
313,3.130000477,1.9619030666666664,-0.4060806166666666,1.4385087,4.220190966666666,1.025358,-5.343131666666667
314,3.140000477,1.9169758714285712,-0.5955138428571428,1.4217292428571429,4.3660961857142855,0.8990580785714286,-5.482812042857143
315,3.150000477,1.8692814428571427,-0.7729109314285714,1.3752892857142858,4.507463771428571,0.8446054,-5.583863828571429
316,3.160000477,1.8670092833333336,-0.8913426166666666,1.3057876166666669,4.584256,0.8522846,-5.620864
317,3.170000477,1.9258396285714288,-1.0306219285714286,0.9968047,4.538704,1.5599948571428572,-5.767990714285714
318,3.180000477,1.725131083333333,-1.0472054166666669,0.8182134,4.2808684333333336,2.0587079000000004,-5.847487999999999
319,3.190000477,1.543543842857143,-1.0520954,0.8427974885714286,4.042347214285714,2.277653071428571,-5.760311357142856
320,3.200000477,1.41368,-1.0533846999999998,0.95019265,3.909473366666667,2.3081373666666667,-5.554485033333333
321,3.210000477,1.3460149571428572,-1.063036857142857,1.1604422571428572,3.962064342857143,2.1284319000000003,-5.311426028571428
322,3.220000477,1.414982457142857,-1.072201042857143,1.4433725142857143,4.4292752,1.5359100285714289,-5.051030542857143
323,3.230000477,1.45237135,-1.0881580000000002,1.56251495,4.848956533333333,1.0949946433333333,-4.930606333333333
324,3.240000477,1.4458900714285714,-1.1219557,1.5062202714285715,5.358985071428571,0.7362236485714285,-4.865682028571428
325,3.250000477,1.3901268,-1.12463875,1.2221902,6.02219025,0.3825430999999999,-4.705814599999999
326,3.260000477,1.3474784142857144,-1.104319642857143,0.9834110714285714,6.328137328571429,0.2629042971428571,-4.565145085714286
327,3.270000477,1.467265466666667,-0.9809719333333334,0.6098729666666667,6.406209766666667,0.2117094733333333,-4.313243333333333
328,3.280000477,1.6755507142857142,-0.9271273257142856,0.4373730857142857,6.277175714285714,0.1143811471428571,-4.313999628571429
329,3.290000477,1.8774876,-0.8866284000000001,0.30341928,5.999676285714286,-0.1330992514285714,-4.523432957142857
330,3.300000477,1.8157056,-0.8121002333333333,0.2233971866666666,5.696608749999999,-0.394530955,-4.79927415
331,3.310000477,1.652452642857143,-0.7097539571428572,0.1465547214285714,5.344324642857143,-0.6322269214285715,-5.048412714285715
332,3.320000477,1.4733075,-0.6249958333333333,0.1333512766666666,5.0611242333333335,-0.6289690833333333,-5.0368938666666665
333,3.330000477,1.3669351428571428,-0.5917200771428571,0.2546882085714285,4.877637142857142,-0.47724624,-4.897271614285714
334,3.340000477,1.3416128,-0.6191418166666667,0.3877157166666666,4.882756533333333,-0.3169788166666666,-4.764863133333333
335,3.350000477,1.4195384,-0.7343024157142857,0.31909092,5.087070457142857,-0.1269907814285714,-4.723441714285714
336,3.360000477,1.582736057142857,-0.9136508357142856,-0.2442172035714285,5.247286971428571,0.1276452628571428,-4.921879842857143
337,3.370000477,1.5770737,-1.2661357666666666,-1.0815265333333337,4.503216733333333,0.4641930116666666,-5.6595507
338,3.380000477,1.3612554,-1.6445863285714286,-1.251214071428571,3.716852857142857,0.7816008942857142,-6.438700985714285
339,3.390000477,0.83236565,-2.02796895,-1.1705560499999998,3.2851874666666667,0.8319230533333334,-7.0066725666666665
340,3.400000477,-0.7065221,-2.5966236,-0.8750772,3.159062014285714,0.42137552,-7.202783642857143
341,3.410000477,-2.0211588857142857,-2.935920357142858,-0.8626941057142857,3.3615142857142857,-0.7482224457142858,-6.4969931999999995
342,3.420000477,-2.4644528,-3.0797019666666667,-1.09624282,3.4277184999999997,-1.9675389999999997,-5.346389533333333
343,3.430000477,-2.356444157142857,-3.178613071428572,-1.3035777714285717,3.3383020714285716,-2.3125804142857143,-4.912106214285714
344,3.440000477,-1.76647495,-3.4357645,-1.75467555,2.53295445,-2.55456315,-3.92881675
345,3.450000477,-1.4939895714285714,-3.6512540857142857,-1.8593419285714283,1.7902623642857145,-2.2911134857142854,-3.6228695
346,3.460000477,-1.5821392714285716,-3.8918125714285714,-1.7148996714285711,-0.44683477,-0.9458533371428572,-3.478709642857143
347,3.470000477,-2.2855296166666665,-4.081386566666667,-1.1154512499999998,-1.22709032,-0.41303456,-3.1754384666666664
348,3.480000477,-2.7917221714285714,-4.051913571428572,-0.6834240428571429,-1.267988,-0.37999062,-2.4235146999999997
349,3.490000477,-2.998345666666667,-3.981685666666667,-0.4954862466666667,-0.9318475,-0.6004628399999999,-1.5580423
350,3.500000477,-2.8612340142857144,-3.8961375428571423,-0.6072131514285715,-0.3346134114285714,-0.8816271057142856,-0.0583358999999999
351,3.510000477,-2.5493910285714287,-3.7360453714285713,-0.8447357214285713,-0.0759632182857142,-0.7554435285714286,1.2473064857142857
352,3.520000477,-2.1529814666666667,-3.4058286666666664,-1.0801443666666666,-0.2664312056666666,-0.180912598,2.6053653333333333
353,3.530000477,-1.961063957142857,-3.2079572,-1.170434142857143,-0.4967497,0.1749422934285714,3.3501044571428573
354,3.540000477,-1.5469653,-2.9309485,-1.1463931,-0.8817579999999999,0.3941492,4.073587533333334
355,3.550000477,-0.8812230685714286,-2.592237428571429,-1.0159870142857144,-1.7271705999999998,0.5032290628571429,5.339263171428572
356,3.560000477,0.0073988066666666,-2.184624383333333,-0.6661669,-2.4964309333333334,-0.1611109783333333,5.9916481
357,3.570000477,0.3544849485714286,-1.9890185285714288,-0.48822098,-2.7893468285714285,-0.6325105214285714,6.144883371428571
358,3.580000477,0.7820622285714285,-1.7481290285714286,-0.2271561028571428,-3.158582257142857,-1.220211017142857,6.2979444
359,3.590000477,0.9244137,-1.6212633833333332,-0.0298950355,-3.5071285666666667,-1.536891716666667,6.549962600000001
360,3.600000477,0.9795955142857145,-1.5424158857142858,0.1383181700285714,-3.638751571428571,-1.597714642857143,6.7377544
361,3.610000477,1.1179006,-1.4514261500000003,0.328510005,-3.820085966666667,-1.5020733666666668,7.240626833333333
362,3.620000477,1.5136814285714286,-1.367017857142857,0.45934735,-3.9914724142857145,-1.2531967714285714,7.5596054285714285
363,3.630000477,1.88384455,-1.31402485,0.51873455,-4.1128857000000005,-1.0201149433333334,7.625053433333334
364,3.640000477,2.176403028571429,-1.2453383714285715,0.5812578,-4.431980714285714,-0.3269123634285714,7.3313232
365,3.650000477,2.4505698,-1.151940042857143,0.7207432571428571,-4.70057892857143,0.1827960382857142,6.890291571428571
366,3.660000477,2.43167125,-0.9949615333333334,1.0456199,-4.777283633333333,0.51916923,6.061895333333333
367,3.670000477,2.0564309285714284,-0.8641401,1.1894248142857144,-4.537046428571428,0.3615124928571429,5.675752714285714
368,3.680000477,1.7680401666666663,-0.7947719333333333,1.336328,-3.796466666666667,-0.3076124766666667,5.6552750000000005
369,3.690000477,1.4617926285714284,-0.7382355714285715,1.5453732714285715,-3.471903,-0.6065713,5.700885
370,3.700000477,1.44040415,-0.7129379,1.4550086999999998,-1.98372645,-1.5173446000000002,6.17490225
371,3.710000477,1.5015770857142858,-0.7570737571428572,1.1278097142857142,-0.9201541571428572,-1.949039085714286,6.603368000000001
372,3.720000477,1.5289741428571428,-0.7881296142857143,0.8924867571428571,-0.5154242,-2.0631801714285714,6.812976
373,3.730000477,1.57926895,-0.80798925,0.5518005,-0.37903072,-2.0445057,7.05696585
374,3.740000477,1.8107459428571429,-0.8292078428571428,0.1525001857142857,-0.5138534485714286,-1.8923175428571428,7.295545114285714
375,3.750000477,2.2063483,-0.8066477000000001,0.0313585385,-0.9880454666666668,-1.639310433333333,7.242663
376,3.760000477,2.2747973571428575,-0.6607049285714286,0.1920103291428571,-1.7427035714285717,-1.3320832714285713,6.7260607142857145
377,3.770000477,2.127598716666667,-0.52480705,0.3502643383333333,-2.0826836666666666,-1.1925774999999998,6.4526341333333335
378,3.780000477,1.988996642857143,-0.4650445428571428,0.46505765,-2.288277428571429,-1.0641832,6.307019628571429
379,3.790000477,1.8936122,-0.4176942142857142,0.5403276771428571,-2.325102857142857,-1.0448105714285716,6.287472428571428
380,3.800000477,1.9075147166666664,-0.4904350799999999,0.3459957833333333,-2.429237683333333,-1.2434814,6.258384666666667
381,3.810000477,1.7768720000000002,-0.4563680714285714,0.2617443642857143,-2.6336679857142857,-1.2237016142857142,6.1707135
382,3.820000477,1.6372399,-0.3908764533333333,0.2765201966666666,-2.7505434,-1.1714014333333334,6.140694766666667
383,3.830000477,1.3553186714285714,-0.2646931342857143,0.4282392642857143,-2.8851623999999996,-1.0699425742857145,6.2164399857142865
384,3.840000477,1.21746435,-0.105250045,0.7019006999999999,-2.971670066666667,-0.95027473,6.512497266666666
385,3.850000477,2.047501885714286,0.0753310485714285,0.7932083,-2.678696114285714,-0.7091936914285715,6.6499669714285705
386,3.860000477,2.681503033333333,0.1931616783333333,0.8020793166666667,-2.5393939,-0.5851917083333333,6.457928249999999
387,3.870000477,3.3705929142857145,0.5217377342857142,0.2624717428571428,-2.3402867571428567,-0.2687509857142857,4.7106140000000005
388,3.880000477,2.8322601428571423,0.7545562285714286,-0.4044747914285714,-2.963830785714286,0.2370742,3.2043083714285716
389,3.890000477,1.5621032666666668,1.0347403333333334,-0.64577445,-4.066868116666666,0.6319723633333334,2.5731941833333334
390,3.900000477,0.6364743857142857,1.1765190285714284,0.0189688785714285,-4.894653571428571,0.6034079857142858,2.734457785714286
391,3.910000477,0.2101342066666666,1.258071333333333,1.2223579166666667,-4.987618866666667,-0.1992889466666667,3.494453566666666
392,3.920000477,0.5606773142857143,1.236309,1.9178732142857144,-4.252391428571428,-1.4624556585714286,4.493850571428571
393,3.930000477,1.486833214285714,1.2607834285714286,1.8886946714285715,-3.463133057142857,-2.2043733,5.201909857142858
394,3.940000477,3.2788496666666664,1.4934915666666668,1.3844557833333333,-2.75705905,-2.2572843,5.5675166166666665
395,3.950000477,4.950158,2.423830542857143,1.5888992714285717,-3.1725442285714287,-0.4483400964285714,3.610805414285714
396,3.960000477,4.990026666666666,2.8181014,1.8035197666666667,-3.3330370666666664,0.4336506616666666,2.5744159
397,3.970000477,4.320639714285714,3.255377242857143,2.2322383571428572,-3.342403514285714,1.2296137,1.0548023857142856
398,3.980000477,3.7447867,3.1840577,2.690207866666667,-3.138176916666667,0.8581895333333334,-0.0717745433333333
399,3.990000477,3.2577816142857143,3.066354857142857,2.994939485714286,-2.8793158857142855,0.0144858285714285,-0.36463216
400,4.000000477,2.5962446285714287,2.9609873,3.409893957142857,-2.447796,-1.0990887428571428,-0.5014619542857143
401,4.010000477,2.4404014,2.897974,3.71561315,-1.9124609666666668,-1.2280066,-0.0835842666666666
402,4.020000477,2.684930171428572,2.715894471428572,3.996365428571429,-1.3489688714285717,-1.0270087714285714,0.3031111342857143
403,4.030000477,3.13983265,2.68750435,3.93550385,-0.5014037933333334,-0.2990606333333333,0.5895694
404,4.040000477,3.484489114285714,2.8695446857142857,3.648414028571429,0.4467475042857142,0.945657,0.4497144657142857
405,4.050000477,3.6472706,3.1604486,3.2646722166666664,0.8383878833333333,1.9049780666666667,-0.14018944
406,4.060000477,3.7106562571428574,3.1176296,3.1391596428571433,1.0973870571428572,2.5509636,-0.8733806914285714
407,4.070000477,3.5000080857142857,2.8801942000000005,2.9263422999999995,1.4054286285714286,2.8535947142857148,-1.7264725285714284
408,4.080000477,2.9692890666666667,2.7149145000000003,2.5722588,1.7426454333333332,3.1083471333333335,-2.6085469333333333
409,4.090000477,2.671824057142857,2.3961676857142855,2.2282528285714287,1.8960263142857143,3.2988150999999997,-2.8954379142857145
410,4.100000477,2.3131532666666668,2.0324356,1.9980129333333336,2.066598133333333,3.465896366666667,-3.174216866666667
411,4.110000477,1.9569304428571428,1.8445370285714284,1.9385712714285712,2.3064502,3.3726404857142858,-3.3720732
412,4.120000477,1.6546393,1.7535677666666665,1.9095931,2.526515133333333,3.1449981,-3.401859266666667
413,4.130000477,1.3534979428571428,1.651224385714286,1.7889850857142855,2.9065202,2.7122273,-3.3631722285714285
414,4.140000477,1.3307178666666666,1.4959307,1.1355642666666668,3.3845519,2.09596965,-3.2177906000000003
415,4.150000477,1.487499642857143,1.4081352571428571,0.8648152714285714,3.2562740428571426,2.120054457142857,-3.3054035
416,4.160000477,1.6275688,1.2788943,0.7976031428571428,2.8527659142857145,2.3867328142857143,-3.600181085714286
417,4.170000477,1.6814853166666666,1.106080816666667,0.9282452666666666,2.6234363000000003,2.5518652,-3.9090662
418,4.180000477,1.6977166999999995,0.9333776285714286,1.0293240285714285,2.6049363714285714,2.531416357142857,-4.1078823714285715
419,4.190000477,1.7101099666666666,0.6926928333333334,1.1318953333333333,2.6837066000000003,2.3675929333333334,-4.3372701000000005
420,4.200000477,1.7727471,0.2156310357142857,1.2501862857142858,2.9508504285714285,1.8570411,-4.691678085714286
421,4.210000477,1.8470335,-0.090376215,1.2699165,3.1088562,1.5734916333333333,-4.845495133333333
422,4.220000477,1.865448542857143,-0.1893533828571428,1.268776057142857,3.2110713714285715,1.4158348142857144,-4.928512257142857
423,4.230000477,1.919480485714286,-0.5113495471428572,1.218594657142857,3.3714623857142856,1.3735991,-4.974936571428572
424,4.240000477,2.0215203833333333,-0.7221559716666667,1.2485840999999998,3.512015416666667,1.6455715666666666,-5.019790133333333
425,4.250000477,2.0534256,-0.8099557714285714,1.3412804142857142,3.6726974,1.8437769857142856,-5.116303885714286
426,4.260000477,1.97016075,-0.9510717166666668,1.4161649166666666,4.070126283333333,1.9807231,-5.282047133333333
427,4.270000477,1.9067053714285715,-1.0085736285714286,1.442706085714286,4.365223714285714,1.8195176142857143,-5.3260864
428,4.280000477,1.7645440666666667,-1.0875329500000002,1.4269074666666668,4.98517525,1.3195827166666667,-5.363289933333334
429,4.290000477,1.7488302857142857,-1.1199216142857142,1.3243412285714289,5.2736407,1.0266378857142855,-5.369892914285715
430,4.300000477,1.7728212,-1.1588045428571427,1.119412,5.556026714285714,0.7089973428571429,-5.4208549714285725
431,4.310000477,1.7659719,-1.17418435,0.906150415,5.6312481000000005,0.5875841666666667,-5.498287
432,4.320000477,1.6682244571428573,-1.1476497,0.7282044928571428,5.510125814285715,0.6058514285714286,-5.589274142857143
433,4.330000477,1.4384884,-1.0444206866666663,0.5471559,5.1981576,0.77267091,-5.574235999999999
434,4.340000477,1.3309966428571427,-0.9024916885714286,0.4803721142857142,4.777109314285714,1.132052702857143,-5.216308285714286
435,4.350000477,1.3541339,-0.8288491666666666,0.4101763666666667,4.6204996,1.3495143333333337,-4.931828133333333
436,4.360000477,1.4099472,-0.7158344428571429,0.2000508671428571,4.4435864,1.4510894857142858,-4.672479742857143
437,4.370000477,1.474728842857143,-0.6262604257142856,-0.06595769,4.0735876428571425,1.426132057142857,-4.5211641
438,4.380000477,1.7566472333333334,-0.4529329366666666,-0.4543151533333333,2.8948560833333334,1.5095563,-4.580591083333334
439,4.390000477,1.9138311714285712,-0.3624035514285714,-0.4160129714285714,2.3519800857142856,1.5919333857142857,-4.712097814285714
440,4.400000477,1.8601187,-0.33595457,-0.0060064533333333,1.7872372666666667,1.8801369,-4.9558549
441,4.410000477,1.7523801857142856,-0.3601778171428571,0.4212309985714285,1.8480311142857144,2.0354084571428572,-4.999893871428571
442,4.420000477,1.6984833,-0.5396656400000001,0.736170935,2.64901545,1.9621941000000005,-4.947099199999999
443,4.430000477,1.692455042857143,-0.7361971314285716,0.7945541228571429,3.4943299,1.7840885285714283,-4.910710242857142
444,4.440000477,1.5233511666666668,-1.0875532533333334,0.2001234693333333,4.7100905,0.98789274,-5.218926233333334
445,4.450000477,1.081195542857143,-1.26831,-0.2216113645714285,5.087943214285715,0.5049743457142857,-5.577929857142857
446,4.460000477,0.6275714714285715,-1.4671718142857144,-0.57244194,5.171542142857143,0.3545313785714286,-5.857698028571428
447,4.470000477,0.4344816550000001,-1.5888935333333334,-0.7277711166666666,5.176778,0.33917293,-5.9299526
448,4.480000477,-0.44518277,-2.0439216285714283,-1.3210222,4.875368242857143,0.67670967,-6.027513442857143
449,4.490000477,-1.3251688250000002,-2.26995965,-1.6082493666666666,4.240756166666666,0.4228590333333333,-5.24559995
450,4.500000477,-1.4805045,-2.3748640714285716,-1.6913356571428573,3.8885881428571425,-0.0182599571428571,-4.6030175714285715
451,4.510000477,-1.2624299142857145,-2.4656403428571427,-1.7954140571428572,3.437782842857142,-0.4258259857142857,-3.9598826285714286
452,4.520000477,-0.7871191,-2.5675583,-1.8974584,2.5770119,-0.712858765,-3.21412565
453,4.530000477,-0.5411900928571428,-2.6903702714285713,-1.9483585428571428,2.0250896000000003,-0.5037090257142857,-3.248682085714286
454,4.540000477,-0.6873978100000001,-2.821414633333333,-1.902174,0.9862129333333334,0.0781375533333333,-3.4657945333333333
455,4.550000477,-1.0994325742857145,-2.852274442857143,-1.663407157142857,0.4298183314285714,0.4534886457142857,-3.4008701857142856
456,4.560000477,-1.5310548,-2.854922566666667,-1.3247521000000002,0.20921519,0.54319595,-2.8182964
457,4.570000477,-1.5851229571428571,-2.9017459142857143,-1.1659435142857144,0.3924693628571428,0.3529606357142857,-1.932633385714286
458,4.580000477,-1.3216537428571429,-3.027646128571429,-1.2128408,0.5582707514285714,0.2304421185714285,-1.3531576142857145
459,4.590000477,-0.8706757999999999,-3.517877833333334,-1.5079995000000002,0.6298853133333333,0.2377722933333333,-1.0450578666666666
460,4.600000477,-1.131973694285714,-3.655823,-1.694854957142857,0.5308698857142857,0.2571448771428571,-0.9585502285714286
461,4.610000477,-1.8105020000000005,-3.709342566666667,-1.9065543333333332,0.24097924,0.08098816,-0.6044333656666666
462,4.620000477,-2.3544580857142856,-3.650618142857143,-1.9547699142857144,-0.2375759428571428,-0.4951135142857143,0.3453468735714285
463,4.630000477,-2.2699444333333334,-3.4342198833333337,-1.7289322833333332,-0.9764393,-1.4373236,2.05947155
464,4.640000477,-1.8815688571428573,-3.2561047285714286,-1.5656445857142856,-1.7763874142857143,-1.9352513285714288,3.844388871428571
465,4.650000477,-1.1916041,-2.9370920333333337,-1.300269033333333,-2.211776066666667,-1.9451412,4.642897133333333
466,4.660000477,-0.6392097742857142,-2.655690628571429,-0.9886291442857144,-2.9796256285714287,-1.6664785142857144,5.782214685714286
467,4.670000477,-0.0804518486666666,-2.3423623333333334,-0.5719642633333333,-3.852664566666667,-1.1058371666666666,6.9392758
468,4.680000477,0.2174038252857142,-2.0669456142857143,-0.2504457942857143,-4.162335,-0.8851176857142857,7.449478628571429
469,4.690000477,0.5295343985714286,-1.9169150142857143,-0.0302151757142857,-4.5065038571428575,-0.6570098571428572,8.181972028571428
470,4.700000477,1.10617735,-1.78551575,0.316664815,-4.576315,-0.5923182333333333,8.503095666666667
471,4.710000477,1.593433542857143,-1.6995111571428574,0.6106192457142858,-4.4679332714285716,-0.5500243428571429,8.798207142857143
472,4.720000477,2.300911566666666,-1.5312631333333335,0.9801384766666668,-4.0147427,-0.5145370133333333,8.620786
473,4.730000477,2.512694385714286,-1.4796638714285713,1.0623529142857142,-3.4362994714285717,-0.4245388342857142,8.069576
474,4.740000477,2.3443137285714286,-1.2762242714285714,1.0896367142857142,-2.730378157142858,-0.35437868,7.304096914285714
475,4.750000477,1.9090087166666665,-1.0886865,0.9816426166666666,-2.1828626833333336,-0.415783375,6.924208166666666
476,4.760000477,1.5276152142857142,-1.0087609357142855,0.8128697214285714,-1.7866845999999998,-0.6458400657142856,6.957485142857143
477,4.770000477,1.1696414333333334,-0.9923749166666666,0.6124950833333332,-1.5769022,-1.0125811466666663,7.405556
478,4.780000477,1.130945828571429,-1.0965012571428572,0.4757246142857143,-1.5477560571428572,-1.3289418000000002,8.055788571428572
479,4.790000477,1.2168698,-1.17894075,0.4369767,-1.5933950999999995,-1.4202198499999998,8.4363355
480,4.800000477,1.4653643142857142,-1.277417742857143,0.41116073,-1.7435762714285714,-1.389677514285714,8.833985857142858
481,4.810000477,1.925007857142857,-1.3589208,0.3919784357142857,-1.9840755,-1.2584326,9.096475428571429
482,4.820000477,2.6921690999999996,-1.3685962,0.43123452,-2.3249864,-0.9938484766666668,8.894903333333334
483,4.830000477,3.270709085714286,-1.2608923571428572,0.6396105314285714,-2.7066204857142857,-0.6557881371428572,7.715110285714286
484,4.840000477,2.869013966666667,-1.0499595666666668,0.7615993166666667,-2.849297,-0.52308885,6.687199266666667
485,4.850000477,2.289915885714286,-0.895574842857143,0.7822146257142857,-2.8848135142857143,-0.5699204971428571,6.333897028571429
486,4.860000477,1.6627342,-0.700239,0.84879955,-2.83646925,-0.698809275,6.3948074
487,4.870000477,1.5834285857142858,-0.6803053428571427,0.9001570428571429,-2.594224657142857,-0.7905236357142857,6.941079285714286
488,4.880000477,1.9896414,-0.8174126857142856,0.7003152285714285,-2.2891501857142855,-0.7870330428571428,7.314219857142858
489,4.890000477,2.2020798,-0.84605545,0.49835223,-2.23722815,-0.816091915,7.3135217
490,4.900000477,2.3165856428571425,-0.7813042857142857,0.14033483,-2.4642014285714287,-0.9093770314285716,7.078956085714286
491,4.910000477,2.2510968666666664,-0.6810458666666667,-0.2737354966666667,-3.2848818666666664,-0.9555687133333334,6.629779566666667
492,4.920000477,1.8872137142857144,-0.5597321542857143,-0.1135432242857142,-4.761314228571429,-0.7913962514285714,6.158845514285715
493,4.930000477,1.753059557142857,-0.4867618714285714,0.2774552114285714,-5.302524942857143,-0.6592787285714286,6.086242028571428
494,4.940000477,1.6317111000000002,-0.27487376,1.0430690333333337,-5.1802394000000005,-0.5902820333333333,6.2294712
495,4.950000477,1.9996855714285715,-0.2489038928571428,0.8137713714285715,-4.966558999999999,-0.3828266928571428,6.254661285714286
496,4.960000477,2.342037,-0.1444698066666666,0.5288621466666666,-5.195306866666667,-0.0290152433333333,5.823461333333333
497,4.970000477,3.064860857142857,0.1773230628571429,0.7036560428571429,-5.701844742857142,0.276692,4.921967285714286
498,4.980000477,3.121632514285714,0.5988197585714286,1.2685322428571428,-6.0598012714285705,0.32346544,3.855951571428572
499,4.990000477,2.8806558999999994,1.0521751666666666,1.8773047333333333,-5.945834666666666,0.157140451,3.3425561666666663
500,5.000000477,2.832735,1.5677264999999998,2.5300300285714283,-5.187511271428571,-0.2012305382857142,3.1215602999999996
501,5.010000477,3.1405084999999997,1.6439527166666668,2.647008983333333,-4.496497416666667,-0.370962445,3.0079137
502,5.020000477,3.3430390714285716,1.4958713,2.097626685714286,-3.601577142857143,-0.2456696757142857,2.2045914
503,5.030000477,2.6017066333333334,1.6984935,1.8796522666666664,-3.5977375333333335,-0.48475821,1.8328472
504,5.040000477,2.407936542857142,1.8745476142857145,2.1972361857142855,-4.0262033285714285,-0.9826787457142856,2.374057814285714
505,5.050000477,3.364529957142857,1.7710049285714289,3.1228738,-4.219231114285714,-1.5772948714285715,2.821023542857143
506,5.060000477,4.6080129,1.7282716,4.395043,-3.5985522000000003,-1.3794967333333332,2.271028266666667
507,5.070000477,4.204226214285714,2.3250617285714283,4.886861685714286,-2.2392788,-0.3109867157142857,1.5082255
508,5.080000477,3.7979451,2.719904766666667,4.5505092000000005,-0.793796,0.8347736793333334,1.1185631666666664
509,5.090000477,3.713239142857143,2.7816475714285716,3.7985274142857146,0.0647061714285714,1.4400942142857145,0.8605529142857142
510,5.100000477,3.7106636,2.7422128333333333,3.2795817666666665,0.3252761533333333,1.5922242666666666,0.62947811
511,5.110000477,3.639541657142857,2.767217128571428,3.065823557142857,0.3333044285714285,1.5568533142857144,0.3125356357142857
512,5.120000477,3.616979171428571,2.8128382714285713,2.9380547142857147,0.3936910457142857,1.522994971428571,-0.1513592314285714
513,5.130000477,3.76642925,2.635219783333333,2.7638705666666668,0.41934663,1.6728561666666668,-0.7113315966666667
514,5.140000477,3.6559451428571426,2.5047934285714284,2.621760171428572,0.4270258528571428,1.8629750571428576,-1.1822948285714288
515,5.150000477,3.3866408666666667,2.271281,2.302177,0.2902542566666666,2.703151866666667,-2.1454991333333333
516,5.160000477,3.099592942857143,2.0728039,2.110062042857143,0.1603474071428571,3.293055842857143,-2.6587780857142858
517,5.170000477,2.371896533333333,1.8263768333333337,2.182749233333333,0.1499629999999999,3.83810615,-3.1298286
518,5.180000477,1.823229171428571,1.6983482142857145,2.3012579,0.3825212885714285,4.1747702,-3.5066342
519,5.190000477,1.3022231714285712,1.5759021,2.376297214285714,1.0506136314285714,3.9066955142857145,-3.4717286
520,5.200000477,1.1180226,1.4378431,2.2862462999999997,1.5966528999999998,3.5811429999999995,-3.3318154
521,5.210000477,1.075115,1.2791774857142857,2.1199495285714285,2.3568451142857145,3.111721314285714,-3.1179607999999996
522,5.220000477,1.1915278833333331,1.0116291416666667,1.920101833333333,3.1019334,2.7817476000000005,-2.979153
523,5.230000477,1.3441420714285714,0.7392461071428571,1.8383215285714285,3.864503571428571,2.464223285714286,-3.0048667285714283
524,5.240000477,1.5240066499999998,0.393818715,1.7002821500000005,4.30143385,2.2395188000000004,-3.09256695
525,5.250000477,1.6968411142857145,-0.0674865099999999,1.4371657,4.664189842857143,2.025984028571429,-3.2607245714285713
526,5.260000477,1.8629265714285712,-0.3444887399999999,1.3316238142857142,4.773094899999999,2.012719971428571,-3.3867335428571432
527,5.270000477,2.0823776333333335,-0.45765883,1.3404745,4.826558866666667,2.1069649333333333,-3.590000266666667
528,5.280000477,2.3168773857142857,-0.5528415128571428,1.356873557142857,4.884443857142857,2.200337314285714,-3.798095585714286
529,5.290000477,2.413956916666667,-0.6262205,1.3097664333333332,4.964406416666667,2.304675883333333,-4.1059625833333335
530,5.300000477,2.2872980857142857,-0.8081786871428572,0.9485134828571428,5.087943314285715,2.514661842857143,-5.082096571428571
531,5.310000477,2.0816356333333332,-0.8636682800000001,0.7502775066666666,4.938954833333334,2.497907166666667,-5.437202500000001
532,5.320000477,1.7854090714285713,-0.9294749428571428,0.5445744857142857,4.391053842857143,2.416577128571429,-5.7018447142857145
533,5.330000477,1.5475947,-0.9640501571428572,0.6108980071428572,3.862758128571429,2.4075017,-5.602538257142856
534,5.340000477,1.4815194166666668,-0.9344549166666668,0.8688108949999999,3.5150696999999997,2.363724283333333,-5.318087
535,5.350000477,1.6408491428571428,-0.9253850142857144,1.0846451857142856,3.468325242857143,2.3418793,-5.068134357142857
536,5.360000477,1.8833924,-0.9587551,1.2575734333333333,3.6301125333333335,2.4537225,-4.852417833333333
537,5.370000477,2.069406457142857,-0.9902711857142856,1.3487416285714284,3.8027204142857145,2.5525343,-4.8059933571428575
538,5.380000477,2.2184728666666667,-1.0266148,1.4280813,4.105758766666667,2.6054162,-4.828798333333333
539,5.390000477,2.334086542857143,-1.1021113571428571,1.516173,4.687052785714286,2.5328125999999997,-4.953644028571429
540,5.400000477,2.1739582,-1.1534412333333333,1.3595203333333334,5.4461615,2.2016462000000003,-5.1101956500000005
541,5.410000477,1.9607720714285717,-1.1196646285714285,0.90696925,5.981001942857143,1.7586074714285715,-5.084714442857143
542,5.420000477,1.8889168142857145,-1.0780725,0.6554868428571429,6.110850514285715,1.5303251285714286,-5.0014645714285715
543,5.430000477,1.8989318333333336,-0.8744107666666666,0.0687540133333333,5.586452666666666,1.7176516333333334,-4.928162866666667
544,5.440000477,1.8606137142857144,-0.6793471428571428,-0.37031778,4.701015,2.155832771428571,-4.916644085714286
545,5.450000477,1.7019132499999998,-0.5318399833333333,-0.34120385,3.658007866666667,2.6776997999999996,-4.8670781666666665
546,5.460000477,1.583428642857143,-0.4600268499999999,0.0950186071428571,3.151906457142857,2.8926889571428567,-4.701974885714286
547,5.470000477,1.61538395,-0.457907825,0.5920620150000001,3.1237201,2.8399815499999996,-4.520117
548,5.480000477,1.8280727428571428,-0.5781565514285714,1.187856785714286,3.7828242,2.4399638857142856,-4.4178438571428575
549,5.490000477,1.945865633333333,-0.7397789333333334,1.3883228666666667,4.664073299999999,2.0010847333333333,-4.630884
550,5.500000477,1.902341042857143,-0.9986732714285714,1.297580057142857,5.862497599999999,1.4961176857142855,-5.078605642857142
551,5.510000477,1.61221295,-1.45984125,0.23234585,7.978224999999999,1.2778415333333335,-5.8672388333333325
552,5.520000477,1.1977963571428571,-1.8718340142857144,-1.3614252142857144,7.926790142857144,1.9163805,-6.5430684999999995
553,5.530000477,0.3083847174285714,-2.178323957142857,-2.7814950714285716,6.8435616714285725,2.732298,-6.854425999999999
554,5.540000477,-0.8260949451999999,-2.2793809,-3.8290852333333327,5.185736833333333,3.0122405333333333,-6.686995666666667
555,5.550000477,-1.849389242857143,-2.2426439142857144,-4.246689571428571,3.2793116857142857,2.5464258714285712,-5.990687971428572
556,5.560000477,-1.98377435,-2.3833606333333335,-3.5554208333333333,1.1674818333333334,1.4826790333333333,-4.755089566666666
557,5.570000477,-1.6359622285714284,-2.5134175428571432,-2.6418309714285715,0.2237009971428571,0.699049257142857,-3.8796001142857146
558,5.580000477,-1.1878960028571428,-2.665386271428571,-1.7844943999999998,0.0865221485714285,0.2477203857142857,-3.346068585714286
559,5.590000477,-0.8618186133333333,-2.8119018,-1.4050413666666666,0.53968356,0.1461452,-3.0039940500000006
560,5.600000477,-0.8509294314285715,-2.9870950142857144,-1.6527358428571428,1.0719060142857144,0.3875171285714285,-2.86507
561,5.610000477,-1.5127507666666666,-3.064396366666667,-2.1253069666666664,1.1358704166666669,0.5696659666666667,-2.4493448333333334
562,5.620000477,-1.9726019714285712,-3.1030512571428575,-2.397613828571429,0.9743449828571428,0.5236488028571429,-1.9267213428571428
563,5.630000477,-2.095792916666667,-3.144929416666667,-2.540798683333333,0.6066731433333333,0.3558694233333333,-0.9965972933333336
564,5.640000477,-1.942347528571429,-3.1282966714285716,-2.4854238142857144,0.2563376942857143,0.2229374342857142,-0.2560758942857143
565,5.650000477,-1.7197779428571427,-3.037307,-2.2024848857142856,-0.0681094671428571,0.0796501222857142,0.5034690242857144
566,5.660000477,-1.57551865,-2.94828175,-1.96285845,-0.17622943,-0.2405974605,1.19756605
567,5.670000477,-1.2519893857142856,-2.785001357142857,-1.7640270999999998,-0.1140102771428571,-0.8584149371428572,1.9520497
568,5.680000477,-0.9651071333333332,-2.650672933333333,-1.7296334333333334,-0.0953939824999999,-1.2135499166666668,2.3347600666666666
569,5.690000477,-0.5719802357142857,-2.4647430571428575,-1.7297612428571427,-0.3892405971428571,-1.8064499142857144,3.0142913
570,5.700000477,-0.0837853799999999,-2.2870389,-1.6197287000000002,-1.4445518999999998,-2.1731909999999997,3.606493166666666
571,5.710000477,0.3421715185714285,-2.1487534285714287,-1.2478079857142856,-2.5179560285714286,-2.1589961,3.966078571428571
572,5.720000477,0.5044457871428571,-2.055324542857143,-0.6296621714285715,-3.406433342857143,-2.030194585714286,4.2997757142857145
573,5.730000477,0.602997555,-1.9875906166666668,-0.02312635,-3.744951933333333,-2.057740916666667,4.614187583333334
574,5.740000477,0.7113611857142857,-1.8923446857142856,0.4285180657142857,-3.667374314285714,-2.2214769142857143,4.983750142857143
575,5.750000477,0.8909513166666666,-1.7533949,0.8303837833333333,-3.3411818333333336,-2.327939,5.266775933333334
576,5.760000477,0.9847699714285716,-1.6916012285714286,0.8927349742857142,-2.8355092857142856,-2.3174673142857145,5.5747010857142865
577,5.770000477,1.18965785,-1.56160025,0.8939545799999999,-2.25616425,-2.2027151999999997,5.879863
578,5.780000477,1.2428120571428571,-1.4603422428571429,0.7953251628571428,-2.0228207,-2.0724302142857143,5.9762897142857145
579,5.790000477,1.2415576285714285,-1.3585766714285714,0.6523464485714285,-1.8263024571428572,-1.8828930285714287,6.101775142857143
580,5.800000477,1.2754403,-1.27594325,0.385845685,-2.001441,-1.5845378,6.303791
581,5.810000477,1.3276515857142857,-1.2285733714285716,0.26224962,-2.5081824,-1.2617486857142857,6.528146285714286
582,5.820000477,1.4201946333333335,-1.202001,0.4776803066666666,-2.9717719,-1.0557476666666668,6.773939733333333
583,5.830000477,1.6186528,-1.1725814285714284,0.8617271142857144,-3.084800428571429,-1.0657539571428571,6.9730177428571425
584,5.840000477,1.8231246,-1.1247302,1.1152174666666668,-2.8243031333333337,-1.3049734333333334,7.047599333333333
585,5.850000477,1.9996418857142857,-1.0425346857142856,1.0930298285714286,-2.2622726571428573,-1.7170916,7.011239285714285
586,5.860000477,2.0411251333333333,-0.9841428266666666,0.9883198666666668,-1.9996084000000005,-1.9015675,6.97022535
587,5.870000477,2.025396828571429,-0.93023723,0.8537562428571429,-1.8350288,-2.030369,6.925895257142857
588,5.880000477,1.9913705428571429,-0.8724986528571429,0.4549176714285714,-1.8978588571428572,-2.0841234571428573,6.865159428571428
589,5.890000477,1.9396051,-0.8712297066666667,0.191261181,-2.1227961,-2.0102982333333332,6.8498883333333325
590,5.900000477,1.8260211857142856,-0.8970209857142858,0.1375385192857142,-2.7830855142857147,-1.7040020714285713,6.9213575714285716
591,5.910000477,1.7662514500000002,-0.9459648,0.3777100583333333,-3.7363999333333338,-1.2793178166666668,7.176895583333334
592,5.920000477,2.0257542,-0.9912599142857142,0.7261225142857143,-4.122717114285715,-1.2202110000000002,7.360295071428571
593,5.930000477,2.4098183428571427,-0.9854059385714286,0.8765494428571429,-4.150118142857143,-1.2509279142857144,7.32888
594,5.940000477,3.0545837,-0.8609903050000001,0.9785631833333333,-3.8766913,-1.3583207166666666,6.500483833333334
595,5.950000477,2.9697332000000003,-0.6057191285714286,0.8125474114285715,-3.757430628571429,-1.3490125142857143,5.680115785714285
596,5.960000477,2.7696127500000003,-0.49170551,0.773154885,-3.73212405,-1.27422735,5.239083999999999
597,5.970000477,2.6009750000000005,-0.41618282,0.76339823,-3.702105242857143,-1.2004893714285714,5.024065785714285
598,5.980000477,1.6386931999999998,-0.07524829,1.10043,-3.5146625,-1.135565,4.7968307
599,5.990000477,1.2729357571428572,0.1209391142857142,0.9526601285714286,-3.0308058714285715,-1.6015542285714286,5.207843771428571
600,6.000000477,1.4159581285714289,0.4194582914285714,0.3876619971428571,-2.817271257142857,-1.7757330428571427,5.883615314285714
601,6.010000477,1.5542625333333333,0.4945410666666667,0.2186357283333333,-2.8230307,-1.7671812000000002,5.947667
602,6.020000477,2.276709628571429,0.7171411342857142,-0.3654699099999999,-4.227084771428571,-1.3181211285714285,6.039992171428572
603,6.030000477,2.9424059857142857,0.7075238457142856,0.66575748,-5.655071071428572,-0.7945377285714287,5.1380325
604,6.040000477,2.907080166666667,0.8945236766666667,2.4690618833333335,-5.559982616666667,-0.9158636666666666,4.090895033333333
605,6.050000477,2.7369627571428574,1.0231520142857142,3.0147099285714285,-4.634432742857143,-1.1961262285714285,3.803593157142857
606,6.060000477,2.5549152666666664,1.1737168999999998,3.355886833333334,-3.357445666666667,-1.539945983333333,3.614637666666667
607,6.070000477,2.602638857142857,1.338723642857143,2.600596014285714,-1.0348188525714286,-1.9242561285714288,3.7931215285714286
608,6.080000477,2.700091483333334,1.4793699166666665,1.8615872666666664,0.0487659716666666,-1.9897331333333337,3.9575266666666664
609,6.090000477,2.8851813714285717,2.1357561142857144,0.5269732988571428,-0.31367008,-1.3479653714285715,4.187903457142857
610,6.100000477,3.205095542857143,2.8687256571428574,0.3265783045714285,-2.333392874285714,-0.0829007085714285,4.222110885714286
611,6.110000477,3.9084087333333337,2.9761593333333334,1.0929397866666666,-3.7455626999999994,0.60428062,4.096392666666667
612,6.120000477,5.005217785714286,2.8492472571428573,2.947371428571429,-3.7237466857142856,0.7557707571428571,3.235068885714285
613,6.130000477,5.31858795,2.7540072500000004,3.6602746333333336,-2.584851066666667,0.7252284266666668,1.7200441
614,6.140000477,4.715292714285715,2.8612515000000003,3.1731033571428573,-1.3634547371428571,0.6550682457142857,0.6041715942857142
615,6.150000477,3.619583857142857,3.0405737,2.1163169857142856,-0.5889003971428571,0.5430214,-0.2543306314285714
616,6.160000477,3.1159947333333338,3.177492333333334,1.6051851,-0.87524238,0.5582635,-0.31367008
617,6.170000477,3.0205943285714283,3.1815619714285712,1.449082757142857,-1.429775342857143,0.7611811428571429,-0.1850430925714286
618,6.180000477,3.1902978833333333,3.0805709666666665,1.56889745,-2.0254677333333335,1.069135416666667,-0.1037422216666666
619,6.190000477,3.5045730857142856,2.891815014285714,2.3996478428571426,-2.637332971428571,1.5983909285714284,-0.6728482285714286
620,6.200000477,3.3425426666666667,2.7635149,2.8375334333333337,-2.4068400000000003,1.5767495,-1.2690351666666666
621,6.210000477,2.7904547142857146,2.498028885714286,3.1096936428571427,-1.6102370857142856,1.2933163285714286,-1.9298845714285715
622,6.220000477,2.3102132285714285,2.298012857142857,3.0397635428571426,-0.6278201428571428,1.06835,-2.4592928285714284
623,6.230000477,1.9859696,2.1620264,2.860481866666667,0.20962242,1.1646312333333333,-2.7397008666666665
624,6.240000477,1.5902278285714286,1.9485501428571428,2.6356023714285715,0.8202369842857143,1.4140896142857144,-2.833305942857143
625,6.250000477,1.4106005999999998,1.8177586,2.535401933333333,1.4598231666666666,1.6695983333333333,-2.8382509
626,6.260000477,1.3137439142857144,1.6134696,2.2831994428571427,2.1704712142857145,1.7722206714285715,-2.850758757142857
627,6.270000477,1.2700334666666666,1.4533978,1.9148780666666667,2.7419406,1.8125365333333336,-2.9196972666666667
628,6.280000477,1.2852143571428571,1.3848587,1.4095508914285717,3.0820952142857143,1.8650693285714288,-3.0741543428571427
629,6.290000477,1.2758888857142856,1.284247357142857,0.3160768042857143,2.5613042714285714,2.4204167857142855,-3.606289357142857
630,6.300000477,1.2831947999999995,1.1427293,0.2242102433333333,1.8007268333333333,2.704780833333333,-3.9043829
631,6.310000477,1.3503270714285711,0.8996954285714286,0.5368867285714286,1.0897079,2.6548076857142857,-4.2005567
632,6.320000477,1.4650448333333337,0.4024371083333333,1.0390443833333334,0.6746807866666668,2.3794028,-4.514008700000001
633,6.330000477,1.4660480571428571,0.1229514228571428,1.3817269285714284,0.5891621657142857,2.1413468285714288,-4.760441828571429
634,6.340000477,1.4590790000000002,0.045063604,1.4877087,0.6038225,2.0910828,-4.812102
635,6.350000477,1.459079,0.045063604,1.4877087,0.6038225,2.0910828,-4.812102
636,6.360000477,1.3758293857142856,-0.1449692634285714,1.682458714285714,1.323749642857143,2.0738046,-4.704767400000001
637,6.370000477,1.3234003666666667,-0.4077880266666667,1.8833110333333336,2.4641069333333334,2.198184766666667,-4.490796266666666
638,6.380000477,1.5051792714285714,-0.4514897542857143,1.6876551,2.983661542857143,2.746958257142857,-4.2867732
639,6.390000477,1.82946145,-0.5914369233333333,1.3644800166666666,3.36419045,3.4795387000000004,-4.1578844166666675
640,6.400000477,1.9784474,-0.6546026357142857,1.341297742857143,3.605678628571429,3.694469642857143,-4.1757737
641,6.410000477,2.0985937285714287,-0.7470296285714285,1.3244806142857144,4.059451114285714,3.606507585714286,-4.283980928571429
642,6.420000477,2.150786083333333,-0.7987457899999999,1.27914975,4.3635365,3.4270058,-4.351115916666666
643,6.430000477,2.1669165428571424,-0.8075776,1.2664849571428571,4.411997,3.3958526,-4.3612967
644,6.440000477,2.274884457142857,-0.8806262428571429,1.2004402000000003,5.145362714285715,2.7342177142857147,-4.534428314285714
645,6.450000477,2.282480666666667,-0.9441201,1.0891184,5.552245333333333,2.311395,-4.6752721
646,6.460000477,2.275128342857143,-0.9951451714285716,0.9285123728571428,5.744691257142857,2.092129985714286,-4.757474714285714
647,6.470000477,2.2703662,-1.0309138333333332,0.6967683133333332,5.827533566666666,1.9530314,-4.8300202
648,6.480000477,2.2160655714285715,-0.9694293857142858,0.3391400171428571,5.498955928571428,2.0877668857142857,-4.914200742857143
649,6.490000477,2.1204388,-0.8060734666666667,0.1308206433333333,4.899860233333333,2.410759666666667,-4.919203933333333
650,6.500000477,2.068975342857143,-0.6253413714285714,0.243786,4.335553785714286,2.686746271428571,-4.868998128571428
651,6.510000477,2.074424357142857,-0.5721762714285715,0.3523855328571428,4.136068657142857,2.7717412857142856,-4.829380371428571
652,6.520000477,2.0440165833333332,-0.5451537933333334,0.3747068116666667,4.101686699999999,2.65122975,-4.835925
653,6.530000477,2.028650542857143,-0.5524190142857143,0.4219627628571428,4.133450685714286,2.468935485714286,-4.842120842857143
654,6.540000477,2.025514428571429,-0.5938282114285715,0.4601313771428571,4.259634342857143,2.0902102285714284,-4.858351914285715
655,6.550000477,2.00769335,-0.65130323,0.3897483699999999,4.460865,1.77283145,-4.953818600000001
656,6.560000477,1.9438591857142855,-0.6664587142857143,0.2895900828571428,4.589491885714286,1.6931595000000002,-5.123634285714286
657,6.570000477,1.6914198666666664,-0.6605466433333333,0.2164760433333333,4.766695733333333,1.7591891666666666,-5.501137666666666
658,6.580000477,1.190278582857143,-0.6572247471428572,0.2024682585714285,5.044311228571429,1.8661165571428573,-5.819127428571428
659,6.590000477,0.4802414233333333,-0.91064764,0.2221267716666667,5.65690355,1.9155660333333333,-5.743644
660,6.600000477,0.2481416571428571,-1.2898530885714286,0.1437453128571428,6.412085542857143,1.8045081857142855,-5.543024314285715
661,6.610000477,-0.2281666399999999,-1.8976063285714289,-0.7486151642857143,7.368497742857143,1.4355565285714285,-5.2990344857142855
662,6.620000477,-0.6902028933333334,-2.121206116666667,-1.86654689,7.348747133333333,1.1786807333333331,-5.045242066666667
663,6.630000477,-1.0326997,-2.063317142857143,-2.810155128571429,6.505283428571429,1.0962745571428572,-4.647697
664,6.640000477,-1.1764507666666668,-1.9408855333333337,-3.3196856333333336,4.9747911333333334,1.0436835,-4.1580882
665,6.650000477,-1.0174286857142856,-1.984998214285714,-3.264785585714286,3.3732076857142856,0.8847468085714285,-3.803680428571429
666,6.660000477,-0.6062853899999999,-2.31729985,-2.7746741500000005,2.0125126,0.92497542,-3.74311935
667,6.670000477,-0.67970866,-2.7493285428571426,-2.1974147571428575,1.1925047142857144,1.1400809285714286,-3.9038593571428577
668,6.680000477,-1.2205808,-3.1209616857142857,-1.6531015714285715,0.6863741428571428,1.2709768571428572,-4.051335285714286
669,6.690000477,-1.7162536,-3.297859916666667,-1.4387628,1.0798762,0.9111295833333334,-3.386791833333333
670,6.700000477,-1.7975874571428572,-3.4309102285714284,-1.6127465571428572,1.4905982714285713,0.5632666171428572,-2.4364296857142853
671,6.710000477,-1.674244,-3.5069426,-1.9098168333333332,1.681968,0.4138999233333333,-1.5136031166666666
672,6.720000477,-1.6724363285714283,-3.4521527714285716,-2.1426556428571426,1.5651215857142855,0.4335924714285714,-1.0102104714285716
673,6.730000477,-1.7443831,-3.2459034571428576,-2.389176785714286,1.1363067714285715,0.3789652628571428,-0.17893462
674,6.740000477,-1.6979954,-3.1069596666666666,-2.4803275333333334,0.5121954133333334,0.23247828,0.5781669173333334
675,6.750000477,-1.548417857142857,-2.9455726285714285,-2.3992513571428566,-0.1077272728571428,0.1019896759857142,1.1869198142857142
676,6.760000477,-1.3666549333333335,-2.807978933333333,-2.193237633333333,-0.8740206199999999,-0.0578777751333333,1.8882306333333336
677,6.770000477,-0.9693509928571428,-2.5611598857142854,-1.6135610571428571,-1.7156518,-0.3221783,2.856169057142857
678,6.780000477,-0.5205029416666667,-2.3128889333333333,-0.9821508333333332,-2.1645372000000003,-0.5894676,3.64782705
679,6.790000477,-0.180363316,-2.138966285714286,-0.7145190285714287,-2.1914144714285717,-1.0594709285714283,4.426308085714285
680,6.800000477,0.2456647456666666,-1.8898867333333331,-0.4197500866666666,-2.1441757,-1.4621647,4.973976666666666
681,6.810000477,0.45826716,-1.7530508571428574,-0.2947950814285714,-2.0859998714285717,-1.7846339,5.3369946
682,6.820000477,0.79876174,-1.540586342857143,-0.1372554,-2.0399244285714286,-2.092151885714286,5.692856514285714
683,6.830000477,1.1057047666666666,-1.3728239999999998,-0.0420553,-2.1246285333333335,-2.076677133333334,5.904500333333334
684,6.840000477,1.350083157142857,-1.2662803142857142,0.0723909857142857,-2.2247493428571428,-1.9534022714285717,5.974369714285714
685,6.850000477,1.5741873999999998,-1.1707593333333333,0.30930667,-2.2895572666666664,-1.7431545,5.855225533333333
686,6.860000477,1.6954299714285714,-1.0712994142857142,0.5297695814285713,-2.25407,-1.5746770285714289,5.638927314285715
687,6.870000477,1.5988259142857142,-0.9220529428571428,0.6614149142857143,-2.0727356571428572,-1.4071302714285712,5.262819842857143
688,6.880000477,1.2555102333333332,-0.761772075,0.5805115333333334,-1.92630675,-1.3218734,5.009405650000001
689,6.890000477,1.1155964428571428,-0.7330436300000001,0.5229268571428571,-1.9847735857142856,-1.3446493571428573,5.0245895
690,6.900000477,1.0408330166666666,-0.7436308083333333,0.4603978166666667,-2.158225116666667,-1.3778677666666663,5.141145216666667
691,6.910000477,1.0535457428571429,-0.7758553714285714,0.4248331728571428,-2.362277257142857,-1.387583157142857,5.242051142857143
692,6.920000477,1.0987074,-0.8205204583333333,0.4011362133333333,-2.6784634,-1.35302675,5.347815033333333
693,6.930000477,1.120130657142857,-0.8481984357142858,0.4193145214285714,-2.909334571428571,-1.3191683142857145,5.4008714
694,6.940000477,1.1257059,-0.8698526000000001,0.46687175,-3.19518935,-1.30110465,5.4589892
695,6.950000477,1.1195034857142858,-0.8765581571428572,0.5044850142857144,-3.4244316571428572,-1.3158522571428573,5.505413714285715
696,6.960000477,1.0138570571428571,-0.8882313000000001,0.5599106857142858,-3.865637871428571,-1.325102242857143,5.6354370000000005
697,6.970000477,0.8907786,-0.9197081333333332,0.7137154233333334,-4.158088433333334,-1.2622140666666668,5.905315000000001
698,6.980000477,0.9242656114285712,-0.9433738314285716,0.8309848999999999,-4.202301942857143,-1.2394091,6.214170914285715
699,6.990000477,1.150839495,-0.9927764216666666,0.8810676833333333,-4.0951710666666665,-1.2282102666666668,6.59720135
700,7.000000477,1.4076256857142857,-1.0471734714285714,0.8465781285714284,-4.018698685714286,-1.2050271428571429,6.723966585714286
701,7.010000477,1.5900230857142856,-1.0358052142857144,0.8376490714285715,-3.961802571428571,-1.2092158000000002,6.6929006428571425
702,7.020000477,1.7379266333333334,-0.9416809866666668,0.7459073333333334,-3.929631333333333,-1.2626213,6.48562
703,7.030000477,1.6894147857142856,-0.8418609885714285,0.5618141,-4.0185242,-1.2605269428571428,6.266005828571428
704,7.040000477,1.4462225666666668,-0.6939022766666666,0.4475159333333333,-4.2989904333333335,-1.2133462333333334,6.058841166666666
705,7.050000477,1.1915938999999998,-0.56893563,0.584028,-4.6141877,-1.1832111,6.0173035
706,7.060000477,1.1503516833333334,-0.5359153916666667,0.7866973366666666,-4.642490116666667,-1.305584216666667,6.2783389666666665
707,7.070000477,1.500322742857143,-0.4742872428571428,0.9182635285714286,-4.563574428571429,-1.3081729714285717,6.715414628571429
708,7.080000477,2.000137,-0.150557564,0.8115615866666666,-4.740429,-0.920954,6.902624733333333
709,7.090000477,2.810298914285714,0.5161538154285714,0.9297667714285712,-5.223987571428571,-0.0633317642857142,6.441057028571429
710,7.100000477,3.261013514285714,1.1045853571428572,1.665097157142857,-5.501312142857143,0.5196346942857143,5.0546082142857145
711,7.110000477,2.776920133333333,1.2221241333333337,2.229367933333333,-5.046260083333333,0.3218656166666667,3.374040283333333
712,7.120000477,1.9010691285714283,1.2514841285714284,2.645581214285714,-4.132839914285714,-0.3990141657142857,2.896245057142857
713,7.130000477,1.47578735,1.31120455,2.6986788500000003,-3.0069721,-1.1490037,3.14441265
714,7.140000477,1.3590862428571426,1.378839185714286,2.5691221142857144,-1.9901841085714285,-1.6188325,3.5939853142857143
715,7.150000477,1.7496650333333337,1.4835723333333333,1.7414430666666665,-0.5897730266666666,-1.4751961333333334,4.286976933333333
716,7.160000477,1.669788157142857,2.151375542857143,0.0528166599999999,-0.9861255885714284,-1.2371402142857144,4.706250857142857
717,7.170000477,2.1948319285714284,2.402496457142857,-0.4061430328571428,-2.561347985714286,-1.5465779714285712,5.217093928571429
718,7.180000477,3.623636283333333,2.4825686333333334,0.3808098166666666,-4.478172033333333,-1.7069108,5.4891245
719,7.190000477,4.849825914285715,2.531349771428572,2.0230188285714283,-5.911801657142857,-1.2767580857142855,4.953905857142857
720,7.200000477,5.602105466666667,2.630499,3.7031837333333337,-5.907962,-0.816091975,3.9996752
721,7.210000477,5.542888814285713,2.7947798571428573,4.3413205,-4.754333228571428,-0.2021031671428571,2.421594942857143
722,7.220000477,4.8974506,2.9389113333333334,4.1146405,-3.1427582,0.1656923233333333,0.7418740066666666
723,7.230000477,4.076618614285715,2.987831257142857,3.637015428571429,-2.4530317,0.16185271,-0.07160003
724,7.240000477,3.2708137714285717,2.964153842857143,3.197904285714286,-2.2477870571428573,0.1327065664285714,-0.4393300685714286
725,7.250000477,2.8297688,2.8122067499999996,3.0987935,-2.3278371,0.3953709,-0.5209508933333334
726,7.260000477,2.6884146,2.650768814285714,3.288009757142857,-2.5361069,1.0627651571428571,-0.4538158857142857
727,7.270000477,2.8481133333333335,2.4535780666666667,3.8121738,-2.0855344,1.7461577333333336,-0.5592306666666667
728,7.280000477,2.8322689857142858,2.317687442857143,3.8753655,-1.3467001142857142,2.0577482,-0.9383050142857144
729,7.290000477,2.5487565,2.215068233333333,3.7530441666666663,-0.5812212,2.1664207333333336,-1.3834672666666668
730,7.300000477,2.2358447714285714,2.1684584285714283,3.5991778571428577,0.02264497,2.1792193714285717,-1.6826660714285713
731,7.310000477,1.8526908714285713,2.099669457142857,3.359203142857143,0.9933685228571428,2.1336676857142858,-2.014268714285714
732,7.320000477,1.7649505666666665,1.959219933333333,3.2414289333333333,1.7489575333333336,2.0552466000000003,-2.2171718666666664
733,7.330000477,1.7548933428571427,1.7713271714285714,3.0542199714285716,2.627734085714286,1.9443050571428573,-2.4938493142857143
734,7.340000477,1.7616068666666669,1.5824907,2.8150931333333333,3.17523505,1.8772863333333332,-2.693072766666667
735,7.350000477,1.6834257714285712,1.1581077000000002,2.2676540285714286,4.002903871428572,1.7788526428571427,-3.160371028571429
736,7.360000477,1.5931982857142857,0.7672573,1.817993657142857,4.7598308000000005,1.5664522857142855,-3.685699742857143
737,7.370000477,1.622665866666667,0.4573640666666667,1.5494704666666668,4.972754733333334,1.4150786,-3.9414412
738,7.380000477,1.7421095142857144,0.1357701114285714,1.2706882571428573,4.946750085714286,1.2439250285714285,-4.2790943285714285
739,7.390000477,1.8550981333333336,-0.104040628,1.0317573333333334,4.6885071,1.2644029333333335,-4.5009772
740,7.400000477,1.9595830142857145,-0.3039724371428571,0.8907009142857143,4.180223971428571,1.7559895714285714,-4.7628853
741,7.410000477,2.02306015,-0.416777365,0.91749253,3.7107444666666662,2.1480953333333335,-4.875630233333333
742,7.420000477,2.073931971428572,-0.5650721842857143,1.0566949,3.459948,2.4917986857142855,-4.941601685714287
743,7.430000477,2.070377742857143,-0.6958071571428571,1.1492613142857142,3.340919857142857,3.0190471142857143,-5.036370285714286
744,7.440000477,1.990847933333333,-0.8361768199999999,1.2469223333333332,3.3865879999999997,3.3423017,-5.092684599999999
745,7.450000477,1.8564150857142856,-0.9580654714285712,1.416032,3.726975428571429,3.528144714285714,-5.113860571428572
746,7.460000477,1.8255080833333333,-1.03320055,1.5340884166666668,4.191888466666667,3.296895316666667,-5.049518166666667
747,7.470000477,1.8817430714285712,-1.1883924428571428,1.5679137857142855,4.936453271428571,2.756382885714286,-4.942125142857143
748,7.480000477,2.0355709166666665,-1.3419126833333337,1.3906299333333332,5.577086333333334,2.2649708,-4.9432306666666666
749,7.490000477,2.046953,-1.4142419714285714,1.2172531285714283,6.060237428571428,1.883045771428571,-5.030959785714286
750,7.500000477,1.9475134,-1.4158535714285716,1.0154642571428572,6.295675571428572,1.6259662714285714,-5.132011428571429
751,7.510000477,1.829537566666667,-1.3726258,0.8804426416666667,6.3948072,1.4488787666666667,-5.155398066666667
752,7.520000477,1.7535299428571427,-1.3667609714285711,0.8302792714285714,6.421509985714286,1.334679457142857,-5.0649925428571425
753,7.530000477,1.7019793333333333,-1.3524875333333333,0.82536318,6.443675,1.2481137,-4.939565333333333
754,7.540000477,1.7133055285714285,-1.3329436571428572,0.8450362585714285,6.558165128571429,0.9849257985714288,-4.732692028571429
755,7.550000477,1.81562425,-1.3446516,0.772301175,6.68557045,0.562132195,-4.6392324
756,7.560000477,1.8645426285714284,-1.3385013714285716,0.6181153142857143,6.6731791000000005,0.1779092635714285,-4.806168185714286
757,7.570000477,1.7181273142857143,-1.3160044285714283,0.4362231785714286,6.5408873000000005,-0.0444391378571428,-4.982790271428572
758,7.580000477,1.3853044833333332,-1.1672988,0.327036345,6.214200166666667,-0.2504982766666666,-5.132389666666666
759,7.590000477,1.146695871428571,-1.0322553357142856,0.2556246742857143,5.961280114285715,-0.1700991414285714,-5.005653285714286
760,7.600000477,1.0687615666666666,-0.90856925,0.20289802,5.733870499999999,0.01786728,-4.726583199999999
761,7.610000477,1.230124042857143,-0.8608820714285714,0.1495383442857142,5.504715571428571,0.2271260985714285,-4.420636028571429
762,7.620000477,1.565579157142857,-0.9168174571428572,0.1407878271428571,5.440140142857142,0.2199704685714285,-4.499348299999999
763,7.630000477,1.71886555,-1.01749843,0.220988515,5.559168,0.0333420866666666,-4.7774874333333335
764,7.640000477,1.5132677714285714,-1.275941157142857,0.0368532214285714,6.054652428571429,-0.7586723,-5.784221814285715
765,7.650000477,0.7888061833333334,-1.82020775,-0.7855742499999999,6.320691083333333,-1.445061,-7.007079966666667
766,7.660000477,0.4887393171428571,-2.307887142857143,-1.2966043514285714,5.983794414285714,-1.2875787285714286,-7.3690213
767,7.670000477,0.1221006233333333,-2.6470039333333335,-1.5775005333333334,5.163339133333333,-0.9445734666666666,-7.857938999999999
768,7.680000477,-1.4337553057142856,-3.1452270142857146,-1.9827724285714283,4.174813757142857,-0.8112924357142857,-7.918325857142856
769,7.690000477,-2.6124847,-3.241866,-2.03485965,3.25138725,-1.012173935,-7.1694381
770,7.700000477,-3.449547857142857,-3.2465309,-1.7134842428571428,2.0636383714285715,-1.5251111000000002,-5.175818114285714
771,7.710000477,-2.995714857142857,-3.1781514142857143,-1.168735457142857,1.5000227000000002,-1.7526953285714286,-3.3654412857142857
772,7.720000477,-2.3543905,-3.103367,-0.82096255,1.39364805,-1.67860825,-2.49210415
773,7.730000477,-1.6200902485714284,-3.1227170285714285,-0.6694467571428572,1.4499333,-1.470134777142857,-2.240086014285714
774,7.740000477,-0.4625371266666667,-3.3211287499999997,-0.6286240733333334,1.73755505,-0.5586961716666666,-2.296022133333333
775,7.750000477,-1.6144496657142855,-3.6817262,-1.312794448571429,1.5935695857142858,0.2566212985714285,-3.408200514285714
776,7.760000477,-2.5759836666666667,-3.752444466666667,-1.4942131666666665,1.1865707666666667,0.2328855166666666,-3.1424527333333336
777,7.770000477,-3.277273214285714,-3.8114112857142857,-1.5539799714285714,0.7008599542857142,-0.1434836628571428,-2.1748997714285716
778,7.780000477,-3.0773542999999997,-3.827936866666666,-1.3896847333333333,0.1269544233333333,-0.6289690866666666,-0.601582736
779,7.790000477,-2.421469642857143,-3.7500490857142856,-1.1167202285714286,-0.2813824285714285,-0.7447973571428571,0.7111571274285714
780,7.800000477,-1.9951469,-3.578151,-0.9688523,-0.573891015,-0.53082627,1.5744588000000002
781,7.810000477,-1.6502487428571428,-3.3187564142857147,-0.8205705428571429,-0.8829797142857144,-0.2164362671428571,2.374756
782,7.820000477,-1.336763542857143,-2.9614707571428576,-0.6385912514285714,-1.1936391714285717,-0.0575287224285714,3.091956142857143
783,7.830000477,-0.89598215,-2.6192992,-0.4812475999999999,-1.7680974,-0.033443887,4.1859835
784,7.840000477,-0.5743323,-2.4256597,-0.38361996,-2.1950796285714285,-0.022797691,4.8778117142857145
785,7.850000477,0.3558591824,-2.13242625,0.0959202329999999,-2.769887,0.02764083878,5.5750505
786,7.860000477,0.9634621428571428,-1.889304557142857,0.4631062742857143,-3.064511685714286,-0.1243728601257142,5.811186285714285
787,7.870000477,1.4676162,-1.5858852,0.9420366,-3.0417649333333334,-0.31168481,5.7578971999999995
788,7.880000477,1.5242614857142858,-1.4323047714285717,1.0417376,-2.800167514285714,-0.4023738114285714,5.5808095
789,7.890000477,1.5187878666666668,-1.2377958,1.055275,-2.5245298666666667,-0.32547978,5.4207092999999995
790,7.900000477,1.4459641428571428,-1.0732769714285717,0.96052205,-2.3289423428571427,-0.1683538671428571,5.289173628571429
791,7.910000477,1.3894103714285715,-0.99239244,0.8375183442857143,-2.3066028,-0.0214014682857142,5.235070171428572
792,7.920000477,1.3702426333333335,-0.94054268,0.7295547333333333,-2.4426763333333334,0.1713935633333333,5.2020262
793,7.930000477,1.3814831,-0.8993817,0.6491842,-2.6886442,0.40514445,5.1694474
794,7.940000477,1.4219935,-0.9245102,0.70999065,-2.9645690166666667,0.66903046,5.034246666666667
795,7.950000477,1.3220588714285717,-0.9413310285714286,0.7205037285714286,-3.0994607571428574,0.847223342857143,4.899104057142857
796,7.960000477,0.97179448,-0.94437422,0.5971079866666668,-3.2471113499999995,0.94207919,4.90250735
797,7.970000477,0.74463837,-0.9580568085714286,0.554483537142857,-3.4204174285714286,0.7697329757142857,5.1958013
798,7.980000477,0.6347495928571429,-1.010241842857143,0.5790015571428571,-3.543634128571429,0.5051488642857144,5.6473048
799,7.990000477,0.6462419783333334,-1.09340725,0.6541794166666667,-3.6144342166666665,0.1648778575,6.261438933333333
800,8.000000477,0.8345565285714286,-1.1375315714285714,0.6698822714285715,-3.6090818857142857,-0.0666041699999999,6.724839428571428
801,8.010000477,1.0662309133333334,-1.185313133333333,0.6265609666666667,-3.6535283333333335,-0.1523554866666666,7.095652666666666
802,8.020000477,1.2729009285714288,-1.208624557142857,0.6553126442857142,-3.7328221142857143,-0.140953004,7.289436571428571
803,8.030000477,1.964017,-1.18077,0.8881005600000001,-3.8247691,-0.1307722193333333,7.300286416666666
804,8.040000477,2.2162529285714285,-1.1694454285714286,1.0094273028571428,-3.6401478714285713,-0.1999433971428571,6.6880137714285715
805,8.050000477,2.2125463714285716,-1.1194207428571428,1.0394682857142856,-3.4732992714285715,-0.3145208885714285,6.2311002
806,8.060000477,1.6521289166666666,-0.9702445833333332,0.8319591166666666,-3.3029021333333333,-0.671728365,5.898188266666666
807,8.070000477,1.2933681428571429,-0.9276499114285714,0.6866602742857142,-3.3427525285714283,-0.9437590628571428,6.064426171428571
808,8.080000477,1.1638686666666669,-0.9588364333333332,0.6282684,-3.5022419666666664,-1.20133295,6.592314416666667
809,8.090000477,1.312594,-1.0530187857142856,0.6175142714285714,-3.618681071428571,-1.2420270285714283,6.9374139857142865
810,8.100000477,1.3807513,-1.0167667,0.5627767499999999,-3.7901546,-1.09769255,7.24266325
811,8.110000477,1.2964780714285715,-0.7897325214285714,0.4343023442857143,-4.087288142857143,-0.6894720285714285,7.474610857142857
812,8.120000477,1.1868898285714289,-0.4862086542857143,0.3292613571428571,-4.5354754,-0.1483922428571428,7.747223142857143
813,8.130000477,1.7187385,-0.35207338,0.41172116,-5.205894666666667,0.3731767816666667,8.103143166666667
814,8.140000477,3.376246542857143,-0.2878783071428571,0.7892664571428571,-6.381630157142857,0.4554084371428571,8.015821428571428
815,8.150000477,4.310308142857143,-0.0839988054285714,1.47915,-6.686704828571428,0.0731925828571428,6.621693542857143
816,8.160000477,3.1049373,0.7276644,2.982735,-5.994091583333334,-0.8075146566666667,4.392653350000001
817,8.170000477,2.0959715857142855,1.3529621857142855,3.807456428571428,-4.278919642857143,-1.5320921571428572,4.047408428571429
818,8.180000477,1.4951991,1.600804766666667,3.839603933333333,-1.7076744,-2.6374348333333333,4.623349999999999
819,8.190000477,1.7760530857142858,1.4405457,2.6121863142857142,0.1376588214285714,-3.4658601142857144,5.533163428571428
820,8.200000477,2.4730812666666666,1.5955097666666669,0.88549882,0.4820602999999999,-3.5329368666666667,6.468108833333333
821,8.210000477,2.864993042857143,1.9136047285714288,0.2326964899999999,-0.4918629571428571,-2.9368663571428573,6.966211171428571
822,8.220000477,3.8956846857142855,2.4750443428571427,-0.1546083135714286,-2.679983285714286,-1.5999835885714286,7.404625085714286
823,8.230000477,6.330414566666666,2.337011316666667,1.9667915691666664,-5.818778466666667,0.9173907866666666,6.275081133333334
824,8.240000477,6.6621219285714295,2.4926324,3.9939177142857143,-6.2177489999999995,2.1628137285714284,4.343407614285715
825,8.250000477,6.21164275,2.6536914,4.921461,-4.248901,2.2156957,2.1138878333333335
826,8.260000477,5.762836,2.729823800000001,5.197468,-3.429144,2.0727575,1.4871076
827,8.270000477,4.0704421,2.8928865285714283,4.377058385714286,0.7509275828571429,0.4953753199999999,0.4172523057142857
828,8.280000477,2.9470266499999997,3.0105008333333334,2.4160353666666667,2.5488620666666666,-0.4151216466666667,0.65350476
829,8.290000477,3.0658409,3.0354601999999997,1.8920747428571427,2.7798132571428575,-0.4302328428571428,1.0853446828571427
830,8.300000477,3.8535327,3.0622214,0.66162395,2.16033775,0.3703261499999999,1.2940799
831,8.310000477,4.425854928571428,3.041836828571429,0.0666763651428571,0.7561853028571429,1.4339857714285713,0.9038357857142856
832,8.320000477,4.2770942,2.98145445,0.396349382,-0.7296570225,2.1509459,-0.0113006499999999
833,8.330000477,3.6070791142857144,2.926298957142857,1.2145351285714283,-1.707099942857143,2.386209285714286,-1.0657102571428572
834,8.340000477,3.150000966666666,2.7811684,1.7310461333333336,-1.681968,2.0715357,-1.6420592666666665
835,8.350000477,2.8506714285714283,2.6003781714285714,2.0173432857142855,-1.3097001428571429,1.7889752285714289,-2.1557454000000003
836,8.360000477,2.530304342857143,2.451972214285714,2.183528928571428,-0.7866403428571428,1.5020516428571429,-2.631028142857143
837,8.370000477,2.259949,2.18731755,2.2207494333333333,-0.2216357393333333,1.2126845666666668,-3.015803733333333
838,8.380000477,2.1488797857142856,1.9052288285714287,2.2025718285714286,0.3778090174285714,0.9385013571428572,-3.370677
839,8.390000477,2.0835819,1.56121925,2.20204915,0.9630007,0.8266290399999999,-3.6930299
840,8.400000477,2.0365603714285716,1.2445064714285716,2.204767085714286,1.5218386857142858,0.7875348228571427,-3.9946138
841,8.410000477,2.0162108,1.0040133142857142,2.149128,1.9522678,0.8035913857142857,-4.219056428571428
842,8.420000477,2.0099038666666664,0.5138206466666667,1.9572687333333336,2.751306866666667,0.84576895,-4.645137233333333
843,8.430000477,2.0492963714285715,0.0996791697142857,1.7064584285714286,3.2835002857142856,0.8826524642857142,-5.0145544428571425
844,8.440000477,2.1280916333333333,-0.234027891,1.4934915666666668,3.61809925,0.9245682416666666,-5.400348
845,8.450000477,2.169782542857143,-0.4840526442857143,1.337547528571429,3.718074557142857,0.9798644571428572,-5.633080685714286
846,8.460000477,2.1699844,-0.7374109233333334,1.1340906000000002,3.7697929333333335,1.1267586333333333,-5.9446127
847,8.470000477,2.1259777142857144,-0.9205371385714286,0.9613713928571428,3.7011453142857142,1.3907028857142858,-6.153871342857143
848,8.480000477,2.0414127142857144,-1.0937746285714287,0.8764752942857142,3.5498298,1.7298103428571427,-6.262602428571428
849,8.490000477,1.9949233333333336,-1.1803534333333332,0.8635971666666666,3.47129225,1.9072178,-6.275691999999999
850,8.500000477,1.9657114,-1.2309385428571429,0.8777690414285715,3.435688585714286,2.0619366857142856,-6.245149571428572
851,8.510000477,1.9364239833333337,-1.2833624666666668,0.898467075,3.4405463333333333,2.1489097,-6.21888325
852,8.520000477,1.932137957142857,-1.3911090142857143,0.9249102114285714,3.5705985714285715,2.3549688000000004,-6.1215842857142855
853,8.530000477,1.8861517,-1.5309683833333334,0.9311010766666666,3.8247693333333337,2.4600345999999997,-6.0641351666666665
854,8.540000477,1.7884405857142858,-1.5387787714285714,0.9320012314285714,3.990687228571428,2.404011214285714,-6.023848428571428
855,8.550000477,1.6500962666666668,-1.5291034333333335,0.9482972,4.194535466666667,2.269043033333334,-5.917735666666666
856,8.560000477,1.561641614285714,-1.5656313999999998,0.9535704571428572,4.450567771428571,2.037851942857143,-5.739891785714286
857,8.570000477,1.4276965285714287,-1.561510942857143,1.0237836142857142,4.750755457142857,1.7380132285714287,-5.481590557142858
858,8.580000477,1.3023219333333331,-1.5315426,1.1286532333333332,5.046871166666667,1.4346257666666666,-5.226663666666667
859,8.590000477,1.247703485714286,-1.5168960285714286,1.2148748428571428,5.519376028571428,0.9585720942857142,-4.903205514285714
860,8.600000477,1.26615615,-1.5082892499999998,1.2423286,5.95011045,0.53097898,-4.63312385
861,8.610000477,1.5055058857142858,-1.5262345285714285,1.138002042857143,6.232321885714286,0.2307911828571428,-4.561131214285714
862,8.620000477,1.7795376285714286,-1.5550254142857145,0.9981942142857144,6.6625328,-0.2588029057142857,-4.580503685714286
863,8.630000477,1.6718963,-1.458012,0.6328113,6.81466305,-0.4943790699999999,-4.9697004
864,8.640000477,1.521913785714286,-1.3517513142857145,0.5179788428571428,6.745608,-0.5318734085714285,-5.095883828571429
865,8.650000477,1.3449768666666666,-1.17559695,0.3778472666666666,6.5617721,-0.4929537333333333,-5.090851999999999
866,8.660000477,1.1772333285714285,-0.9753443142857144,0.3576558928571428,6.420812,-0.4547321585714286,-4.981568571428572
867,8.670000477,1.1874473,-0.85715365,0.390251435,6.37526,-0.50761406,-4.8359250000000005
868,8.680000477,1.5687544142857142,-0.8779431857142858,0.2788490314285714,6.390094742857142,-0.5940053071428572,-4.825017085714285
869,8.690000477,2.27911685,-1.2799781166666666,-0.5535739616666667,6.052732633333332,-0.45711736,-5.936061133333332
870,8.700000477,2.359967842857143,-1.4857573857142856,-0.9604567285714286,5.687446171428571,-0.35961451,-6.788978428571428
871,8.710000477,1.9293656,-2.0155291500000003,-1.9390613,4.621314300000001,0.17984362,-8.055752
872,8.720000477,0.3664499714285715,-2.879549585714286,-3.1717878,1.3941280071428572,2.508378857142857,-10.446186571428573
873,8.730000477,-1.5792995466666666,-3.4422740333333337,-2.8928314,-0.4175141166666666,3.9240318,-10.61734
874,8.740000477,-4.000068085714285,-3.6015037714285714,-1.4238636071428572,-1.0568093714285711,3.741592057142857,-9.233916142857142
875,8.750000477,-5.127720914285715,-3.281946657142857,-0.3333992557142857,0.2032812514285714,1.1557884285714286,-6.072039714285714
876,8.760000477,-4.0408913,-3.2430855,-0.773017685,1.17618638,-0.0573433,-3.92820585
877,8.770000477,-1.6055292285714284,-3.3079934000000004,-1.6349429714285717,1.920634642857143,-0.5943543857142857,-2.0809820571428572
878,8.780000477,-0.4469366559999999,-3.538346666666667,-2.1325532666666667,1.3535357,0.7691585000000001,-2.9053932
879,8.790000477,-0.6156413074285715,-3.650761757142857,-2.4059765000000004,0.8684066285714286,1.628060614285714,-3.5729546571428576
880,8.800000477,-1.8918025,-3.7399591,-2.5944501,0.18661383,1.8216992,-3.5079429999999996
881,8.810000477,-2.848511257142857,-3.8293002,-2.728360457142857,-0.511061,1.7067726857142858,-2.9309978
882,8.820000477,-3.0291226857142854,-3.8213640571428575,-2.5640128285714283,-1.2662427,1.0924349,-0.8618618771428572
883,8.830000477,-2.5929968333333333,-3.653373766666667,-2.0829163,-1.298763,0.7960867066666667,0.1786728333333333
884,8.840000477,-2.0726209,-3.3996670714285715,-1.9088526,-1.1721722857142856,0.4472056385714286,1.3403298057142856
885,8.850000477,-1.4501557500000002,-3.051880433333334,-1.9887337333333337,-1.2533567499999998,0.1884972916666666,2.55873735
886,8.860000477,-1.0037083857142857,-2.7819174857142857,-1.965062371428571,-1.584232342857143,-0.0303023842857142,3.247503957142857
887,8.870000477,-0.51427798,-2.521071866666667,-1.8017108,-2.0859416,-0.3251234566666666,3.7864895
888,8.880000477,-0.0822521885714285,-2.304293728571429,-1.5648909,-2.5369795714285712,-0.5470573428571429,4.085455685714286
889,8.890000477,0.2637348925,-2.1087509,-1.23572755,-3.2706798,-0.77557238,4.399372866666667
890,8.900000477,0.4809122,-1.958602857142857,-0.8867590571428572,-3.5719074857142856,-0.8381696957142858,4.515841
891,8.910000477,0.7026368428571429,-1.7250309285714285,-0.2483942928571428,-3.9375432,-0.97691936,4.740109142857143
892,8.920000477,0.7556538666666667,-1.5543996333333334,0.1029125033333333,-3.9182288,-1.2060161333333337,5.052979333333333
893,8.930000477,0.8354450714285714,-1.443599,0.3130757485714285,-3.8247982571428567,-1.420045357142857,5.387432771428571
894,8.940000477,0.9354763083333334,-1.3839679333333332,0.4399748666666667,-3.70036,-1.6063246666666666,5.7725574
895,8.950000477,1.0096930285714287,-1.3457840714285716,0.5532683628571429,-3.569115142857143,-1.7825396142857142,6.124114514285714
896,8.960000477,1.2317995000000002,-1.2779811,0.5980125666666667,-3.4291438666666667,-1.9162279,6.377296266666666
897,8.970000477,1.4896644857142858,-1.2364136285714284,0.5621626142857143,-3.3708516285714287,-1.887954357142857,6.4483872714285715
898,8.980000477,1.7116068142857144,-1.1829261857142856,0.5705646742857142,-3.426700457142857,-1.7190114428571428,6.331802585714286
899,8.990000477,1.8008265666666663,-1.1356963333333334,0.628431,-3.500612916666667,-1.5448327166666669,6.1740876
900,9.000000477,1.8011895857142857,-1.0972416571428572,0.6942478257142858,-3.6698176142857144,-1.179720642857143,5.770521371428571
901,9.010000477,1.58310555,-1.01591805,0.7357645066666668,-3.8115342,-1.0879189666666669,5.5546888
902,9.020000477,1.431124442857143,-1.0332310571428571,0.7646744142857144,-3.9780336857142857,-1.1301546857142857,5.499130757142857
903,9.030000477,1.3113468666666666,-1.0856833,0.8017134666666667,-4.087637166666666,-1.1923738666666668,5.523331833333334
904,9.040000477,1.2503473857142855,-1.1391561142857145,0.8877434,-4.225514071428571,-1.3533757000000002,5.751672285714286
905,9.050000477,1.2318707,-1.154427,0.9183462,-4.211726285714286,-1.4153330714285717,5.905082214285714
906,9.060000477,1.2281205,-1.1821523,1.0903278666666667,-4.026145066666667,-1.5399459,6.244131499999999
907,9.070000477,1.3367374428571428,-1.1896905,1.1411467714285717,-3.771741685714286,-1.6703181428571428,6.471948571428571
908,9.080000477,1.5291949,-1.1775178666666666,1.1541019,-3.389642333333333,-1.8030174666666667,6.625300466666666
909,9.090000477,1.676861857142857,-1.1634172571428572,1.0963313428571428,-3.0738925,-1.8837656571428572,6.630768928571428
910,9.100000477,1.7271588,-1.1417283,1.03184372,-2.8114245,-1.96020885,6.56584455
911,9.110000477,1.7451715428571428,-1.0882429714285713,0.9568241314285716,-2.5713615714285716,-2.0528832285714285,6.444896714285714
912,9.120000477,1.6916492285714286,-1.0637684857142855,0.8663528028571428,-2.4334845714285716,-2.1984392285714285,6.349604285714285
913,9.130000477,1.5560765166666666,-1.0576125,0.7983646883333333,-2.4064327000000003,-2.2222623333333336,6.384422916666666
914,9.140000477,1.4859185142857143,-1.0267759142857142,0.7607978742857142,-2.401895042857143,-2.2699956571428572,6.525528528571429
915,9.150000477,1.4218969666666668,-0.9741777416666668,0.61672295,-2.457540416666667,-2.1699330666666667,6.70532125
916,9.160000477,1.4586870571428572,-0.9086592714285714,0.5749115571428572,-2.5507673714285715,-1.8219828,6.896574485714285
917,9.170000477,1.5245880857142855,-0.8873950057142858,0.5658431,-2.642219914285714,-1.3633237714285715,7.088206114285714
918,9.180000477,1.6848238666666668,-0.7762241733333334,0.48094268,-2.74239875,-0.9749122,7.1974607
919,9.190000477,1.8708887714285716,-0.5959668314285713,0.3953976114285714,-2.9196098285714287,-0.6446183771428571,7.134979685714286
920,9.200000477,2.0482466857142856,-0.2167852942857142,0.3230589014285714,-3.390398585714286,-0.3840483942857143,6.862018057142857
921,9.210000477,2.186174266666667,0.2297339216666666,0.2401867783333333,-4.026145433333333,-0.4400136466666666,6.5849845333333334
922,9.220000477,2.736806057142857,0.2275306842857143,0.3585836257142857,-5.1011199142857135,-0.1142720697142857,6.121147714285714
923,9.230000477,3.0165074,0.0717724760666666,0.6798465666666668,-5.6176058,0.3416163023333333,5.557539333333334
924,9.240000477,3.0080718,0.0570721440285714,1.2803186,-5.810400785714285,0.9732323714285716,4.7530243571428565
925,9.250000477,2.4253940714285713,0.4383792171428571,1.9462895714285715,-5.364307771428571,1.2767362142857142,4.250907985714286
926,9.260000477,1.637554883333333,1.1293290666666669,2.5237041333333337,-4.265190083333333,0.4369085,4.562062050000001
927,9.270000477,1.8823616,1.4038492714285713,2.513874885714286,-3.382544842857143,-0.9658804,5.504366457142857
928,9.280000477,2.73691285,1.3737844,2.40960705,-2.84021065,-1.9693716,6.306845200000001
929,9.290000477,3.6462668857142857,1.2924012,2.3314513714285714,-2.5774700000000004,-2.4830942,6.7662024
930,9.300000477,5.682790799999999,1.3856296,2.3785736666666666,-2.7741628666666664,-1.5843341333333332,6.146396066666667
931,9.310000477,6.378368857142858,1.456923042857143,3.0492414285714284,-3.0378088714285716,0.0275972285714285,3.956545028571429
932,9.320000477,6.039834428571429,1.7777126571428572,3.9856374285714287,-2.520966714285714,0.9526381714285712,1.9785779857142856
933,9.330000477,5.174600866666666,1.9863048666666667,4.2521078,-1.1564356833333334,1.0459231999999998,0.5468101
934,9.340000477,4.298356285714285,1.9265801714285715,3.8290301428571425,-0.1178498928571428,0.6213843571428571,0.0807627292857142
935,9.350000477,3.8014820166666663,1.78937265,3.0618656166666667,0.5722620483333333,0.1278197891666666,0.0298297084999999
936,9.360000477,3.7117017571428574,1.7513521857142855,2.760491985714286,0.6186573571428572,0.0513766185714285,0.102055126
937,9.370000477,3.7460417666666666,1.7429879,2.5358999333333334,0.4865398333333333,0.1799454226666666,0.1945548566666667
938,9.380000477,3.891773328571429,1.7722897857142856,2.314455628571429,0.0882674257142857,0.86921386,0.1022296564285714
939,9.390000477,3.821455442857143,1.858997842857143,2.304964642857143,-0.4466602371428571,2.0573990285714285,-0.2937738914285714
940,9.400000477,3.604407366666667,1.8855876333333337,2.5402803,-0.7974611,3.2154490666666664,-0.80071894
941,9.410000477,3.4663215428571426,1.784080557142857,2.6098778571428576,-0.6353248,3.5117390857142854,-1.2178985257142858
942,9.420000477,3.0922433999999996,1.6313858333333335,2.6146546666666666,-0.206364575,3.5815501666666667,-1.85178345
943,9.430000477,2.7383478571428577,1.4978530857142858,2.5053856428571426,0.1725643414285714,3.462173085714286,-2.1927453285714287
944,9.440000477,2.640032,1.4522494,2.4682841,0.29962057,3.417843,-2.2978547
945,9.450000477,2.092805,1.3567211714285714,2.227799842857143,1.1509671571428572,3.1426129,-2.6401036857142857
946,9.460000477,1.8430691285714285,1.231774857142857,2.095845185714286,1.6372015285714288,2.8378873,-2.6819904285714284
947,9.470000477,1.7674607166666665,1.025247791666667,1.9077587000000005,2.2682795,2.430713933333333,-2.7987494666666666
948,9.480000477,1.7736574857142855,0.96763919,1.8241090285714283,2.539837442857143,2.2607238,-2.9231876714285714
949,9.490000477,1.7990075,0.8838625416666667,1.7352942833333334,2.67413655,2.1680495,-3.064264266666666
950,9.500000477,2.0334287142857144,0.3582874571428571,1.3536372714285714,2.8848788714285716,2.039771642857142,-3.7242702428571426
951,9.510000477,2.2005654166666666,-0.0088470666666666,1.1584161666666666,2.67881975,2.4284741333333333,-4.077863533333333
952,9.520000477,2.327034614285714,-0.2830609428571428,1.1182360428571427,2.440705714285714,2.9043824285714286,-4.294103485714286
953,9.530000477,2.498621457142857,-0.4988096057142857,1.236936342857143,2.2496413714285715,3.5068523142857138,-4.533904428571429
954,9.540000477,2.5929968999999997,-0.6645306400000001,1.3699986,2.3605429333333334,3.86742675,-4.797034333333333
955,9.550000477,2.607665142857143,-0.8126475685714285,1.474855157142857,2.639841885714286,4.002336685714286,-5.045620114285714
956,9.560000477,2.4987128333333337,-0.9663368666666666,1.4624938666666667,3.200483333333333,4.051495266666667,-5.378561033333334
957,9.570000477,2.416743842857143,-1.0594085,1.4077694571428572,3.533773214285714,4.0243271,-5.5014867857142855
958,9.580000477,2.305348,-1.2277951666666669,1.2991612,4.14078075,3.92606805,-5.57443925
959,9.590000477,2.2315588142857146,-1.4249916714285715,1.2044213,4.665760442857143,3.787143942857143,-5.511085714285715
960,9.600000477,2.1940478142857143,-1.6427395285714286,1.1238852714285714,5.308720728571429,3.510691885714286,-5.352614514285714
961,9.610000477,2.235882333333333,-1.7417377333333333,1.0652654666666663,5.71493425,3.2706289,-5.2122068
962,9.620000477,2.3261461142857143,-1.8184554285714287,1.0410755714285715,6.091827142857142,2.983967,-5.097978542857143
963,9.630000477,2.555875916666667,-1.9428165666666668,1.0551123333333334,6.68740325,2.413813883333334,-5.022641
964,9.640000477,2.6390520428571427,-2.0264988857142856,1.0363278285714286,7.1351540714285715,2.001201085714286,-5.040035571428571
965,9.650000477,2.658407066666667,-2.0466437333333336,0.9670889666666668,7.680946033333334,1.3096056,-5.2625
966,9.660000477,2.573913142857143,-2.0886844285714288,0.7950420571428571,8.102714299999999,0.7044595857142857,-5.5437223285714285
967,9.670000477,2.3770681714285717,-2.1197098714285714,0.6061503642857142,8.335883285714285,0.1656923182857142,-5.821919800000001
968,9.680000477,2.2402629,-2.1154588000000003,0.5220325,8.372883,-0.2790808465,-6.0026434
969,9.690000477,1.9699972714285712,-2.0672155714285716,0.3859937628571428,8.246350285714286,-0.7718491428571428,-6.082489871428571
970,9.700000477,1.7233017333333331,-1.9761112,0.19062088,8.005153333333332,-0.9848894,-5.999181833333334
971,9.710000477,1.6311970857142857,-1.8299673428571428,-0.0029749085714285,7.569597285714286,-0.9619099285714288,-5.826457571428571
972,9.720000477,1.6514938500000005,-1.6100888333333334,-0.2450803616666667,7.0402689999999994,-0.8395077666666667,-5.689278466666667
973,9.730000477,1.725532,-1.5168872714285715,-0.3471151885714286,6.561481171428571,-0.7620755857142857,-5.659608685714285
974,9.740000477,1.8793606285714284,-1.402320442857143,-0.4263706714285714,5.6776726,-0.6231514714285715,-5.869740285714286
975,9.750000477,2.0105441666666666,-1.3957724000000002,-0.3626532666666666,5.2541518,-0.5454865999999999,-6.093252333333333
976,9.760000477,2.143217414285714,-1.6737038571428573,-0.2922252342857143,5.161070314285714,-0.5775996857142857,-6.873973371428571
977,9.770000477,2.0435746333333333,-2.0153207666666666,-0.4107251999999999,5.16395025,-0.580915725,-7.7552403
978,9.780000477,0.82650296,-2.5626059857142858,-1.0109736428571428,5.038028428571429,-0.4861471414285714,-8.486064428571428
979,9.790000477,-1.1798859066666665,-2.7124957333333337,-1.6797626,4.1688799,-0.40743512,-8.98250875
980,9.800000477,-3.4163100428571425,-2.495868742857143,-1.9486284285714288,2.5910395142857143,-0.8540517485714286,-7.2885202142857155
981,9.810000477,-3.6740355333333334,-2.5226168,-1.8217119666666663,1.9635684666666664,-1.0769237333333332,-6.372613
982,9.820000477,-3.4295727428571428,-2.6499935,-1.4959584428571429,1.545749,-1.235744,-5.659957999999999
983,9.830000477,-2.174464885714286,-3.1852948142857143,-0.4680325285714285,0.7191853785714286,-1.166107442857143,-3.4764407142857143
984,9.840000477,-2.4273672666666664,-3.2505199833333336,-0.3798036583333333,1.0198095083333334,-0.4986549916666667,-2.9842434000000004
985,9.850000477,-2.572859128571429,-3.2667978714285715,-0.4126285957142857,1.1420662285714285,-0.3181641585714286,-2.7694288285714284
986,9.860000477,-2.7421822,-3.2893281,-0.5908169733333334,1.2578363666666668,-0.2252499233333333,-2.1739545
987,9.870000477,-2.763719571428571,-3.308084942857143,-0.7981519457142857,1.242419757142857,-0.2416555428571428,-1.7322318857142858
988,9.880000477,-2.6304889333333334,-3.309176766666667,-0.9346784666666668,0.88420142,-0.3365004949999999,-1.08089418
989,9.890000477,-2.323789857142857,-3.3213348714285713,-0.9985555885714286,0.4460493714285714,-0.3562548585714286,-0.5922164
990,9.900000477,-2.1009980714285716,-3.3722307285714286,-0.93981966,-0.3009295285714286,-0.1676557585714286,-0.1576422214285714
991,9.910000477,-2.1401198666666668,-3.34102315,-0.88718591,-0.5724656666666667,-0.06642964,0.070145625
992,9.920000477,-2.3420441857142857,-3.136803142857143,-0.59947748,-1.293818142857143,0.2403902071428571,1.2401508714285714
993,9.930000477,-2.1232843,-3.0224222,-0.4934637666666666,-1.4156385333333332,0.2699435933333333,2.0262822333333337
994,9.940000477,-1.8291049,-2.8897895714285715,-0.4518382214285714,-1.5039495857142855,0.36797004,2.838018185714286
995,9.950000477,-1.2378771,-2.6227139,-0.4153596,-1.6318785,0.6500942,4.15971725
996,9.960000477,-0.7912047,-2.4226151714285713,-0.3709711271428571,-1.7409583285714283,0.8400677028571428,5.116216942857142
997,9.970000477,-0.2806697012,-2.189727057142857,-0.2863320471428571,-1.840439142857143,0.8060347771428571,5.724097085714285
998,9.980000477,0.16415592395,-1.9658617000000005,-0.168150065,-1.97578545,0.57434912,6.5585142
999,9.990000477,0.5443784714285714,-1.764170942857143,-0.0419362464285714,-2.0322451285714287,0.1988525942857142,7.089951314285714
