id,timestamp,acc_x,acc_y,acc_z,gyro_x,gyro_y,gyro_z
1,0.01,0.5723142,0.8180799,0.1666911,-0.0061086523,-0.004276057,0.014049901
2,0.02,0.5723142,0.8180799,0.1666911,0.0020584847169928,-0.0143279175563465,-0.0142209590323092
3,0.03,0.5723142,0.8180799,0.1666911,0.009773844,-0.023823744,-0.040927973
4,0.04,0.5723142,0.8180799,0.1666911,0.0093883379598003,0.0090727669426788,-0.0375869207918432
5,0.05,0.5723142,0.8180799,0.1666911,0.007941248,0.13255776,-0.025045475
6,0.06,0.5723142,0.8180799,0.1666911,0.007941248,0.13255776,-0.025045475
7,0.07,0.5723142,0.8180799,0.1666911,0.007941248,0.13255776,-0.025045475
8,0.08,0.5723142,0.8180799,0.1666911,0.007941248,0.13255776,-0.025045475
9,0.09,0.5723142,0.8180799,0.1666911,0.007941248,0.13255776,-0.025045475
10,0.1,0.5723142,0.8180799,0.1666911,0.007941248,0.13255776,-0.025045475
11,0.11,0.5723142,0.8180799,0.1666911,0.007941248,0.13255776,-0.025045475
12,0.12,0.5647612093494817,0.811751684735087,0.1793474970728736,0.007941248,0.13255776,-0.025045475
13,0.13,0.5632841,0.8105141,0.18182266,0.0170365235866813,0.03369607027586,-0.028999942899696
14,0.14,0.5632841,0.8105141,0.18182266,-0.0022877024300138,-0.0171577959010473,-0.004147314555999
15,0.15,0.5632841,0.8105141,0.18182266,-0.032375857,-0.013439035,0.029321533
16,0.16,0.5632841,0.8105141,0.18182266,-0.032375857,-0.013439035,0.029321533
17,0.17,0.5632841,0.8105141,0.18182266,-0.032375857,-0.013439035,0.029321533
18,0.18,0.5632841,0.8105141,0.18182266,-0.032375857,-0.013439035,0.029321533
19,0.19,0.5632841,0.8105141,0.18182266,-0.032375857,-0.013439035,0.029321533
20,0.2,0.5632841,0.8105141,0.18182266,-0.032375857,-0.013439035,0.029321533
21,0.21,0.5632841,0.8105141,0.18182266,-0.032375857,-0.013439035,0.029321533
22,0.22,0.5632841,0.8105141,0.18182266,0.0077414911772898,-0.0148223920159077,0.0016543957012936
23,0.23,0.5632841,0.8105141,0.18182266,0.02076942,-0.015271631,-0.007330383
24,0.24,0.5667982251025433,0.8060698201161568,0.183889776968309,0.02076942,-0.015271631,-0.007330383
25,0.25,0.5681766084430615,0.7920931242021781,0.1846487647706143,0.0151848692642203,-0.0163003640239441,-0.0058607644802868
26,0.26,0.55742675,0.7670719,0.17816179,-0.002443461,-0.019547688,-0.0012217305
27,0.27,0.55742675,0.7670719,0.17816179,-0.002443461,-0.019547688,-0.0012217305
28,0.28,0.55742675,0.7670719,0.17816179,-0.002443461,-0.019547688,-0.0012217305
29,0.29,0.55742675,0.7670719,0.17816179,-0.002443461,-0.019547688,-0.0012217305
30,0.3,0.55742675,0.7670719,0.17816179,0.0016162726339317,-0.019397327312711,-0.0036274984198294
31,0.31,0.55742675,0.7670719,0.17816179,0.0104051552818523,-0.0190718127458444,-0.0088357248287715
32,0.32,0.55742675,0.7670719,0.17816179,0.014049901,-0.018936822,-0.010995574
33,0.33,0.55742675,0.7670719,0.17816179,0.014049901,-0.018936822,-0.010995574
34,0.34,0.3612333548204429,0.7598859487329161,0.2730832890187233,0.014049901,-0.018936822,-0.010995574
35,0.35,-0.30214286,0.73558855,0.5940353,0.014049901,-0.018936822,-0.010995574
36,0.36,-0.30214286,0.73558855,0.5940353,0.014049901,-0.018936822,-0.010995574
37,0.37,-0.30214286,0.73558855,0.5940353,0.014049901,-0.018936822,-0.010995574
38,0.38,-0.30214286,0.73558855,0.5940353,0.014049901,-0.018936822,-0.010995574
39,0.39,-0.30214286,0.73558855,0.5940353,0.0138614615140629,-0.0221402918727725,-0.0161776577810329
40,0.4,-0.30214286,0.73558855,0.5940353,0.01282817,-0.03970624,-0.044593163
41,0.41,-0.30214286,0.73558855,0.5940353,0.0112553378993388,-0.0395032940028728,-0.0434262230181782
42,0.42,-0.30214286,0.73558855,0.5940353,-0.0189277479296712,-0.0356087038254683,-0.0210323199348022
43,0.43,-0.30214286,0.73558855,0.5940353,-0.025045475,-0.03481932,-0.016493361
44,0.44,-0.30214286,0.73558855,0.5940353,-0.025045475,-0.03481932,-0.016493361
45,0.45,-0.30214286,0.73558855,0.5940353,-0.025045475,-0.03481932,-0.016493361
46,0.46,-0.30214286,0.73558855,0.5940353,-0.025045475,-0.03481932,-0.016493361
47,0.47,-0.30214286,0.73558855,0.5940353,-0.025045475,-0.03481932,-0.016493361
48,0.48,-0.30214286,0.73558855,0.5940353,-0.025045475,-0.03481932,-0.016493361
49,0.49,-0.30214286,0.73558855,0.5940353,-0.025045475,-0.03481932,-0.016493361
50,0.5,-0.30214286,0.73558855,0.5940353,-0.025045475,-0.03481932,-0.016493361
51,0.51,-0.30214286,0.73558855,0.5940353,-0.025045475,-0.03481932,-0.016493361
52,0.52,-0.30214286,0.73558855,0.5940353,0.0488523462849943,0.0127835726691491,-0.0772437142662626
53,0.53,-0.30214286,0.73558855,0.5940353,0.07452556,0.029321533,-0.0983493
54,0.54,-0.30214286,0.73558855,0.5940353,0.07452556,0.029321533,-0.0983493
55,0.55,-0.30214286,0.73558855,0.5940353,0.07452556,0.029321533,-0.0983493
56,0.56,-0.30214286,0.73558855,0.5940353,0.07452556,0.029321533,-0.0983493
57,0.57,-0.30214286,0.73558855,0.5940353,0.07452556,0.029321533,-0.0983493
58,0.58,0.0883920732017143,0.7667569734512557,0.4089932646495459,0.07452556,0.029321533,-0.0983493
59,0.59,0.5693855,0.80514485,0.18109047,0.07452556,0.029321533,-0.0983493
60,0.6,0.5693855,0.80514485,0.18109047,0.07452556,0.029321533,-0.0983493
61,0.61,0.5693855,0.80514485,0.18109047,0.07452556,0.029321533,-0.0983493
62,0.62,0.5693855,0.80514485,0.18109047,0.0546762975524075,-0.0115445937321361,-0.0936788875551465
63,0.63,0.5693855,0.80514485,0.18109047,0.04337143,-0.03481932,-0.09101892
64,0.64,0.5693855,0.80514485,0.18109047,0.04337143,-0.03481932,-0.09101892
65,0.65,0.5693855,0.80514485,0.18109047,0.04337143,-0.03481932,-0.09101892
66,0.66,0.5693855,0.80514485,0.18109047,0.04337143,-0.03481932,-0.09101892
67,0.67,0.5693855,0.80514485,0.18109047,0.04337143,-0.03481932,-0.09101892
68,0.68,0.5693855,0.80514485,0.18109047,0.04337143,-0.03481932,-0.09101892
69,0.69,0.5709366576436465,0.8019779360259467,0.181607520341055,0.04337143,-0.03481932,-0.09101892
70,0.7,0.5784626348938855,0.7866125586770923,0.1841161687172834,0.04337143,-0.03481932,-0.09101892
71,0.71,0.58110034,0.7812273,0.1849954,0.04337143,-0.03481932,-0.09101892
72,0.72,0.5832664816698341,0.7816007769231212,0.185592953895393,0.04337143,-0.03481932,-0.09101892
73,0.73,0.587669486370061,0.7823599242452146,0.1868075709477745,0.04337143,-0.03481932,-0.09101892
74,0.74,0.5814456446926725,0.7812868359647777,0.185090656080005,0.04337143,-0.03481932,-0.09101892
75,0.75,0.58110034,0.7812273,0.1849954,0.04337143,-0.03481932,-0.09101892
76,0.76,0.58110034,0.7812273,0.1849954,0.04337143,-0.03481932,-0.09101892
77,0.77,0.58110034,0.7812273,0.1849954,0.0518557234485122,-0.0571612921304611,-0.1167546030283443
78,0.78,0.58110034,0.7812273,0.1849954,0.06169739,-0.08307768,-0.14660765
79,0.79,0.5576158951846377,0.8026987817775441,0.2007811822799612,0.06169739,-0.08307768,-0.14660765
80,0.8,0.41880223,0.92961407,0.294089,0.06169739,-0.08307768,-0.14660765
81,0.81,0.41880223,0.92961407,0.294089,0.06169739,-0.08307768,-0.14660765
82,0.82,0.41880223,0.92961407,0.294089,0.06169739,-0.08307768,-0.14660765
83,0.83,0.41880223,0.92961407,0.294089,0.06169739,-0.08307768,-0.14660765
84,0.84,0.4601348310206281,0.8965843525797594,0.2663925235839423,0.06169739,-0.08307768,-0.14660765
85,0.85,0.5788401312126433,0.8017245464022991,0.1868495365459772,0.06169739,-0.08307768,-0.14660765
86,0.86,0.5852493,0.79660285,0.18255483,0.06169739,-0.08307768,-0.14660765
87,0.87,0.5865967592997111,0.7955441432463111,0.1858272260860605,0.06169739,-0.08307768,-0.14660765
88,0.88,0.5776675348619305,0.7945209039152944,0.2011482306183823,0.06169739,-0.08307768,-0.14660765
89,0.89,0.5352176,0.7968469,0.24088451,0.0610477885505484,-0.0828658533421462,-0.1464876149408887
90,0.9,0.5352176,0.7968469,0.24088451,0.0165684566020038,-0.0683617166315765,-0.1382686073568072
91,0.91,0.5352176,0.7968469,0.24088451,0.005497787,-0.064751714,-0.13622294
92,0.92,0.5352176,0.7968469,0.24088451,0.005497787,-0.064751714,-0.13622294
93,0.93,0.5352176,0.7968469,0.24088451,0.005497787,-0.064751714,-0.13622294
94,0.94,0.5166240859513656,0.7960189108390879,0.2476533133330339,0.005497787,-0.064751714,-0.13622294
95,0.95,-0.1742831959177563,0.7652520671382952,0.4991719611852188,0.005497787,-0.064751714,-0.13622294
96,0.96,-0.34168017,0.7577977,0.56011134,0.005497787,-0.064751714,-0.13622294
97,0.97,-0.0010655971233705,0.7754188437631083,0.4183248620044151,0.005497787,-0.064751714,-0.13622294
98,0.98,0.5735345,0.80514485,0.17913802,0.005497787,-0.064751714,-0.13622294
99,0.99,0.5735345,0.80514485,0.17913802,0.005497787,-0.064751714,-0.13622294
100,1.0,0.5735345,0.80514485,0.17913802,0.005497787,-0.064751714,-0.13622294
101,1.01,0.5735345,0.80514485,0.17913802,0.005497787,-0.064751714,-0.13622294
102,1.02,0.5735345,0.80514485,0.17913802,0.005497787,-0.064751714,-0.13622294
103,1.03,0.5735345,0.80514485,0.17913802,0.005497787,-0.064751714,-0.13622294
104,1.04,0.5735345,0.80514485,0.17913802,0.005497787,-0.064751714,-0.13622294
105,1.05,0.5735345,0.80514485,0.17913802,0.005497787,-0.064751714,-0.13622294
106,1.06,0.5735345,0.80514485,0.17913802,0.005497787,-0.064751714,-0.13622294
107,1.07,0.599214784706488,0.7821013921943123,0.1996592961654553,0.005497787,-0.064751714,-0.13622294
108,1.08,0.6282034,0.7560893,0.22282428,0.005497787,-0.064751714,-0.13622294
109,1.09,0.6282034,0.7560893,0.22282428,0.005497787,-0.064751714,-0.13622294
110,1.1,0.6282034,0.7560893,0.22282428,0.005497787,-0.064751714,-0.13622294
111,1.11,0.63703189991375,0.7496294069507706,0.2290688403399412,0.005497787,-0.064751714,-0.13622294
112,1.12,0.6382097,0.7487676,0.22990192,0.005497787,-0.064751714,-0.13622294
113,1.13,0.6382097,0.7487676,0.22990192,0.005497787,-0.064751714,-0.13622294
114,1.14,0.6382097,0.7487676,0.22990192,0.005497787,-0.064751714,-0.13622294
115,1.15,0.6382097,0.7487676,0.22990192,0.005497787,-0.064751714,-0.13622294
116,1.16,0.6382097,0.7487676,0.22990192,-0.0441660833328717,-0.3203309087616906,-0.4198514922426006
117,1.17,0.6358915206469977,0.7487676,0.2286169853710123,-0.17837265,-1.010982,-1.1863003
118,1.18,0.6019025776928187,0.7487676,0.2097773862054227,-0.17837265,-1.010982,-1.1863003
119,1.19,0.5954997,0.7487676,0.20622836,-0.1697529941565181,-1.0223442190937353,-1.2004051657246535
120,1.2,0.5954997,0.7487676,0.20622836,-0.16493362,-1.028697,-1.2082914
121,1.21,0.5954997,0.7487676,0.20622836,-0.16493362,-1.028697,-1.2082914
122,1.22,0.5954997,0.7487676,0.20622836,-0.16493362,-1.028697,-1.2082914
123,1.23,0.5954997,0.7487676,0.20622836,-0.16493362,-1.028697,-1.2082914
124,1.24,0.5954997,0.7487676,0.20622836,-0.16493362,-1.028697,-1.2082914
125,1.25,0.5572554753193911,0.7553273012332925,0.1916237790938989,-0.16493362,-1.028697,-1.2082914
126,1.26,0.5451587623170894,0.7496340560028413,0.191462896508301,-0.16493362,-1.028697,-1.2082914
127,1.27,0.5854933,0.7302193,0.21403822,-0.2971440908838177,-1.1651135332773197,-1.1707172882147865
128,1.28,0.5806184586055574,0.7321371652833024,0.2106963867028729,-0.7199800735316074,-1.5867211841918358,-1.0173027565994583
129,1.29,0.4338502924743217,0.7898788532155379,0.1100829092890671,-0.0877431653738163,-0.4923906900130586,-0.1960714672470928
130,1.3,0.3758433925723051,0.8003590732024207,0.0930509938783698,0.0580322,-0.24007004,-0.0067195175
131,1.31,0.36462155,0.7990434,0.0959145,0.0580322,-0.24007004,-0.0067195175
132,1.32,0.4167821112955474,0.786515044111621,0.1232639963850185,0.0580322,-0.24007004,-0.0067195175
133,1.33,0.520086,0.76170266,0.17742962,0.0580322,-0.24007004,-0.0067195175
134,1.34,0.520086,0.76170266,0.17742962,0.0580322,-0.24007004,-0.0067195175
135,1.35,-0.1286822905311195,0.7444904786549713,0.476468272634847,0.0580322,-0.24007004,-0.0067195175
136,1.36,-0.31703037,0.7394935,0.5632841,0.0580322,-0.24007004,-0.0067195175
137,1.37,-0.31703037,0.7394935,0.5632841,0.0580322,-0.24007004,-0.0067195175
138,1.38,-0.31703037,0.7394935,0.5632841,0.0580322,-0.24007004,-0.0067195175
139,1.39,-0.31703037,0.7394935,0.5632841,0.0580322,-0.24007004,-0.0067195175
140,1.4,-0.31703037,0.7394935,0.5632841,0.0580322,-0.24007004,-0.0067195175
141,1.41,-0.31703037,0.7394935,0.5632841,0.0580322,-0.24007004,-0.0067195175
142,1.42,-0.31703037,0.7394935,0.5632841,0.0580322,-0.24007004,-0.0067195175
143,1.43,0.1955041543023483,0.7791547530987946,0.3763511904026568,0.0580322,-0.24007004,-0.0067195175
144,1.44,0.54083085,0.80587703,0.25040275,0.0580322,-0.24007004,-0.0067195175
145,1.45,0.4901446097855037,0.8039113504829882,0.2059645248335805,0.0580322,-0.24007004,-0.0067195175
146,1.46,0.36462155,0.7990434,0.0959145,0.0580322,-0.24007004,-0.0067195175
147,1.47,0.3659542498682163,0.7982921230987439,0.0974529848529828,0.0490756978079158,-0.2485850526560783,-0.0132887089254507
148,1.48,0.5225824831135942,0.7099967937990627,0.2782665124478976,-1.0035552417314062,-1.249329046251999,-0.7853461476315305
149,1.49,0.5637722,0.6867771,0.32581642,-1.3485887956543532,-0.966010213559248,-1.3024780054021468
150,1.5,0.5637722,0.6867771,0.32581642,-1.3621914404389297,-0.5509387737614604,-1.5522972193641678
151,1.51,0.5637722,0.6867771,0.32581642,-1.3347405,-0.45142943,-1.6212363
152,1.52,0.5637722,0.6867771,0.32581642,-1.3347405,-0.45142943,-1.6212363
153,1.53,0.5637722,0.6867771,0.32581642,-1.3347405,-0.45142943,-1.6212363
154,1.54,0.5637722,0.6867771,0.32581642,-1.3347405,-0.45142943,-1.6212363
155,1.55,0.5637722,0.6867771,0.32581642,-1.3347405,-0.45142943,-1.6212363
156,1.56,0.5637722,0.6867771,0.32581642,-1.3347405,-0.45142943,-1.6212363
157,1.57,0.562668600851246,0.6952564583489294,0.3219538075295144,-1.3347405,-0.45142943,-1.6212363
158,1.58,0.5509922552752152,0.7849701179298499,0.2810864345502934,-1.3347405,-0.45142943,-1.6212363
159,1.59,0.2844020920519405,0.8325674484432921,0.0932266101614683,-1.3347405,-0.45142943,-1.6212363
160,1.6,0.0426410923232675,0.907937471895826,0.1999680542207739,-1.3347405,-0.45142943,-1.6212363
161,1.61,-0.040513504,0.9410847,0.28042176,-1.3347405,-0.45142943,-1.6212363
162,1.62,-0.0091270178052904,0.7708734013200592,0.4758227487383654,-1.3347405,-0.45142943,-1.6212363
163,1.63,0.054668825,0.4249037,0.87299275,-1.3347405,-0.45142943,-1.6212363
164,1.64,0.054668825,0.4249037,0.87299275,-1.3347405,-0.45142943,-1.6212363
165,1.65,0.054668825,0.4249037,0.87299275,-1.3347405,-0.45142943,-1.6212363
166,1.66,0.054668825,0.4249037,0.87299275,-0.5574488676242877,-0.191146402567743,-1.3153000317096937
167,1.67,0.054668825,0.4249037,0.87299275,0.2669481,0.084910266,-0.99082345
168,1.68,0.054668825,0.4249037,0.87299275,0.2669481,0.084910266,-0.99082345
169,1.69,0.054668825,0.4249037,0.87299275,0.2669481,0.084910266,-0.99082345
170,1.7,0.054668825,0.4249037,0.87299275,0.2669481,0.084910266,-0.99082345
171,1.71,0.054668825,0.4249037,0.87299275,0.2669481,0.084910266,-0.99082345
172,1.72,0.054668825,0.4249037,0.87299275,0.2669481,0.084910266,-0.99082345
173,1.73,0.054668825,0.4249037,0.87299275,0.2669481,0.084910266,-0.99082345
174,1.74,0.054668825,0.4249037,0.87299275,0.2669481,0.084910266,-0.99082345
175,1.75,0.054668825,0.4249037,0.87299275,0.2591519134947635,0.0816815422378647,-0.959067768815706
176,1.76,0.054668825,0.4249037,0.87299275,0.0843813296163053,0.0093018041811092,-0.2471865255553698
177,1.77,0.054668825,0.4249037,0.87299275,0.2734580611074363,0.2494019579310799,-0.4192881198792774
178,1.78,0.054668825,0.4249037,0.87299275,0.4636467,0.45204028,-0.7360926
179,1.79,0.054668825,0.4249037,0.87299275,-0.0461345275655731,0.3300207399873604,-0.7182478444577534
180,1.8,0.054668825,0.4249037,0.87299275,-2.1190915,-0.16615535,-0.64568454
181,1.81,0.054668825,0.4249037,0.87299275,-2.1190915,-0.16615535,-0.64568454
182,1.82,0.054668825,0.4249037,0.87299275,-2.1190915,-0.16615535,-0.64568454
183,1.83,0.054668825,0.4249037,0.87299275,-2.1190915,-0.16615535,-0.64568454
184,1.84,0.054668825,0.4249037,0.87299275,-1.689266092804645,-0.3486814743991819,-0.7162637345336734
185,1.85,0.054668825,0.4249037,0.87299275,-0.6719518,-0.7806858,-0.88331115
186,1.86,0.054668825,0.4249037,0.87299275,-0.6719518,-0.7806858,-0.88331115
187,1.87,0.054668825,0.4249037,0.87299275,-0.6719518,-0.7806858,-0.88331115
188,1.88,0.0672574038930412,0.583892764571987,0.7270584718986779,-0.6719518,-0.7806858,-0.88331115
189,1.89,0.07443746,0.6745742,0.643823,-0.6719518,-0.7806858,-0.88331115
190,1.9,0.07443746,0.6745742,0.643823,-0.7781990804059417,-0.7378258710865926,-0.8785256137137347
191,1.91,0.07443746,0.6745742,0.643823,-1.993584977956284,-0.2475417624266925,-0.8237828166057055
192,1.92,0.07443746,0.6745742,0.643823,-2.2180517,-0.15699236,-0.8136725
193,1.93,0.07443746,0.6745742,0.643823,-2.2180517,-0.15699236,-0.8136725
194,1.94,0.07443746,0.6745742,0.643823,-2.2180517,-0.15699236,-0.8136725
195,1.95,0.07443746,0.6745742,0.643823,-2.2180517,-0.15699236,-0.8136725
196,1.96,0.07443746,0.6745742,0.643823,-2.2180517,-0.15699236,-0.8136725
197,1.97,0.07443746,0.6745742,0.643823,-2.2180517,-0.15699236,-0.8136725
198,1.98,0.07443746,0.6745742,0.643823,-2.2180517,-0.15699236,-0.8136725
199,1.99,0.07443746,0.6745742,0.643823,-2.2180517,-0.15699236,-0.8136725
200,2.0,0.07443746,0.6745742,0.643823,-2.2180517,-0.15699236,-0.8136725
201,2.01,-0.0893029241922358,0.7046200583680502,0.5996990899012564,-2.2180517,-0.15699236,-0.8136725
202,2.02,-0.34851375,0.75218445,0.5298483,-2.2180517,-0.15699236,-0.8136725
203,2.03,-0.34851375,0.75218445,0.5298483,-2.1320774699006573,-0.1703877780198362,-0.795743247754745
204,2.04,-0.34851375,0.75218445,0.5298483,0.4018062307205815,-0.5651855138559214,-0.2673216500727018
205,2.05,-0.34851375,0.75218445,0.5298483,0.5852089,-0.593761,-0.22907446
206,2.06,-0.34851375,0.75218445,0.5298483,0.4185482140724476,-0.3827795619851096,-0.0613149122224926
207,2.07,-0.34851375,0.75218445,0.5298483,-0.0306034926918344,-0.3992895758516011,-0.1691266924373823
208,2.08,-0.3387110790392586,0.7790286883983792,0.5498306844830843,-0.4166101,-0.57910025,-0.4202753
209,2.09,-0.31678632,0.8390688,0.5945235,-0.4166101,-0.57910025,-0.4202753
210,2.1,-0.31678632,0.8390688,0.5945235,-0.4166101,-0.57910025,-0.4202753
211,2.11,-0.31678632,0.8390688,0.5945235,-0.4166101,-0.57910025,-0.4202753
212,2.12,-0.31678632,0.8390688,0.5945235,-0.4166101,-0.57910025,-0.4202753
213,2.13,-0.31678632,0.8390688,0.5945235,-0.4166101,-0.57910025,-0.4202753
214,2.14,-0.31678632,0.8390688,0.5945235,-0.4166101,-0.57910025,-0.4202753
215,2.15,-0.31678632,0.8390688,0.5945235,-0.4166101,-0.57910025,-0.4202753
216,2.16,-0.31678632,0.8390688,0.5945235,-0.4166101,-0.57910025,-0.4202753
217,2.17,-0.31678632,0.8390688,0.5945235,-0.4166101,-0.57910025,-0.4202753
218,2.18,-0.31678632,0.8390688,0.5945235,-0.4166101,-0.57910025,-0.4202753
219,2.19,-0.31678632,0.8390688,0.5945235,-0.4166101,-0.57910025,-0.4202753
220,2.2,-0.31678632,0.8390688,0.5945235,-0.4166101,-0.57910025,-0.4202753
221,2.21,-0.2468281330918405,0.8565383906323758,0.5346960786742349,-0.1710274136253794,-0.6433910008097954,-0.4164817430209428
222,2.22,-0.102748096,0.8925173,0.41148052,0.33475417,-0.77579886,-0.40866885
223,2.23,-0.102748096,0.8925173,0.41148052,0.33475417,-0.77579886,-0.40866885
224,2.24,-0.102748096,0.8925173,0.41148052,0.33475417,-0.77579886,-0.40866885
225,2.25,-0.102748096,0.8925173,0.41148052,0.33475417,-0.77579886,-0.40866885
226,2.26,-0.102748096,0.8925173,0.41148052,0.33475417,-0.77579886,-0.40866885
227,2.27,-0.102748096,0.8925173,0.41148052,0.33475417,-0.77579886,-0.40866885
228,2.28,-0.102748096,0.8925173,0.41148052,0.33475417,-0.77579886,-0.40866885
229,2.29,-0.102748096,0.8925173,0.41148052,0.33475417,-0.77579886,-0.40866885
230,2.3,-0.102748096,0.8925173,0.41148052,0.33475417,-0.77579886,-0.40866885
231,2.31,-0.102748096,0.8925173,0.41148052,0.33475417,-0.77579886,-0.40866885
232,2.32,-0.102748096,0.8925173,0.41148052,0.33475417,-0.77579886,-0.40866885
233,2.33,-0.102748096,0.8925173,0.41148052,0.33475417,-0.77579886,-0.40866885
234,2.34,-0.102748096,0.8925173,0.41148052,0.33475417,-0.77579886,-0.40866885
235,2.35,-0.102748096,0.8925173,0.41148052,0.33475417,-0.77579886,-0.40866885
236,2.36,-0.102748096,0.8925173,0.41148052,0.33475417,-0.77579886,-0.40866885
237,2.37,-0.102748096,0.8925173,0.41148052,0.33475417,-0.77579886,-0.40866885
238,2.38,-0.102748096,0.8925173,0.41148052,0.33475417,-0.77579886,-0.40866885
239,2.39,-0.102748096,0.8925173,0.41148052,0.33475417,-0.77579886,-0.40866885
240,2.4,-0.102748096,0.8925173,0.41148052,0.33475417,-0.77579886,-0.40866885
241,2.41,-0.102748096,0.8925173,0.41148052,0.33475417,-0.77579886,-0.40866885
242,2.42,-0.102748096,0.8925173,0.41148052,0.33475417,-0.77579886,-0.40866885
243,2.43,0.1377631708885893,0.8749105213604886,0.37362012504643,0.33475417,-0.77579886,-0.40866885
244,2.44,0.40733153,0.8551766,0.33118567,0.33475417,-0.77579886,-0.40866885
245,2.45,0.40733153,0.8551766,0.33118567,0.33475417,-0.77579886,-0.40866885
246,2.46,0.40733153,0.8551766,0.33118567,0.33475417,-0.77579886,-0.40866885
247,2.47,0.40733153,0.8551766,0.33118567,0.33475417,-0.77579886,-0.40866885
248,2.48,0.40733153,0.8551766,0.33118567,0.33475417,-0.77579886,-0.40866885
249,2.49,0.40733153,0.8551766,0.33118567,0.33475417,-0.77579886,-0.40866885
250,2.5,0.40733153,0.8551766,0.33118567,0.33475417,-0.77579886,-0.40866885
251,2.51,0.40733153,0.8551766,0.33118567,0.33475417,-0.77579886,-0.40866885
252,2.52,0.40733153,0.8551766,0.33118567,0.33475417,-0.77579886,-0.40866885
253,2.53,0.40733153,0.8551766,0.33118567,0.33475417,-0.77579886,-0.40866885
254,2.54,0.40733153,0.8551766,0.33118567,0.33475417,-0.77579886,-0.40866885
255,2.55,0.40733153,0.8551766,0.33118567,0.3114353771735138,-0.613348977465812,-0.3176083300999547
256,2.56,0.40733153,0.8551766,0.33118567,0.22540927,-0.014049901,0.018325957
257,2.57,0.40733153,0.8551766,0.33118567,0.22540927,-0.014049901,0.018325957
258,2.58,0.40733153,0.8551766,0.33118567,0.22540927,-0.014049901,0.018325957
259,2.59,0.40733153,0.8551766,0.33118567,0.0289629447917705,-0.0458877572049973,0.0339061838439395
260,2.6,0.40733153,0.8551766,0.33118567,-0.12889257,-0.07147124,0.04642576
261,2.61,0.3192622679420616,0.8601150613118076,0.3380838434582359,-0.12889257,-0.07147124,0.04642576
262,2.62,-0.1176035345787894,0.8846121992892065,0.3723020941093848,-0.12889257,-0.07147124,0.04642576
263,2.63,-0.14106509,0.8859278,0.37413976,-0.12889257,-0.07147124,0.04642576
264,2.64,-0.14106509,0.8859278,0.37413976,-0.12889257,-0.07147124,0.04642576
265,2.65,-0.14106509,0.8859278,0.37413976,-0.2229429357834332,-0.0289553200847907,0.046855213516378
266,2.66,-0.14106509,0.8859278,0.37413976,-0.2184236584820621,-0.0674504386654404,0.0439850109637902
267,2.67,-0.14106509,0.8859278,0.37413976,-0.1740966,-0.124005646,0.040927973
268,2.68,-0.14106509,0.8859278,0.37413976,-0.1740966,-0.124005646,0.040927973
269,2.69,-0.14106509,0.8859278,0.37413976,-0.1740966,-0.124005646,0.040927973
270,2.7,-0.14106509,0.8859278,0.37413976,-0.1740966,-0.124005646,0.040927973
271,2.71,-0.14106509,0.8859278,0.37413976,-0.1740966,-0.124005646,0.040927973
272,2.72,-0.14106509,0.8859278,0.37413976,-0.1552572548867263,-0.1257183126717104,0.028160814194768
273,2.73,-0.14106509,0.8859278,0.37413976,-0.1001819,-0.13072516,-0.009162978
274,2.74,-0.14106509,0.8859278,0.37413976,-0.1001819,-0.13072516,-0.009162978
275,2.75,-0.14106509,0.8859278,0.37413976,0.0828854334970107,-0.0913742403985651,0.0066629352875249
276,2.76,-0.14106509,0.8859278,0.37413976,0.16126843,-0.07452556,0.013439035
277,2.77,-0.14106509,0.8859278,0.37413976,0.16126843,-0.07452556,0.013439035
278,2.78,-0.14106509,0.8859278,0.37413976,0.1830701088030424,-0.0963272388030424,0.0060320539674519
279,2.79,-0.14106509,0.8859278,0.37413976,0.2565634,-0.16982053,-0.018936822
280,2.8,-0.14106509,0.8859278,0.37413976,0.2565634,-0.16982053,-0.018936822
281,2.81,-0.14106509,0.8859278,0.37413976,0.2565634,-0.16982053,-0.018936822
282,2.82,-0.14106509,0.8859278,0.37413976,0.2565634,-0.16982053,-0.018936822
283,2.83,-0.172757536180502,0.8672315389228841,0.4058322005751802,0.2565634,-0.16982053,-0.018936822
284,2.84,-0.3095381256081576,0.7865408407149762,0.5426127658109761,0.2565634,-0.16982053,-0.018936822
285,2.85,-0.31068486,0.78586435,0.5437595,0.2565634,-0.16982053,-0.018936822
286,2.86,-0.1500985208993763,0.8670941663275151,0.4594644648535237,0.2565634,-0.16982053,-0.018936822
287,2.87,-0.08053889,0.9022797,0.4229512,0.2565634,-0.16982053,-0.018936822
288,2.88,-0.08053889,0.9022797,0.4229512,0.2565634,-0.16982053,-0.018936822
289,2.89,-0.0687538379720899,0.8590956914976423,0.4782545778680648,0.2565634,-0.16982053,-0.018936822
290,2.9,0.0225836823850427,0.5243532685286885,0.9069107040653378,0.2565634,-0.16982053,-0.018936822
291,2.91,-0.0716154243709245,0.8247504223791848,0.4973145919482269,0.2565634,-0.16982053,-0.018936822
292,2.92,-0.09225364,0.89056486,0.4075756,0.2565634,-0.16982053,-0.018936822
293,2.93,-0.09225364,0.89056486,0.4075756,0.2565634,-0.16982053,-0.018936822
294,2.94,-0.09225364,0.89056486,0.4075756,0.2565634,-0.16982053,-0.018936822
295,2.95,-0.09225364,0.89056486,0.4075756,0.2565634,-0.16982053,-0.018936822
296,2.96,-0.0750263522684768,0.8942426370656293,0.4298355916737884,0.2565634,-0.16982053,-0.018936822
297,2.97,-0.070532545,0.895202,0.4356422,0.2565634,-0.16982053,-0.018936822
298,2.98,-0.070532545,0.895202,0.4356422,0.2565634,-0.16982053,-0.018936822
299,2.99,-0.070532545,0.895202,0.4356422,0.2565634,-0.16982053,-0.018936822
300,3.0,-0.070532545,0.895202,0.4356422,0.2565634,-0.16982053,-0.018936822
301,3.01,-0.070532545,0.895202,0.4356422,0.2565634,-0.16982053,-0.018936822
302,3.02,-0.070532545,0.895202,0.4356422,0.2565634,-0.16982053,-0.018936822
303,3.03,-0.0967489898508221,0.8890020955535549,0.4237739203590813,0.2565634,-0.16982053,-0.018936822
304,3.04,-0.10665302,0.8866599,0.41929033,0.2565634,-0.16982053,-0.018936822
305,3.05,0.2115734643607452,0.853373723309982,0.3450763581532234,0.0730780938895554,-0.0696492271532786,0.0057007808018585
306,3.06,0.49299565,0.82393724,0.27944556,-0.089186326,0.018936822,0.027488936
307,3.07,0.49299565,0.82393724,0.27944556,-0.0555414360748406,0.0131735770449088,0.0136259953524061
308,3.08,0.49299565,0.82393724,0.27944556,0.042760566,-0.0036651916,-0.02687807
309,3.09,0.49299565,0.82393724,0.27944556,0.042760566,-0.0036651916,-0.02687807
310,3.1,0.49299565,0.82393724,0.27944556,0.042760566,-0.0036651916,-0.02687807
311,3.11,0.0328142631914673,0.8753194496005132,0.3769400105675066,0.042760566,-0.0036651916,-0.02687807
312,3.12,-0.10372432,0.89056486,0.4058672,0.042760566,-0.0036651916,-0.02687807
313,3.13,-0.10372432,0.89056486,0.4058672,0.042760566,-0.0036651916,-0.02687807
314,3.14,-0.0892049829187045,0.8794183813049162,0.4827361764020533,0.042760566,-0.0036651916,-0.02687807
315,3.15,0.0055114729467348,0.8067046650059781,0.9841886166919096,0.042760566,-0.0036651916,-0.02687807
316,3.16,0.0065895454,0.80587703,0.9898962,0.042760566,-0.0036651916,-0.02687807
317,3.17,-0.0558356291944521,0.8747181585843576,0.5981782286276024,0.042760566,-0.0036651916,-0.02687807
318,3.18,-0.08127106,0.9027678,0.4385709,0.042760566,-0.0036651916,-0.02687807
319,3.19,-0.08127106,0.9027678,0.4385709,0.0176944646406534,-0.0107545946728596,-0.0172567385017093
320,3.2,-0.08127106,0.9027678,0.4385709,-0.017715093,-0.02076942,-0.0036651916
321,3.21,-0.08127106,0.9027678,0.4385709,-0.0099898226626564,-0.0197761706520803,-0.003996274547354
322,3.22,-0.08127106,0.9027678,0.4385709,0.0240251642329902,-0.0154028138531241,-0.0054540594045622
323,3.23,-0.08127106,0.9027678,0.4385709,0.0255268236530794,0.0087958111097195,0.0137561662149883
324,3.24,-0.08127106,0.9027678,0.4385709,0.02565634,0.015271631,0.018936822
325,3.25,-0.08127106,0.9027678,0.4385709,0.02565634,0.015271631,0.018936822
326,3.26,-0.08127106,0.9027678,0.4385709,0.02565634,0.015271631,0.018936822
327,3.27,-0.08127106,0.9027678,0.4385709,0.02565634,0.015271631,0.018936822
328,3.28,-0.0827713619884289,0.9024677331476112,0.436601750662571,0.02565634,0.015271631,0.018936822
329,3.29,-0.0983972252139521,0.8993424932758357,0.4160927741667683,0.02565634,0.015271631,0.018936822
330,3.3,-0.10079564,0.8988628,0.41294485,0.0165844228662853,0.0132098317434797,0.0160503033108885
331,3.31,-0.10079564,0.8988628,0.41294485,0.012217305,0.012217305,0.014660766
332,3.32,-0.10079564,0.8988628,0.41294485,0.012217305,0.012217305,0.014660766
333,3.33,-0.10079564,0.8988628,0.41294485,0.012217305,0.012217305,0.014660766
334,3.34,-0.10079564,0.8988628,0.41294485,0.012217305,0.012217305,0.014660766
335,3.35,-0.10079564,0.8988628,0.41294485,0.012217305,0.012217305,0.014660766
336,3.36,-0.10079564,0.8988628,0.41294485,0.0220770660817473,0.0543951679141685,0.0365713451853244
337,3.37,-0.10079564,0.8988628,0.41294485,0.02321288,0.059253927,0.039095376
338,3.38,-0.10079564,0.8988628,0.41294485,-0.0219523189083799,0.042682524063621,0.0176500298188744
339,3.39,-0.10079564,0.8988628,0.41294485,-0.06169739,0.028099801,-0.0012217305
340,3.4,-0.10079564,0.8988628,0.41294485,-0.06169739,0.028099801,-0.0012217305
341,3.41,-0.10079564,0.8988628,0.41294485,-0.06169739,0.028099801,-0.0012217305
342,3.42,-0.10079564,0.8988628,0.41294485,-0.06169739,0.028099801,-0.0012217305
343,3.43,-0.10079564,0.8988628,0.41294485,-0.0263110671295939,0.0106100093558582,-0.0048823844752417
344,3.44,-0.10079564,0.8988628,0.41294485,-0.008552114,0.0018325958,-0.0067195175
345,3.45,-0.10079564,0.8988628,0.41294485,-0.008552114,0.0018325958,-0.0067195175
346,3.46,-0.10079564,0.8988628,0.41294485,-0.008552114,0.0018325958,-0.0067195175
347,3.47,-0.10079564,0.8988628,0.41294485,-0.008552114,0.0018325958,-0.0067195175
348,3.48,-0.10079564,0.8988628,0.41294485,-0.008552114,0.0018325958,-0.0067195175
349,3.49,-0.10079564,0.8988628,0.41294485,-0.008552114,0.0018325958,-0.0067195175
350,3.5,-0.10079564,0.8988628,0.41294485,-0.008552114,0.0018325958,-0.0067195175
351,3.51,-0.10079564,0.8988628,0.41294485,-0.008552114,0.0018325958,-0.0067195175
352,3.52,-0.10079564,0.8988628,0.41294485,-0.0088649962364554,0.0007375075114301,-0.0068759587462765
353,3.53,-0.10079564,0.8988628,0.41294485,-0.009773844,-0.002443461,-0.007330383
354,3.54,-0.10079564,0.8988628,0.41294485,-0.009773844,-0.002443461,-0.007330383
355,3.55,-0.10079564,0.8988628,0.41294485,-0.009773844,-0.002443461,-0.007330383
356,3.56,-0.10079564,0.8988628,0.41294485,-0.009773844,-0.002443461,-0.007330383
357,3.57,-0.098243786643284,0.8962128174621535,0.4238393044265574,-0.009773844,-0.002443461,-0.007330383
358,3.58,-0.09445015,0.8922733,0.44003522,-0.009773844,-0.002443461,-0.007330383
359,3.59,-0.0942336561599193,0.8925980429777807,0.4386280041257167,-0.009773844,-0.002443461,-0.007330383
360,3.6,-0.0915965779008179,0.8965536873794036,0.4214869234069683,-0.009773844,-0.002443461,-0.007330383
361,3.61,-0.09152147,0.89666635,0.42099872,-0.009773844,-0.002443461,-0.007330383
362,3.62,-0.09152147,0.89666635,0.42099872,-0.009773844,-0.002443461,-0.007330383
363,3.63,-0.09152147,0.89666635,0.42099872,-0.009773844,-0.002443461,-0.007330383
364,3.64,-0.09152147,0.89666635,0.42099872,-0.0051447805449748,-0.008978608895784,-0.006105042655315
365,3.65,-0.09152147,0.8962913169748329,0.4205027138723275,0.010995574,-0.03176499,-0.0018325958
366,3.66,-0.09152147,0.8902819858410058,0.4125549736319502,0.010995574,-0.03176499,-0.0018325958
367,3.67,-0.0936924622076335,0.8925379957541412,0.4225710594684206,0.010995574,-0.03176499,-0.0018325958
368,3.68,-0.09445015,0.8937377,0.42661208,0.010995574,-0.03176499,-0.0018325958
369,3.69,-0.09445015,0.8937377,0.42661208,-0.0063879446351559,-0.0140471751290925,-0.0031697896085201
370,3.7,-0.0924816186255016,0.8931385468695989,0.421220010433212,-0.02076942,0.00061086525,-0.004276057
371,3.71,-0.088836834,0.8920292,0.41123646,-0.0204364775579015,0.0007357186146899,-0.0041095858334541
372,3.72,-0.088836834,0.8920292,0.41123646,-0.0177121205419524,0.0017573520775617,-0.0027474077714627
373,3.73,-0.088836834,0.8920292,0.41123646,-0.0333193051596143,0.0034032852798082,-0.003432302941743
374,3.74,-0.088836834,0.8920292,0.41123646,-0.08246681,0.0061086523,-0.007941248
375,3.75,-0.088836834,0.8920292,0.41123646,-0.08246681,0.0061086523,-0.007941248
376,3.76,-0.088836834,0.8920292,0.41123646,-0.08246681,0.0061086523,-0.007941248
377,3.77,-0.088836834,0.8920292,0.41123646,-0.08246681,0.0061086523,-0.007941248
378,3.78,-0.088836834,0.8920292,0.41123646,-0.08246681,0.0061086523,-0.007941248
379,3.79,-0.088836834,0.8920292,0.41123646,-0.08246681,0.0061086523,-0.007941248
380,3.8,-0.088836834,0.8920292,0.41123646,-0.08246681,0.0061086523,-0.007941248
381,3.81,-0.088836834,0.8920292,0.41123646,-0.08246681,0.0061086523,-0.007941248
382,3.82,-0.088836834,0.8920292,0.41123646,-0.08246681,0.0061086523,-0.007941248
383,3.83,-0.0874580774893676,0.8913398125645265,0.415200381260697,-0.0967020913727795,-0.0016560477412134,-0.012686342732481
384,3.84,-0.08688438,0.89105296,0.41684976,-0.1141613540994322,-0.0125775841606918,-0.0150103414226989
385,3.85,-0.08688438,0.89105296,0.41684976,-0.122783914,-0.018325957,-0.015271631
386,3.86,-0.08688438,0.89105296,0.41684976,-0.122783914,-0.018325957,-0.015271631
387,3.87,-0.08688438,0.89105296,0.41684976,-0.122783914,-0.018325957,-0.015271631
388,3.88,-0.08688438,0.89105296,0.41684976,-0.122783914,-0.018325957,-0.015271631
389,3.89,-0.0938946535384297,0.8886547506971139,0.4426770899280376,-0.122783914,-0.018325957,-0.015271631
390,3.9,-0.09615856,0.88788027,0.4510178,-0.122783914,-0.018325957,-0.015271631
391,3.91,-0.0944634245382729,0.8886336682547258,0.4553498081304552,-0.122783914,-0.018325957,-0.015271631
392,3.92,-0.09176553,0.88983274,0.46224442,-0.122783914,-0.018325957,-0.015271631
393,3.93,-0.09176553,0.88983274,0.46224442,-0.122783914,-0.018325957,-0.015271631
394,3.94,-0.0922447907006344,0.8896197339107705,0.4610196439873261,-0.122783914,-0.018325957,-0.015271631
395,3.95,-0.0957659845741095,0.88805474905928,0.4520210472183915,-0.122783914,-0.018325957,-0.015271631
396,3.96,-0.09615856,0.88788027,0.4510178,-0.122783914,-0.018325957,-0.015271631
397,3.97,-0.09615856,0.88788027,0.4510178,-0.0561807800451701,-0.116766848577138,0.0912201964543948
398,3.98,-0.09615856,0.88788027,0.4510178,-0.01160644,-0.1826487,0.16249016
399,3.99,-0.09615856,0.88788027,0.4510178,-0.01160644,-0.1826487,0.16249016
400,4.0,-0.09615856,0.88788027,0.4510178,-0.0019893556899978,-0.1470089192894661,0.1359017500339352
401,4.01,-0.09615856,0.88788027,0.4510178,0.0368671852884997,-0.003011159157194,0.0284748409940516
402,4.02,-0.09615856,0.88788027,0.4510178,-0.0215421321935586,-0.0077529400162376,0.0158438604622593
403,4.03,-0.09615856,0.88788027,0.4510178,0.0232050270928442,0.0008342679682819,0.0093567097737876
404,4.04,-0.09615856,0.88788027,0.4510178,0.048258353,0.0061086523,0.0067195175
405,4.05,-0.09615856,0.88788027,0.4510178,0.048258353,0.0061086523,0.0067195175
406,4.06,-0.09615856,0.88788027,0.4510178,0.048258353,0.0061086523,0.0067195175
407,4.07,-0.09615856,0.88788027,0.4510178,0.048258353,0.0061086523,0.0067195175
408,4.08,-0.09615856,0.88788027,0.4510178,0.048258353,0.0061086523,0.0067195175
409,4.09,-0.09615856,0.88788027,0.4510178,0.0500530588053823,0.0065573283473745,0.012552306776913
410,4.1,-0.09615856,0.88788027,0.4510178,0.0296196431642524,0.0005988867575217,0.0071799950925265
411,4.11,-0.09615856,0.88788027,0.4510178,0.01282817,-0.004276057,0.0012217305
412,4.12,-0.0964515401931044,0.8862688729356267,0.445499987022459,0.01282817,-0.004276057,0.0012217305
413,4.13,-0.0976049029061218,0.8799253543850373,0.4237782464560958,0.01282817,-0.004276057,0.0012217305
414,4.14,-0.0976229,0.87982637,0.4234393,0.01282817,-0.004276057,0.0012217305
415,4.15,-0.0976229,0.87982637,0.4234393,0.01282817,-0.004276057,0.0012217305
416,4.16,-0.0976229,0.87982637,0.4234393,0.01282817,-0.004276057,0.0012217305
417,4.17,-0.0976229,0.87982637,0.4234393,0.01282817,-0.004276057,0.0012217305
418,4.18,-0.0976229,0.87982637,0.4234393,0.01282817,-0.004276057,0.0012217305
419,4.19,-0.0976229,0.87982637,0.4234393,0.01282817,-0.004276057,0.0012217305
420,4.2,-0.0976229,0.87982637,0.4234393,0.01282817,-0.004276057,0.0012217305
421,4.21,-0.0976229,0.87982637,0.4234393,0.01282817,-0.004276057,0.0012217305
422,4.22,-0.0976229,0.87982637,0.4234393,0.0319762299707343,-0.0449168407208462,0.0360008608496494
423,4.23,-0.0976229,0.87982637,0.4234393,0.07269296,-0.13133603,0.10995574
424,4.24,-0.0976229,0.87982637,0.4234393,0.07269296,-0.13133603,0.10995574
425,4.25,-0.0976229,0.87982637,0.4234393,0.07269296,-0.13133603,0.10995574
426,4.26,-0.0976229,0.87982637,0.4234393,0.07269296,-0.13133603,0.10995574
427,4.27,-0.0976229,0.87982637,0.4234393,0.07269296,-0.13133603,0.10995574
428,4.28,-0.0933223105291475,0.8814390783863091,0.4270948114026985,-0.0002344830124232,-0.0672890488030999,0.0512908606509993
429,4.29,-0.08786061,0.8834872,0.43173727,-0.09285152,0.014049901,-0.02321288
430,4.3,-0.08786061,0.8834872,0.43173727,-0.0944371390904725,0.0032148326726385,-0.0199095053806936
431,4.31,-0.08786061,0.8834872,0.43173727,-0.1001819,-0.03604105,-0.007941248
432,4.32,-0.08786061,0.8834872,0.43173727,-0.1001819,-0.03604105,-0.007941248
433,4.33,-0.08786061,0.8834872,0.43173727,-0.1001819,-0.03604105,-0.007941248
434,4.34,-0.08786061,0.8834872,0.43173727,-0.1001819,-0.03604105,-0.007941248
435,4.35,-0.08786061,0.8834872,0.43173727,-0.1001819,-0.03604105,-0.007941248
436,4.36,-0.08786061,0.8834872,0.43173727,-0.1001819,-0.03604105,-0.007941248
437,4.37,-0.0887380776829523,0.8832148868037952,0.433991452424468,-0.1001819,-0.03604105,-0.007941248
438,4.38,-0.1017177714648767,0.8791867704774781,0.4673358116147082,-0.1001819,-0.03604105,-0.007941248
439,4.39,-0.10201593,0.87909424,0.46810177,-0.1187301403083827,-0.0070297011016143,-0.0060388644784429
440,4.4,-0.10201593,0.87909424,0.46810177,-0.0650317920858545,0.0840659475891438,-0.027261945724374
441,4.41,-0.10201593,0.87909424,0.46810177,-0.021380283,0.14538592,-0.04337143
442,4.42,-0.10201593,0.87909424,0.46810177,-0.021380283,0.14538592,-0.04337143
443,4.43,-0.10201593,0.87909424,0.46810177,-0.021380283,0.14538592,-0.04337143
444,4.44,-0.10201593,0.87909424,0.46810177,-0.021380283,0.14538592,-0.04337143
445,4.45,-0.10201593,0.87909424,0.46810177,-0.021380283,0.14538592,-0.04337143
446,4.46,-0.10201593,0.87909424,0.46810177,-0.021380283,0.14538592,-0.04337143
447,4.47,-0.10201593,0.87909424,0.46810177,-0.021380283,0.14538592,-0.04337143
448,4.48,-0.1003737322560456,0.8777678297065263,0.4636173195712395,-0.021380283,0.14538592,-0.04337143
449,4.49,-0.09567044,0.87396896,0.45077375,-0.021380283,0.14538592,-0.04337143
450,4.5,-0.09567044,0.87396896,0.45077375,-0.021380283,0.14538592,-0.04337143
451,4.51,-0.09567044,0.87396896,0.45077375,-0.021380283,0.14538592,-0.04337143
452,4.52,-0.09567044,0.87396896,0.45077375,-0.021380283,0.14538592,-0.04337143
453,4.53,-0.09567044,0.87396896,0.45077375,-0.021380283,0.14538592,-0.04337143
454,4.54,-0.09567044,0.87396896,0.45077375,-0.021380283,0.14538592,-0.04337143
455,4.55,-0.09567044,0.87396896,0.45077375,-0.2025881577652185,0.106522228528673,0.5995185106887221
456,4.56,-0.09567044,0.87396896,0.45077375,-0.25778514,0.09468412,0.79534656
457,4.57,-0.09567044,0.87396896,0.45077375,-0.25778514,0.09468412,0.79534656
458,4.58,-0.09567044,0.87396896,0.45077375,-0.25778514,0.09468412,0.79534656
459,4.59,-0.0676076453515919,0.8814027055780366,0.4436049055857659,-0.25778514,0.09468412,0.79534656
460,4.6,0.2800773625796605,0.9735033649257744,0.3547862487752516,-0.25778514,0.09468412,0.79534656
461,4.61,0.3180066,0.9835507,0.34509695,-0.25778514,0.09468412,0.79534656
462,4.62,0.3180066,0.9835507,0.34509695,-0.25778514,0.09468412,0.79534656
463,4.63,0.3180066,0.9835507,0.34509695,-0.227182626413271,0.0599620417971818,0.6170280977539027
464,4.64,0.3180066,0.9835507,0.34509695,-0.19425514,0.022602014,0.4251622
465,4.65,0.3180066,0.9835507,0.34509695,-0.1266774611646147,-0.0418440163875677,0.3325313335820744
466,4.66,0.3180066,0.9835507,0.34509695,0.056199603,-0.21624629,0.081855945
467,4.67,0.3180066,0.9835507,0.34509695,0.056199603,-0.21624629,0.081855945
468,4.68,0.3180066,0.9835507,0.34509695,0.056199603,-0.21624629,0.081855945
469,4.69,0.3180066,0.9835507,0.34509695,-0.0661338502184593,-0.1949520129863547,0.0827250970949188
470,4.7,0.3180066,0.9835507,0.34509695,-0.2432202841243681,-0.1641270221131143,0.0839832569928183
471,4.71,0.3180066,0.9835507,0.34509695,-0.28771752,-0.1563815,0.0842994
472,4.72,0.3180066,0.9835507,0.34509695,-0.28771752,-0.1563815,0.0842994
473,4.73,0.3180066,0.9835507,0.34509695,-0.28771752,-0.1563815,0.0842994
474,4.74,0.3180066,0.9835507,0.34509695,-0.28771752,-0.1563815,0.0842994
475,4.75,0.3180066,0.9835507,0.34509695,-0.28771752,-0.1563815,0.0842994
476,4.76,0.3180066,0.9835507,0.34509695,-0.8490673086460054,-0.6256680683589145,-0.3524109030804895
477,4.77,0.3180066,0.9835507,0.34509695,-1.0140363,-0.7635816,-0.48075095
478,4.78,0.3180066,0.9835507,0.34509695,-1.0140363,-0.7635816,-0.48075095
479,4.79,0.268644334311059,1.0749623048616954,0.2885360189065918,-1.0140363,-0.7635816,-0.48075095
480,4.8,0.21257387,1.1787965,0.22428861,-1.0140363,-0.7635816,-0.48075095
481,4.81,0.21257387,1.1787965,0.22428861,-1.0140363,-0.7635816,-0.48075095
482,4.82,0.21257387,1.1787965,0.22428861,-1.0140363,-0.7635816,-0.48075095
483,4.83,0.21257387,1.1787965,0.22428861,-1.0140363,-0.7635816,-0.48075095
484,4.84,0.21257387,1.1787965,0.22428861,-1.0140363,-0.7635816,-0.48075095
485,4.85,0.21257387,1.1787965,0.22428861,-1.0140363,-0.7635816,-0.48075095
486,4.86,0.21257387,1.1787965,0.22428861,-1.0140363,-0.7635816,-0.48075095
487,4.87,0.21257387,1.1787965,0.22428861,-1.0140363,-0.7635816,-0.48075095
488,4.88,0.2175784739293174,1.1483450896162877,0.2601280435033155,-1.0140363,-0.7635816,-0.48075095
489,4.89,0.2657831676249567,0.8550349833863075,0.6053359637808715,-1.0140363,-0.7635816,-0.48075095
490,4.9,0.27310005,0.8105141,0.6577343,-1.0140363,-0.7635816,-0.48075095
491,4.91,-0.0777709293797624,0.7763694015154546,0.5991419631519006,-1.0140363,-0.7635816,-0.48075095
492,4.92,-0.353883,0.7494998,0.5530337,-1.0140363,-0.7635816,-0.48075095
493,4.93,-0.3534024942377619,0.7473642212651388,0.5395795736585713,-1.0140363,-0.7635816,-0.48075095
494,4.94,-0.35168648,0.7397375,0.4915313,-1.0140363,-0.7635816,-0.48075095
495,4.95,-0.35168648,0.7397375,0.4915313,-1.0140363,-0.7635816,-0.48075095
496,4.96,0.0513397291178242,0.7541251156783025,0.6289935770845457,-1.0140363,-0.7635816,-0.48075095
497,4.97,0.21574661,0.75999427,0.6850687,-1.0140363,-0.7635816,-0.48075095
498,4.98,0.21574661,0.75999427,0.6850687,-1.0140363,-0.7635816,-0.48075095
499,4.99,0.1587822479781353,0.7389671624726736,0.6479845232736413,-1.0140363,-0.7635816,-0.48075095
500,5.0,-0.0024405725,0.6794554,0.5430274,-1.0140363,-0.7635816,-0.48075095
501,5.01,-0.0024405725,0.6794554,0.5430274,-1.0140363,-0.7635816,-0.48075095
502,5.02,-0.0024405725,0.6794554,0.5430274,-1.0140363,-0.7635816,-0.48075095
503,5.03,-0.0024405725,0.6794554,0.5430274,-0.3432573957390425,-1.3619858894120769,-1.088050448594913
504,5.04,-0.0030995665585538,0.676819411885072,0.6747163691220657,-0.00061086525,-1.6676621,-1.3982705
505,5.05,-0.0039049159,0.673598,0.835652,-0.00061086525,-1.6676621,-1.3982705
506,5.06,-0.0039049159,0.673598,0.835652,-0.0090828296977658,-1.674847461665838,-1.392644331738036
507,5.07,-0.0039049159,0.673598,0.835652,-0.3870075549932911,-1.9953782960966735,-1.1416673466504856
508,5.08,-0.0039049159,0.673598,0.835652,-0.47525316,-2.0702224,-1.0830641
509,5.09,-0.0039049159,0.673598,0.835652,-0.47525316,-2.0702224,-1.0830641
510,5.1,-0.0039049159,0.673598,0.835652,-0.47525316,-2.0702224,-1.0830641
511,5.11,-0.0039049159,0.673598,0.835652,-0.47525316,-2.0702224,-1.0830641
512,5.12,-0.0039049159,0.673598,0.835652,-0.47525316,-2.0702224,-1.0830641
513,5.13,-0.0039049159,0.673598,0.835652,-0.47525316,-2.0702224,-1.0830641
514,5.14,-0.0039049159,0.673598,0.835652,-0.47525316,-2.0702224,-1.0830641
515,5.15,-0.0039049159,0.673598,0.835652,-0.47525316,-2.0702224,-1.0830641
516,5.16,-0.0039049159,0.673598,0.835652,-0.47525316,-2.0702224,-1.0830641
517,5.17,-0.0039049159,0.673598,0.835652,-0.47525316,-2.0702224,-1.0830641
518,5.18,-0.0039049159,0.673598,0.835652,-0.47525316,-2.0702224,-1.0830641
519,5.19,-0.0039049159,0.673598,0.835652,-0.47525316,-2.0702224,-1.0830641
520,5.2,-0.0039049159,0.673598,0.835652,-0.47525316,-2.0702224,-1.0830641
521,5.21,-0.0039049159,0.673598,0.835652,-0.5157442374006552,-1.3063635207239714,-1.0986586308773052
522,5.22,-0.0039049159,0.673598,0.835652,-0.5656612,-0.36468655,-1.1178834
523,5.23,-0.0039049159,0.673598,0.835652,-0.5656612,-0.36468655,-1.1178834
524,5.24,-0.0039049159,0.673598,0.835652,-0.5656612,-0.36468655,-1.1178834
525,5.25,-0.0039049159,0.673598,0.835652,-0.5656612,-0.36468655,-1.1178834
526,5.26,-0.0039049159,0.673598,0.835652,-0.5656612,-0.36468655,-1.1178834
527,5.27,0.017160462054645,0.641837905041445,0.7541451877531989,-0.5656612,-0.36468655,-1.1178834
528,5.28,0.027822526,0.6257628,0.7128912,-0.5656612,-0.36468655,-1.1178834
529,5.29,0.0024502589554826,0.6084164501626375,0.7224187376834842,-0.4504436511156012,-0.2870540261746594,-0.8737103189164467
530,5.3,-0.09176553,0.5440036,0.7577977,-0.022602014,0.0012217305,0.032986723
531,5.31,-0.09176553,0.5440036,0.7577977,-0.022602014,0.0012217305,0.032986723
532,5.32,-0.09176553,0.5440036,0.7577977,-0.022602014,0.0012217305,0.032986723
533,5.33,-0.09176553,0.5440036,0.7577977,-0.2266178216004792,-1.3621557549051566,-0.3967995309339961
534,5.34,-0.09176553,0.5440036,0.7577977,-0.49235737,-3.1380148,-0.956615
535,5.35,-0.09176553,0.5440036,0.7577977,-0.49235737,-3.1380148,-0.956615
536,5.36,-0.09176553,0.5440036,0.7577977,-0.49235737,-3.1380148,-0.956615
537,5.37,-0.09176553,0.5440036,0.7577977,-0.49235737,-3.1380148,-0.956615
538,5.38,-0.0360467264096988,0.5757854475333477,1.0919094095747672,-0.49235737,-3.1380148,-0.956615
539,5.39,0.04344219,0.6211257,1.568556,-0.5642844391829717,-2.3120936637740175,-0.6461194979356013
540,5.4,0.04344219,0.6211257,1.568556,-0.77579886,0.116675265,0.2669481
541,5.41,0.04344219,0.6211257,1.568556,-0.77579886,0.116675265,0.2669481
542,5.42,0.04344219,0.6211257,1.568556,0.1708853874569703,-0.1110082908180083,-0.0518088679443705
543,5.43,0.04344219,0.6211257,1.568556,0.43066,-0.17348573,-0.13927728
544,5.44,0.04344219,0.6211257,1.568556,0.43066,-0.17348573,-0.13927728
545,5.45,0.04344219,0.6211257,1.568556,0.43066,-0.17348573,-0.13927728
546,5.46,0.0433580175777757,0.6182848803188216,1.503153955160321,0.3853110607904733,-0.1434111136072639,-0.1332202205015262
547,5.47,0.0425131785142442,0.5897715575975743,0.8467132723889076,-0.0698564907843117,0.1584479760791572,-0.0724254810937315
548,5.48,0.042465962,0.588178,0.810026,-0.095294975,0.17531833,-0.069027774
549,5.49,0.3164911113710183,0.7080891221944242,0.4879827518235163,-0.095294975,0.17531833,-0.069027774
550,5.5,0.54107493,0.80636513,0.22404456,-0.095294975,0.17531833,-0.069027774
551,5.51,0.54107493,0.80636513,0.22404456,-0.095294975,0.17531833,-0.069027774
552,5.52,0.54107493,0.80636513,0.22404456,-0.095294975,0.17531833,-0.069027774
553,5.53,0.54107493,0.80636513,0.22404456,-0.095294975,0.17531833,-0.069027774
554,5.54,0.3321698437782052,0.7214452202893631,0.4828779456124988,-0.095294975,0.17531833,-0.069027774
555,5.55,0.05296042,0.6079466,0.8288184,-0.095294975,0.17531833,-0.069027774
556,5.56,0.0570910402579563,0.6226280032255358,0.8096287232999351,-0.095294975,0.17531833,-0.069027774
557,5.57,0.0925696918712994,0.7487292562348131,0.6448050862437567,-0.095294975,0.17531833,-0.069027774
558,5.58,0.09567044,0.7597502,0.6303999,0.138240439628171,0.7241265663231603,-0.1139384321013817
559,5.59,-0.1369893509052284,0.7581939403224943,0.5830638762673118,0.1330891107012335,1.2872986839506368,-0.0509111548995823
560,5.6,-0.34216827,0.7568215,0.541319,0.054367006,1.6096299,0.018936822
561,5.61,-0.34216827,0.7568215,0.541319,0.054367006,1.6096299,0.018936822
562,5.62,-0.34216827,0.7568215,0.541319,0.054367006,1.6096299,0.018936822
563,5.63,-0.34216827,0.7568215,0.541319,0.054367006,1.6096299,0.018936822
564,5.64,-0.34216827,0.7568215,0.541319,0.054367006,1.6096299,0.018936822
565,5.65,-0.34216827,0.7568215,0.541319,0.054367006,1.6096299,0.018936822
566,5.66,-0.34216827,0.7568215,0.541319,0.054367006,1.6096299,0.018936822
567,5.67,-0.34216827,0.7568215,0.541319,0.054367006,1.6096299,0.018936822
568,5.68,-0.34216827,0.7568215,0.541319,0.054367006,1.6096299,0.018936822
569,5.69,-0.3457546715841083,0.7575765091170124,0.551134427887731,-0.0703606401188045,2.589025530085693,0.392174889107574
570,5.7,-0.2111358783340415,0.7066580817077378,0.6385397481629134,-0.106901415,2.8759537,0.5015204
571,5.71,-0.15839316,0.6867771,0.67140144,-0.2534026540840174,3.1829248535505092,0.6613089275702149
572,5.72,-0.15839316,0.6867771,0.67140144,-0.36957347,3.4263432,0.78801614
573,5.73,-0.15839316,0.6867771,0.67140144,-0.36957347,3.4263432,0.78801614
574,5.74,-0.15839316,0.6867771,0.67140144,-0.36957347,3.4263432,0.78801614
575,5.75,-0.15839316,0.6867771,0.67140144,-0.3011080113120521,3.2461858631661236,0.7046017160677525
576,5.76,-0.15839316,0.6867771,0.67140144,0.6391832370071634,0.771940157495992,-0.4409957035678538
577,5.77,-0.15839316,0.6867771,0.67140144,0.6627888,0.7098254,-0.46975538
578,5.78,-0.2068776394571897,0.6613150953338041,0.6061456010601605,-0.5007659523191044,-0.6853717726923125,-0.8273318948949058
579,5.79,-0.23600335,0.6460195,0.56694496,-1.1997393,-1.5234979,-1.0421361
580,5.8,-0.23600335,0.6460195,0.56694496,-1.1997393,-1.5234979,-1.0421361
581,5.81,-0.23600335,0.6460195,0.56694496,-1.1997393,-1.5234979,-1.0421361
582,5.82,-0.23600335,0.6460195,0.56694496,-1.1997393,-1.5234979,-1.0421361
583,5.83,-0.23600335,0.6460195,0.56694496,-1.1997393,-1.5234979,-1.0421361
584,5.84,-0.23600335,0.6460195,0.56694496,-1.1997393,-1.5234979,-1.0421361
585,5.85,-0.23600335,0.6460195,0.56694496,-1.1997393,-1.5234979,-1.0421361
586,5.86,-0.23600335,0.6460195,0.56694496,-1.1997393,-1.5234979,-1.0421361
587,5.87,-0.23600335,0.6460195,0.56694496,-0.9904996432163627,-1.278037204680688,-0.9498988084110448
588,5.88,-0.23600335,0.6460195,0.56694496,0.2113040308863591,0.131808185132753,-0.4201181844850784
589,5.89,-0.23600335,0.6460195,0.56694496,0.31764993,0.2565634,-0.37323865
590,5.9,-0.23600335,0.6460195,0.56694496,0.274730825252142,0.1906974495108836,-0.2279086223344371
591,5.91,-0.23600335,0.6460195,0.56694496,0.25595254,0.16187929,-0.16432275
592,5.92,-0.23600335,0.6460195,0.56694496,0.25595254,0.16187929,-0.16432275
593,5.93,-0.23600335,0.6460195,0.56694496,0.25595254,0.16187929,-0.16432275
594,5.94,-0.2100256197649169,0.6555902499366564,0.5733790774383207,0.25595254,0.16187929,-0.16432275
595,5.95,-0.0218988710116938,0.7249001570155155,0.6199739717502568,0.25595254,0.16187929,-0.16432275
596,5.96,-0.215040589725907,0.6975968759272233,0.6051793726884694,0.25595254,0.16187929,-0.16432275
597,5.97,-0.30726805,0.6823841,0.5964759,0.25595254,0.16187929,-0.16432275
598,5.98,-0.30726805,0.6823841,0.5964759,0.25595254,0.16187929,-0.16432275
599,5.99,-0.30726805,0.6823841,0.5964759,0.25595254,0.16187929,-0.16432275
600,6.0,-0.30726805,0.6823841,0.5964759,0.25595254,0.16187929,-0.16432275
601,6.01,-0.2846529097003603,0.6856983557119337,0.6017397601859897,0.25595254,0.16187929,-0.16432275
602,6.02,-0.2853116242691615,0.688045929559968,0.6001909350936686,0.25595254,0.16187929,-0.16432275
603,6.03,-0.28920785,0.6889736,0.59842837,0.25595254,0.16187929,-0.16432275
604,6.04,-0.28920785,0.6889736,0.59842837,0.25595254,0.16187929,-0.16432275
605,6.05,-0.28920785,0.6889736,0.59842837,0.2517118895356902,0.1579511085889989,-0.161030666151338
606,6.06,-0.28920785,0.6889736,0.59842837,0.0681937590665436,-0.0120446302151668,-0.0185626466013091
607,6.07,-0.28920785,0.6889736,0.59842837,0.023823744,-0.053145275,0.015882496
608,6.08,-0.28920785,0.6889736,0.59842837,0.023823744,-0.053145275,0.015882496
609,6.09,-0.28920785,0.6889736,0.59842837,0.023823744,-0.053145275,0.015882496
610,6.1,-0.28920785,0.6889736,0.59842837,0.023823744,-0.053145275,0.015882496
611,6.11,-0.28920785,0.6889736,0.59842837,0.023823744,-0.053145275,0.015882496
612,6.12,-0.28920785,0.6889736,0.59842837,0.023823744,-0.053145275,0.015882496
613,6.13,-0.28920785,0.6889736,0.59842837,0.023823744,-0.053145275,0.015882496
614,6.14,-0.28920785,0.6889736,0.59842837,0.023823744,-0.053145275,0.015882496
615,6.15,-0.28920785,0.6889736,0.59842837,0.023823744,-0.053145275,0.015882496
616,6.16,-0.2876116133334707,0.688666628991497,0.6153729860351465,0.023823744,-0.053145275,0.015882496
617,6.17,-0.28286234,0.6877533,0.6657882,0.023823744,-0.053145275,0.015882496
618,6.18,-0.28286234,0.6877533,0.6657882,0.023823744,-0.053145275,0.015882496
619,6.19,-0.28286234,0.6877533,0.6657882,0.023823744,-0.053145275,0.015882496
620,6.2,-0.28286234,0.6877533,0.6657882,0.0686029342502888,-0.0632205953414301,-0.0240456164162568
621,6.21,-0.28286234,0.6877533,0.6657882,0.09712757,-0.06963864,-0.049480084
622,6.22,-0.28286234,0.6877533,0.6657882,0.09712757,-0.06963864,-0.049480084
623,6.23,-0.28286234,0.6877533,0.6657882,0.09712757,-0.06963864,-0.049480084
624,6.24,-0.28286234,0.6877533,0.6657882,0.09712757,-0.06963864,-0.049480084
625,6.25,-0.28286234,0.6877533,0.6657882,0.09712757,-0.06963864,-0.049480084
626,6.26,-0.2985192861879446,0.6823074262899637,0.6445151381486312,0.09712757,-0.06963864,-0.049480084
627,6.27,-0.3053156,0.6799435,0.635281,0.09712757,-0.06963864,-0.049480084
628,6.28,-0.3053156,0.6799435,0.635281,0.09712757,-0.06963864,-0.049480084
629,6.29,-0.3053156,0.6799435,0.635281,0.1024021718904484,-0.0591803790311844,-0.0362935815069752
630,6.3,-0.3053156,0.6799435,0.635281,0.1285521310017592,-0.0073313291142263,0.0290813052002522
631,6.31,-0.3053156,0.6799435,0.635281,0.0798314924128031,0.0656948469351359,0.0246780380811458
632,6.32,-0.3053156,0.6799435,0.635281,0.0355728834792183,0.0201322945868124,-0.0032009472278828
633,6.33,-0.3053156,0.6799435,0.635281,0.016493361,-0.0580322,-0.02443461
634,6.34,-0.3053156,0.6799435,0.635281,0.016493361,-0.0580322,-0.02443461
635,6.35,-0.3053156,0.6799435,0.635281,0.016493361,-0.0580322,-0.02443461
636,6.36,-0.3053156,0.6799435,0.635281,0.016493361,-0.0580322,-0.02443461
637,6.37,-0.3053156,0.6799435,0.635281,0.016493361,-0.0580322,-0.02443461
638,6.38,-0.2964210790462729,0.6869382275069559,0.6294952393574164,0.016493361,-0.0580322,-0.02443461
639,6.39,-0.2801777,0.69971216,0.61892915,0.0342526059473046,-0.0522762386701707,-0.0212056561684682
640,6.4,-0.2801777,0.69971216,0.61892915,0.1660994614891209,-0.0095432618904652,0.002766500904672
641,6.41,-0.2801777,0.69971216,0.61892915,0.17104226,0.0109340280850304,0.0097996566945634
642,6.42,-0.2896618270254049,0.7030594781081463,0.6252054500304632,0.17104226,0.016493361,0.01160644
643,6.43,-0.2967736,0.7055695,0.6299118,0.17104226,0.016493361,0.01160644
644,6.44,-0.2967736,0.7055695,0.6299118,0.17104226,0.016493361,0.01160644
645,6.45,-0.2967736,0.7055695,0.6299118,0.17104226,0.016493361,0.01160644
646,6.46,-0.2967736,0.7055695,0.6299118,0.0156561038012664,0.0697013473150296,-0.0020487078096863
647,6.47,-0.2967736,0.7055695,0.6299118,-0.030543262,0.08552113,-0.0061086523
648,6.48,-0.2967736,0.7055695,0.6299118,-0.030543262,0.08552113,-0.0061086523
649,6.49,-0.2967736,0.7055695,0.6299118,-0.030543262,0.08552113,-0.0061086523
650,6.5,-0.2992447580260531,0.7073138495863839,0.6256599543976419,-0.030543262,0.08552113,-0.0061086523
651,6.51,-0.3389565894180309,0.7353457746728529,0.5573322416874789,-0.030543262,0.08552113,-0.0061086523
652,6.52,-0.34656128,0.7407138,0.5442477,-0.030543262,0.08552113,-0.0061086523
653,6.53,-0.34656128,0.7407138,0.5442477,0.0090625143096011,0.1186459664536118,0.0075733435435642
654,6.54,-0.34656128,0.7407138,0.5442477,0.0333251175393328,0.0949079660229747,0.0097377500255991
655,6.55,-0.34656128,0.7407138,0.5442477,0.028099801,0.021380283,-0.0018325958
656,6.56,-0.3448710630687813,0.7410254667901317,0.5481076254634863,0.0188286127849254,-0.0758321853336122,-0.0374171593827084
657,6.57,-0.3174383028163143,0.7460839182672294,0.6107554476905784,-0.1316457309883587,-1.6536215732458397,-0.6149659836920334
658,6.58,-0.29165298684178,0.7228053601266715,0.6095115327535812,-0.16065755,-1.9578232,-0.7263188
659,6.59,-0.28286234,0.7124031,0.6037976,-0.16065755,-1.9578232,-0.7263188
660,6.6,-0.2803111609406818,0.716796799204608,0.6104590332818247,-0.16065755,-1.9578232,-0.7263188
661,6.61,-0.27846932,0.71996886,0.6152683,-0.16065755,-1.9578232,-0.7263188
662,6.62,-0.27846932,0.71996886,0.6152683,-0.16065755,-1.9578232,-0.7263188
663,6.63,-0.27846932,0.71996886,0.6152683,-0.1214247822406838,-1.49089796080891,-0.5619279629091393
664,6.64,-0.27846932,0.71996886,0.6152683,0.01282817,0.106901415,0.00061086525
665,6.65,-0.27846932,0.71996886,0.6152683,0.01282817,0.106901415,0.00061086525
666,6.66,-0.27846932,0.71996886,0.6152683,0.01282817,0.106901415,0.00061086525
667,6.67,-0.27846932,0.71996886,0.6152683,0.01282817,0.106901415,0.00061086525
668,6.68,-0.27846932,0.71996886,0.6152683,0.01282817,0.106901415,0.00061086525
669,6.69,-0.27846932,0.71996886,0.6152683,0.01282817,0.106901415,0.00061086525
670,6.7,-0.27846932,0.71996886,0.6152683,0.01282817,0.106901415,0.00061086525
671,6.71,-0.2848930504267413,0.7145184022431439,0.6008635837324328,0.01282817,0.106901415,0.00061086525
672,6.72,-0.2950066795170997,0.7090506355682114,0.630199373471663,0.01282817,0.106901415,0.00061086525
673,6.73,-0.2997023,0.7067898,0.6484601,0.01282817,0.106901415,0.00061086525
674,6.74,-0.2997023,0.7067898,0.6484601,0.01282817,0.106901415,0.00061086525
675,6.75,-0.3010737540765509,0.7077040946899901,0.6451294296368099,0.01282817,0.106901415,0.00061086525
676,6.76,-0.3048275,0.71020657,0.6360132,0.01336527506472,0.1053937516092872,0.0009406666268413
677,6.77,-0.3048275,0.71020657,0.6360132,0.0428504057041912,0.0226284698134746,0.0190455725753904
678,6.78,-0.3048275,0.71020657,0.6360132,0.047647487,0.009162978,0.021991149
679,6.79,-0.3048275,0.71020657,0.6360132,0.047647487,0.009162978,0.021991149
680,6.8,-0.3048275,0.71020657,0.6360132,0.047647487,0.009162978,0.021991149
681,6.81,-0.3048275,0.71020657,0.6360132,0.047647487,0.009162978,0.021991149
682,6.82,-0.3048275,0.71020657,0.6360132,0.047647487,0.009162978,0.021991149
683,6.83,-0.3048275,0.71020657,0.6360132,0.047647487,0.009162978,0.021991149
684,6.84,-0.3048275,0.71020657,0.6360132,0.047647487,0.009162978,0.021991149
685,6.85,-0.3048275,0.71020657,0.6360132,0.047647487,0.009162978,0.021991149
686,6.86,-0.3048275,0.71020657,0.6360132,0.047647487,0.009162978,0.021991149
687,6.87,-0.3048275,0.71020657,0.6360132,0.047647487,0.009162978,0.021991149
688,6.88,-0.3048275,0.71020657,0.6360132,0.047647487,0.009162978,0.021991149
689,6.89,-0.3048275,0.71020657,0.6360132,0.047647487,0.009162978,0.021991149
690,6.9,-0.3048275,0.71020657,0.6360132,0.047647487,0.009162978,0.021991149
691,6.91,-0.3048275,0.71020657,0.6360132,0.047647487,0.009162978,0.021991149
692,6.92,-0.3048275,0.71020657,0.6360132,0.047647487,0.009162978,0.021991149
693,6.93,-0.3048275,0.71020657,0.6360132,0.0169684665795441,-0.2878455188526927,0.0428884540621453
694,6.94,-0.2949442174205323,0.7147364144107355,0.6066378797646552,0.005497787,-0.398895,0.050701816
695,6.95,-0.28725538,0.71826047,0.58378494,-0.4142550520587983,-0.897760930790462,-0.3443596888042629
696,6.96,-0.28725538,0.71826047,0.58378494,-1.0122037,-1.6084082,-0.9071349
697,6.97,-0.28725538,0.71826047,0.58378494,-1.0122037,-1.6084082,-0.9071349
698,6.98,-0.28725538,0.71826047,0.58378494,-1.0122037,-1.6084082,-0.9071349
699,6.99,-0.28725538,0.71826047,0.58378494,-1.0122037,-1.6084082,-0.9071349
700,7.0,-0.28725538,0.71826047,0.58378494,-0.3429994343726006,-0.5954532664153551,-0.3407054466059651
701,7.01,-0.28725538,0.71826047,0.58378494,0.037873644,-0.018936822,-0.018325957
702,7.02,-0.28725538,0.71826047,0.58378494,0.037873644,-0.018936822,-0.018325957
703,7.03,-0.28725538,0.71826047,0.58378494,0.037873644,-0.018936822,-0.018325957
704,7.04,-0.28725538,0.71826047,0.58378494,0.037873644,-0.018936822,-0.018325957
705,7.05,-0.291107772213977,0.7042702354580792,0.5886511471855562,0.037873644,-0.018936822,-0.018325957
706,7.06,-0.29189247,0.70142055,0.58964235,0.037873644,-0.018936822,-0.018325957
707,7.07,-0.29189247,0.70142055,0.58964235,-0.0327402165509899,0.0499957530114369,-0.0354750368061571
708,7.08,-0.29189247,0.70142055,0.58964235,-0.0720002830556953,0.0631996228141599,-0.0206133457389817
709,7.09,-0.29189247,0.70142055,0.58964235,-0.036651913,-0.019547688,0.03481932
710,7.1,-0.29189247,0.70142055,0.58964235,-0.036651913,-0.019547688,0.03481932
711,7.11,-0.261580988750715,0.7299748511042974,0.6570743911853171,-0.036651913,-0.019547688,0.03481932
712,7.12,-0.25821257,0.733148,0.6645679,-0.1731119549934462,0.9879895131356338,0.0444107591805726
713,7.13,-0.25821257,0.733148,0.6645679,-0.22785273,1.3921618,0.048258353
714,7.14,-0.25821257,0.733148,0.6645679,-0.0370638816177005,0.7481499665473502,0.0883266669703426
715,7.15,-0.2760856543081509,0.7134417716175258,0.7004449950241342,0.21135938,-0.09040806,0.14049901
716,7.16,-0.3248402,0.65968674,0.79831123,0.21135938,-0.09040806,0.14049901
717,7.17,-0.3248402,0.65968674,0.79831123,0.21135938,-0.09040806,0.14049901
718,7.18,-0.3248402,0.65968674,0.79831123,0.21135938,-0.09040806,0.14049901
719,7.19,-0.3248402,0.65968674,0.79831123,0.21135938,-0.09040806,0.14049901
720,7.2,-0.3248402,0.65968674,0.79831123,0.21135938,-0.09040806,0.14049901
721,7.21,-0.3248402,0.65968674,0.79831123,0.21135938,-0.09040806,0.14049901
722,7.22,-0.3248402,0.65968674,0.79831123,0.21135938,-0.09040806,0.14049901
723,7.23,-0.3299061032450378,0.6668143476050215,0.7757797471114228,0.21135938,-0.09040806,0.14049901
724,7.24,-0.3968304296666871,0.7609753125684039,0.4781222035971428,0.21135938,-0.09040806,0.14049901
725,7.25,-0.4087959,0.77781045,0.4249037,0.21135938,-0.09040806,0.14049901
726,7.26,-0.3709566885494173,0.7451606118165671,0.4830679471490605,0.21135938,-0.09040806,0.14049901
727,7.27,-0.32337585,0.70410514,0.55620646,0.21135938,-0.09040806,0.14049901
728,7.28,-0.32337585,0.70410514,0.55620646,0.21135938,-0.09040806,0.14049901
729,7.29,-0.32337585,0.70410514,0.55620646,0.21135938,-0.09040806,0.14049901
730,7.3,-0.32337585,0.70410514,0.55620646,0.21135938,-0.09040806,0.14049901
731,7.31,-0.32337585,0.70410514,0.55620646,0.1727777977654727,0.112145217554602,0.2080167668965014
732,7.32,-0.32337585,0.70410514,0.55620646,0.15515977,0.20463985,0.23884831
733,7.33,-0.32337585,0.70410514,0.55620646,0.15515977,0.20463985,0.23884831
734,7.34,-0.32337585,0.70410514,0.55620646,0.15515977,0.20463985,0.23884831
735,7.35,-0.32337585,0.70410514,0.55620646,0.15515977,0.20463985,0.23884831
736,7.36,-0.32337585,0.70410514,0.55620646,0.1950192693790168,0.1910613489144283,0.2186995539632469
737,7.37,-0.32337585,0.70410514,0.55620646,0.21074851,0.18570304,0.21074851
738,7.38,-0.32337585,0.70410514,0.55620646,0.21074851,0.18570304,0.21074851
739,7.39,-0.32337585,0.70410514,0.55620646,0.21074851,0.18570304,0.21074851
740,7.4,-0.32337585,0.70410514,0.55620646,0.21074851,0.18570304,0.21074851
741,7.41,-0.3150397611994278,0.7055072880444011,0.5529190931587911,0.21074851,0.18570304,0.21074851
742,7.42,0.4642953538270493,0.8365931286117958,0.2455854650486956,0.21074851,0.18570304,0.21074851
743,7.43,0.4978768,0.8422416,0.2323425,0.1604714660169295,0.2028303724286366,0.2361632771005941
744,7.44,0.4978768,0.8422416,0.2323425,0.15515977,0.20463985,0.23884831
745,7.45,0.4978768,0.8422416,0.2323425,0.15515977,0.20463985,0.23884831
746,7.46,0.186528019743154,0.8009002831485986,0.3694467221201449,0.15515977,0.20463985,0.23884831
747,7.47,-0.2968646353839945,0.7405469317258494,0.5821549468885582,0.15515977,0.20463985,0.23884831
748,7.48,-0.2956764577433546,0.7492289680035255,0.5760795699248035,0.1314891411019378,0.1786617075013038,0.2105626526212102
749,7.49,-0.3120093105457762,0.7232639131388366,0.5476017849746752,-0.0351772124324823,-0.0042519911799212,0.0114015997844268
750,7.5,-0.290548487637817,0.7486310529961411,0.5614954519018743,-0.039095376,-0.008552114,0.0067195175
751,7.51,-0.3141238078264478,0.7305797247709382,0.5459598764493447,0.020792358095824,-0.0425792330796335,0.001728873363369
752,7.52,-0.32410803,0.72216535,0.53936654,0.04153884,-0.054367006,0.0
753,7.53,-0.32410803,0.72216535,0.53936654,0.04153884,-0.054367006,0.0
754,7.54,-0.32410803,0.72216535,0.53936654,0.04153884,-0.054367006,0.0
755,7.55,-0.32410803,0.72216535,0.53936654,0.041176961452601,-0.052617928427647,-0.0036790940234703
756,7.56,-0.32410803,0.72216535,0.53936654,0.0379380287590115,-0.0369631056329922,-0.0366082024247759
757,7.57,-0.32410803,0.72216535,0.53936654,0.037873644,-0.036651913,-0.03726278
758,7.58,-0.32410803,0.72216535,0.53936654,0.037873644,-0.036651913,-0.03726278
759,7.59,-0.32410803,0.72216535,0.53936654,0.037873644,-0.036651913,-0.03726278
760,7.6,-0.32410803,0.72216535,0.53936654,0.0296458315730766,-0.0374746944851363,-0.0117565601565647
761,7.61,-0.32410803,0.72216535,0.53936654,0.007330383,-0.03970624,0.057421334
762,7.62,-0.32410803,0.72216535,0.53936654,0.007330383,-0.03970624,0.057421334
763,7.63,-0.32410803,0.72216535,0.53936654,0.007330383,-0.03970624,0.057421334
764,7.64,-0.32410803,0.72216535,0.53936654,0.007330383,-0.03970624,0.057421334
765,7.65,-0.32410803,0.72216535,0.53936654,0.0054590680186427,-0.0175177919606318,0.0512727262822936
766,7.66,-0.3252251735669014,0.7211102733552555,0.5504759290908313,0.0030543262,0.010995574,0.04337143
767,7.67,-0.3252542911639489,0.7209880156484281,0.5817045143332954,0.0030543262,0.010995574,0.04337143
768,7.68,-0.3022963878834537,0.7420003753857447,0.5721711102221465,0.0030543262,0.010995574,0.04337143
769,7.69,-0.3085679662648189,0.7379426574680499,0.5997770217131273,0.0030543262,0.010995574,0.04337143
770,7.7,-0.3121492,0.7353445,0.6113634,0.0030543262,0.010995574,0.04337143
771,7.71,-0.3121492,0.7353445,0.6113634,0.0030543262,0.010995574,0.04337143
772,7.72,-0.3121492,0.7353445,0.6113634,0.0030543262,0.010995574,0.04337143
773,7.73,-0.3090592583202075,0.7355758422426324,0.6115355616176702,0.0027850053359736,0.0110494381710417,0.0429270506091129
774,7.74,0.0258977029963456,0.7606538866352178,0.6301982867711186,-0.0264100111341952,0.0168884412739039,-0.0052447227989929
775,7.75,0.10836142,0.7668279,0.6347929,-0.03359759,0.018325957,-0.017104227
776,7.76,0.10836142,0.7668279,0.6347929,-0.03359759,0.018325957,-0.017104227
777,7.77,0.10836142,0.7668279,0.6347929,-0.03359759,0.018325957,-0.017104227
778,7.78,0.10836142,0.7668279,0.6347929,-0.03359759,0.018325957,-0.017104227
779,7.79,0.10836142,0.7668279,0.6347929,-0.03359759,0.018325957,-0.017104227
780,7.8,0.135758165806369,0.7660385236391486,0.6116560557188728,-0.03359759,0.018325957,-0.017104227
781,7.81,0.5253902033849108,0.7548121421532357,0.2826076408411731,-0.03359759,0.018325957,-0.017104227
782,7.82,0.59964865,0.75267255,0.21989559,-0.03359759,0.018325957,-0.017104227
783,7.83,0.59964865,0.75267255,0.21989559,-0.03359759,0.018325957,-0.017104227
784,7.84,0.59964865,0.75267255,0.21989559,-0.03359759,0.018325957,-0.017104227
785,7.85,0.59964865,0.75267255,0.21989559,-0.0065971483261085,-0.0121109021854275,-0.0666868523348916
786,7.86,0.59964865,0.75267255,0.21989559,0.06719518,-0.095294975,-0.20219639
787,7.87,0.59964865,0.75267255,0.21989559,0.06719518,-0.095294975,-0.20219639
788,7.88,0.59964865,0.75267255,0.21989559,0.06719518,-0.095294975,-0.20219639
789,7.89,0.59964865,0.75267255,0.21989559,0.06719518,-0.095294975,-0.20219639
790,7.9,0.1527758218863624,0.7364440106936385,0.3919416544820724,0.06719518,-0.095294975,-0.20219639
791,7.91,-0.3277689,0.71899265,0.5769514,0.1747237666230528,-0.1497575098764738,-0.0768627499154956
792,7.92,-0.3277689,0.71899265,0.5769514,0.44348818,-0.28588495,0.23640485
793,7.93,-0.3277689,0.71899265,0.5769514,0.44348818,-0.28588495,0.23640485
794,7.94,-0.3277689,0.71899265,0.5769514,0.44348818,-0.28588495,0.23640485
795,7.95,-0.3277689,0.71899265,0.5769514,0.44348818,-0.28588495,0.23640485
796,7.96,-0.3132996385560131,0.7312268314476489,0.584127185429308,0.44348818,-0.28588495,0.23640485
797,7.97,-0.29774985,0.74437463,0.59183884,0.44348818,-0.28588495,0.23640485
798,7.98,-0.2963825275026243,0.7454311939117331,0.5936722927361137,0.44348818,-0.28588495,0.23640485
799,7.99,-0.2872255109352225,0.7525070470940128,0.6059510032176308,0.44348818,-0.28588495,0.23640485
800,8.0,-0.28701133,0.75267255,0.6062382,0.44348818,-0.28588495,0.23640485
801,8.01,-0.28701133,0.75267255,0.6062382,0.44348818,-0.28588495,0.23640485
802,8.02,-0.28701133,0.75267255,0.6062382,0.44348818,-0.28588495,0.23640485
803,8.03,-0.28701133,0.75267255,0.6062382,0.44348818,-0.28588495,0.23640485
804,8.04,-0.28701133,0.75267255,0.6062382,0.44348818,-0.28588495,0.23640485
805,8.05,-0.28701133,0.75267255,0.6062382,0.44348818,-0.28588495,0.23640485
806,8.06,-0.28701133,0.75267255,0.6062382,0.44348818,-0.28588495,0.23640485
807,8.07,-0.28701133,0.75267255,0.6062382,0.44348818,-0.28588495,0.23640485
808,8.08,-0.28701133,0.75267255,0.6062382,0.44348818,-0.28588495,0.23640485
809,8.09,-0.28701133,0.75267255,0.6062382,0.44348818,-0.28588495,0.23640485
810,8.1,-0.28701133,0.75267255,0.6062382,0.44348818,-0.28588495,0.23640485
811,8.11,-0.1622573519422335,0.7617755351619049,0.5447034123946227,0.44348818,-0.28588495,0.23640485
812,8.12,0.5625519,0.81466305,0.1871919,0.44348818,-0.28588495,0.23640485
813,8.13,0.5625519,0.81466305,0.1871919,0.44348818,-0.28588495,0.23640485
814,8.14,0.5625519,0.81466305,0.1871919,0.44348818,-0.28588495,0.23640485
815,8.15,0.5625519,0.81466305,0.1871919,0.1600146278742524,-0.1219041350866922,0.1158091009203082
816,8.16,0.5625519,0.81466305,0.1871919,-0.027488936,-0.013439035,0.03604105
817,8.17,0.3682783710537934,0.796308648500716,0.2747702272683908,-0.027488936,-0.013439035,0.03604105
818,8.18,-0.3095257184041429,0.7329099697796572,0.5752314485312422,-0.0265209392016907,-0.0130088142271619,0.0347772763912029
819,8.19,-0.3371556571377279,0.7418605263387248,0.4954548440901786,-0.0089882804901976,-0.0052165219448542,0.0118874162074386
820,8.2,-0.34265637,0.74364245,0.4795725,-0.005497787,-0.0036651916,0.007330383
821,8.21,-0.34265637,0.74364245,0.4795725,-0.005497787,-0.0036651916,0.007330383
822,8.22,-0.1062988270796581,0.6552835517892068,0.7254363638366212,0.0047711892889857,-0.0242031435219503,0.0025715889599773
823,8.23,0.23380683,0.5281399,1.0792211,-0.0001322515601278,-0.030020030625738,-0.0057783425808756
824,8.24,0.23380683,0.5281399,1.0792211,-0.06047566,0.042760566,-0.01038471
825,8.25,0.23380683,0.5281399,1.0792211,-0.06047566,0.042760566,-0.01038471
826,8.26,0.23380683,0.5281399,1.0792211,-0.06047566,0.042760566,-0.01038471
827,8.27,0.23380683,0.5281399,1.0792211,-0.0234172567251724,-0.0019358270290191,-0.0075558240311201
828,8.28,0.1029495828011301,0.5812465792036481,0.9565387228531894,0.019547688,-0.05375614,-0.004276057
829,8.29,-0.3014107,0.74535084,0.5774395,0.019547688,-0.05375614,-0.004276057
830,8.3,-0.3014107,0.74535084,0.5774395,0.019547688,-0.05375614,-0.004276057
831,8.31,-0.3014107,0.74535084,0.5774395,0.019547688,-0.05375614,-0.004276057
832,8.32,-0.3014107,0.74535084,0.5774395,0.019547688,-0.05375614,-0.004276057
833,8.33,-0.0841031424199623,0.7527280375508701,0.4971036527532314,0.019547688,-0.05375614,-0.004276057
834,8.34,0.61160743,0.77634615,0.23990828,0.019547688,-0.05375614,-0.004276057
835,8.35,0.61160743,0.77634615,0.23990828,0.019547688,-0.05375614,-0.004276057
836,8.36,0.61160743,0.77634615,0.23990828,0.019547688,-0.05375614,-0.004276057
837,8.37,0.61160743,0.77634615,0.23990828,0.019547688,-0.05375614,-0.004276057
838,8.38,0.61160743,0.77634615,0.23990828,0.019547688,-0.05375614,-0.004276057
839,8.39,0.61160743,0.77634615,0.23990828,0.0108133235377837,-0.04911600854433,-0.0045490057777384
840,8.4,0.61160743,0.77634615,0.23990828,0.0,-0.04337143,-0.004886922
841,8.41,0.61160743,0.77634615,0.23990828,0.0,-0.04337143,-0.004886922
842,8.42,0.61160743,0.77634615,0.23990828,0.0,-0.04337143,-0.004886922
843,8.43,0.61160743,0.77634615,0.23990828,0.0,-0.04337143,-0.004886922
844,8.44,0.0337816989080856,0.7498375662264657,0.4627029229041473,0.0,-0.04337143,-0.004886922
845,8.45,-0.30873242,0.73412424,0.5947675,0.0,-0.04337143,-0.004886922
846,8.46,-0.30873242,0.73412424,0.5947675,0.0070870246419587,-0.0229962352118075,0.0079583093024928
847,8.47,-0.3065061025903916,0.7251053852271655,0.5914507425879567,0.029321533,0.040927973,0.048258353
848,8.48,-0.2878932355965927,0.6497043019859923,0.5637213791581858,0.029321533,0.040927973,0.048258353
849,8.49,-0.2848148,0.6372335,0.55913514,0.0069001895035232,0.3462031716292476,-0.034959322950284
850,8.5,-0.2771615616555719,0.7130946810992901,0.5912250972330713,-0.002443461,0.47342056,-0.06963864
851,8.51,-0.27090356,0.77512586,0.61746484,-0.002443461,0.47342056,-0.06963864
852,8.52,-0.27090356,0.77512586,0.61746484,-0.002443461,0.47342056,-0.06963864
853,8.53,-0.27090356,0.77512586,0.61746484,-0.002443461,0.47342056,-0.06963864
854,8.54,-0.27090356,0.77512586,0.61746484,-0.002443461,0.47342056,-0.06963864
855,8.55,-0.3016253136802103,0.7418274293803729,0.5990317683008797,0.0506391091166991,0.1187099293235075,-0.0011770055092951
856,8.56,-0.30873242,0.73412424,0.5947675,0.06291912,0.036651913,0.014660766
857,8.57,-0.30873242,0.73412424,0.5947675,0.06291912,0.036651913,0.014660766
858,8.58,-0.30873242,0.73412424,0.5947675,0.0419511546961473,0.2546816340732812,-0.0068638712453221
859,8.59,-0.30873242,0.73412424,0.5947675,-0.0061086523,0.75441855,-0.056199603
860,8.6,-0.30873242,0.73412424,0.5947675,-0.0061086523,0.75441855,-0.056199603
861,8.61,-0.30873242,0.73412424,0.5947675,-0.0061086523,0.75441855,-0.056199603
862,8.62,-0.30873242,0.73412424,0.5947675,-0.0048910041665402,0.6610655296462097,-0.0606643135646426
863,8.63,-0.30873242,0.73412424,0.5947675,-0.002443461,0.47342056,-0.06963864
864,8.64,-0.30873242,0.73412424,0.5947675,-0.002443461,0.47342056,-0.06963864
865,8.65,-0.30873242,0.73412424,0.5947675,-0.002443461,0.47342056,-0.06963864
866,8.66,-0.30873242,0.73412424,0.5947675,-0.002443461,0.47342056,-0.06963864
867,8.67,-0.30873242,0.73412424,0.5947675,-0.002443461,0.47342056,-0.06963864
868,8.68,-0.30873242,0.73412424,0.5947675,0.0458418598712978,0.474598250270982,-0.0981976411207256
869,8.69,-0.30873242,0.73412424,0.5947675,0.0623849234649293,0.3146274648768411,-0.0906780744051138
870,8.7,-0.30873242,0.73412424,0.5947675,-0.007941248,-0.0061086523,-0.014660766
871,8.71,-0.3086932012985887,0.7346602182957755,0.5942903498902511,-0.007941248,-0.0061086523,-0.014660766
872,8.72,-0.3075155778327402,0.7507540866692395,0.5799629207364819,-0.007941248,-0.0061086523,-0.014660766
873,8.73,-0.3362070258097545,0.7486913963697941,0.541633337348701,-0.007941248,-0.0061086523,-0.014660766
874,8.74,-0.3526627,0.7455949,0.5215503,-0.007941248,-0.0061086523,-0.014660766
875,8.75,-0.3526627,0.7455949,0.5215503,-0.0085168732745707,-0.0059647460284728,-0.012646078316409
876,8.76,-0.3526627,0.7455949,0.5215503,-0.0062189456758504,-0.0132767138976486,-0.001220255610761
877,8.77,-0.3526627,0.7455949,0.5215503,0.0891007525732098,-0.1912716523743345,0.1106344872604876
878,8.78,-0.3526627,0.7455949,0.5215503,0.10934488,-0.22907446,0.13439035
879,8.79,-0.1685623970042815,0.7526139557028676,0.5607568549863224,0.10934488,-0.22907446,0.13439035
880,8.8,0.09542638,0.76267886,0.6169767,0.10934488,-0.22907446,0.13439035
881,8.81,0.09542638,0.76267886,0.6169767,0.10934488,-0.22907446,0.13439035
882,8.82,0.09542638,0.76267886,0.6169767,0.10934488,-0.22907446,0.13439035
883,8.83,0.09542638,0.76267886,0.6169767,0.10934488,-0.22907446,0.13439035
884,8.84,0.09542638,0.76267886,0.6169767,0.0704095789224095,-0.1061651876947929,0.0636754263967463
885,8.85,0.09542638,0.76267886,0.6169767,0.007654014736336,0.1153226141115353,-0.0762112672823151
886,8.86,0.09542638,0.76267886,0.6169767,0.0711384397648556,0.0460668732620222,-0.1062220849369036
887,8.87,0.09542638,0.76267886,0.6169767,0.0548479672514261,-0.0159360205832213,-0.0500551633334564
888,8.88,0.09542638,0.76267886,0.6169767,0.007330383,-0.05375614,0.02687807
889,8.89,0.09542638,0.76267886,0.6169767,0.0115769039017566,-0.0419236018673022,0.0195394223400815
890,8.9,0.09542638,0.76267886,0.6169767,0.0638005844829773,0.1035928588315014,-0.0707112087426862
891,8.91,0.09542638,0.76267886,0.6169767,0.070249505,0.12156218,-0.081855945
892,8.92,0.09542638,0.76267886,0.6169767,0.070249505,0.12156218,-0.081855945
893,8.93,0.09542638,0.76267886,0.6169767,0.070249505,0.12156218,-0.081855945
894,8.94,0.09542638,0.76267886,0.6169767,0.070249505,0.12156218,-0.081855945
895,8.95,0.09542638,0.76267886,0.6169767,0.070249505,0.12156218,-0.081855945
896,8.96,-0.2408507053793515,0.7463811688571204,0.5452665354669394,0.070249505,0.12156218,-0.081855945
897,8.97,-0.3577879,0.7407138,0.52033,0.070249505,0.12156218,-0.081855945
898,8.98,-0.3577879,0.7407138,0.52033,0.070249505,0.12156218,-0.081855945
899,8.99,-0.3577879,0.7407138,0.52033,0.070249505,0.12156218,-0.081855945
900,9.0,-0.3577879,0.7407138,0.52033,0.070249505,0.12156218,-0.081855945
901,9.01,-0.3577879,0.7407138,0.52033,0.070249505,0.12156218,-0.081855945
902,9.02,-0.33449882933314,0.7621690706066303,0.5111610748364235,0.070249505,0.12156218,-0.081855945
903,9.03,-0.32679266,0.76926845,0.50812715,0.070249505,0.12156218,-0.081855945
904,9.04,-0.32679266,0.76926845,0.50812715,0.070249505,0.12156218,-0.081855945
905,9.05,-0.32679266,0.76926845,0.50812715,0.070249505,0.12156218,-0.081855945
906,9.06,-0.32679266,0.76926845,0.50812715,0.0645371700128324,0.1118206092946954,-0.0824169776610793
907,9.07,-0.32679266,0.76926845,0.50812715,0.0059604862827725,0.0119264491096699,-0.088170042357758
908,9.08,-0.32679266,0.76926845,0.50812715,0.0018325958,0.004886922,-0.08857546
909,9.09,-0.32679266,0.76926845,0.50812715,0.0018325958,0.004886922,-0.08857546
910,9.1,-0.32679266,0.76926845,0.50812715,0.0018325958,0.004886922,-0.08857546
911,9.11,-0.32679266,0.76926845,0.50812715,0.0018325958,0.004886922,-0.08857546
912,9.12,-0.32679266,0.76926845,0.50812715,0.0018325958,0.004886922,-0.08857546
913,9.13,-0.32679266,0.76926845,0.50812715,0.0018325958,0.004886922,-0.08857546
914,9.14,-0.3280418731196725,0.7642715815258951,0.519604324128795,0.0018325958,0.004886922,-0.08857546
915,9.15,-0.2251808763728102,0.747320063690742,0.5183435960657883,0.0034166434309981,0.0019348331967074,-0.0815192478448411
916,9.16,0.5444241911804405,0.7011605738206438,0.3311877216505097,0.0149701810007898,-0.0195967598127206,-0.0300534897200837
917,9.17,0.5645044,0.6999562,0.32630453,0.015271631,-0.020158553,-0.028710667
918,9.18,0.0490989779848268,0.7342704419243337,0.4333981734149845,0.015271631,-0.020158553,-0.028710667
919,9.19,0.0405202971981251,0.7568347725759955,0.4272563827201642,0.015271631,-0.020158553,-0.028710667
920,9.2,0.58305275,0.75169635,0.30336314,0.015271631,-0.020158553,-0.028710667
921,9.21,0.58305275,0.75169635,0.30336314,0.015271631,-0.020158553,-0.028710667
922,9.22,0.58305275,0.75169635,0.30336314,0.015271631,-0.020158553,-0.028710667
923,9.23,0.58305275,0.75169635,0.30336314,0.015271631,-0.020158553,-0.028710667
924,9.24,0.2742124665891569,0.7597242636933402,0.5127197207951119,0.015271631,-0.020158553,-0.028710667
925,9.25,-0.1359030747581383,0.7553191121453785,0.577127400461934,0.015271631,-0.020158553,-0.028710667
926,9.26,-0.3523278183465407,0.7569822907696381,0.5506528038909032,0.0045926115951501,0.0127873594414096,0.0044624581612303
927,9.27,-0.3270367,0.77414954,0.5886661,-0.013439035,0.06841691,0.06047566
928,9.28,-0.3270367,0.77414954,0.5886661,-0.0131141895540152,0.0675032821089056,0.0613791364746983
929,9.29,-0.3270367,0.77414954,0.5886661,0.0024196091677099,0.0238144696529091,0.1045825179019231
930,9.3,-0.3270367,0.77414954,0.5886661,0.0061086523,0.013439035,0.11484267
931,9.31,-0.3270367,0.77414954,0.5886661,0.0061086523,0.013439035,0.11484267
932,9.32,-0.3270367,0.77414954,0.5886661,0.0061086523,0.013439035,0.11484267
933,9.33,-0.3270367,0.77414954,0.5886661,0.0061086523,0.013439035,0.11484267
934,9.34,-0.3473380138090089,0.7535234614413975,0.5698264438388657,0.0061086523,0.013439035,0.11484267
935,9.35,-0.35754386,0.74315435,0.5603554,0.0061086523,0.013439035,0.11484267
936,9.36,-0.35754386,0.74315435,0.5603554,0.0061086523,0.013439035,0.11484267
937,9.37,-0.3561810247301425,0.7430407775504336,0.5547147756409823,0.0061086523,0.013439035,0.11484267
938,9.38,-0.3490156724839349,0.742443649911748,0.5250581756726479,0.0061086523,0.013439035,0.11484267
939,9.39,-0.3487578,0.74242216,0.52399087,0.0061086523,0.013439035,0.11484267
940,9.4,-0.3487578,0.74242216,0.52399087,-0.0172750574353654,0.0163170299682463,0.0371368040905944
941,9.41,-0.3487578,0.74242216,0.52399087,-0.03359759,0.018325957,-0.017104227
942,9.42,-0.3487578,0.74242216,0.52399087,-0.0311562897443515,-0.0050591274563331,-0.0100373061261877
943,9.43,-0.3487578,0.74242216,0.52399087,-0.021991149,-0.09285152,0.016493361
944,9.44,-0.3487578,0.74242216,0.52399087,-0.021991149,-0.09285152,0.016493361
945,9.45,-0.3487578,0.74242216,0.52399087,-0.021991149,-0.09285152,0.016493361
946,9.46,-0.3435573018396373,0.7492228131216254,0.5275912514452884,-0.021991149,-0.09285152,0.016493361
947,9.47,-0.3392396,0.75486904,0.53058046,-0.0385647227407178,-0.0384349535779988,0.0071016696959276
948,9.48,-0.3392396,0.75486904,0.53058046,-0.058643065,0.027488936,-0.004276057
949,9.49,-0.3392396,0.75486904,0.53058046,-0.058643065,0.027488936,-0.004276057
950,9.5,-0.3392396,0.75486904,0.53058046,-0.058643065,0.027488936,-0.004276057
951,9.51,-0.3392396,0.75486904,0.53058046,-0.058643065,0.027488936,-0.004276057
952,9.52,-0.3392396,0.75486904,0.53058046,-0.058643065,0.027488936,-0.004276057
953,9.53,-0.3392396,0.75486904,0.53058046,-0.058643065,0.027488936,-0.004276057
954,9.54,-0.3392396,0.75486904,0.53058046,-0.058643065,0.027488936,-0.004276057
955,9.55,-0.3392396,0.75486904,0.53058046,-0.058643065,0.027488936,-0.004276057
956,9.56,-0.3004228029641576,0.7301002210992673,0.5555341152373273,0.0028895830995484,-0.0257159834725322,-0.0283339342303688
957,9.57,-0.3204351694380321,0.7446071231307657,0.5329387976424185,0.022602014,-0.042760566,-0.03604105
958,9.58,-0.34338856,0.7604824,0.5112999,0.022602014,-0.042760566,-0.03604105
959,9.59,-0.34338856,0.7604824,0.5112999,0.022602014,-0.042760566,-0.03604105
960,9.6,-0.3433891797877929,0.7604819351464579,0.5113319736881509,0.022602014,-0.042760566,-0.03604105
961,9.61,-0.344167496679762,0.7598981815322854,0.5516094582724606,0.022602014,-0.042760566,-0.03604105
962,9.62,-0.3443648,0.7597502,0.5618198,0.022602014,-0.042760566,-0.03604105
963,9.63,-0.3443648,0.7597502,0.5618198,0.0149275054691998,-0.0070574166676129,-0.0363747230727371
964,9.64,-0.3443648,0.7597502,0.5618198,0.008552114,0.022602014,-0.036651913
965,9.65,-0.3461283544540662,0.7579297536096837,0.5565291226519934,0.008552114,0.022602014,-0.036651913
966,9.66,-0.35193056,0.75194037,0.53912246,0.008552114,0.022602014,-0.036651913
967,9.67,-0.35193056,0.75194037,0.53912246,0.008552114,0.022602014,-0.036651913
968,9.68,0.2807068291337877,0.7898581528789977,0.2907187527294995,0.0009595787454214,0.052550345624454,-0.0244194965092237
969,9.69,0.56426036,0.80685323,0.17938207,-0.002443461,0.065973446,-0.018936822
970,9.7,0.56426036,0.80685323,0.17938207,-0.002443461,0.065973446,-0.018936822
971,9.71,0.56426036,0.80685323,0.17938207,-0.002443461,0.065973446,-0.018936822
972,9.72,0.56426036,0.80685323,0.17938207,-0.002443461,0.065973446,-0.018936822
973,9.73,0.56426036,0.80685323,0.17938207,-0.002443461,0.065973446,-0.018936822
974,9.74,0.56426036,0.80685323,0.17938207,-0.002443461,0.065973446,-0.018936822
975,9.75,0.56426036,0.80685323,0.17938207,-0.002443461,0.065973446,-0.018936822
976,9.76,0.56426036,0.80685323,0.17938207,-0.0115516745839745,0.0251095685889628,0.0034644591974615
977,9.77,0.56426036,0.80685323,0.17938207,-0.025045475,-0.035430185,0.036651913
978,9.78,0.56426036,0.80685323,0.17938207,-0.02495801533611,-0.0352521421102387,0.0364051518144015
979,9.79,0.56426036,0.80685323,0.17938207,-0.0113272031298045,-0.0075037025775106,-0.0020532098016246
980,9.8,0.56426036,0.80685323,0.17938207,-0.007941248,-0.00061086525,-0.01160644
981,9.81,0.56426036,0.80685323,0.17938207,-0.007941248,-0.00061086525,-0.01160644
982,9.82,0.2394425451080303,0.7875416298469093,0.3125625851782994,-0.007941248,-0.00061086525,-0.01160644
983,9.83,-0.34704942,0.75267255,0.5530337,-0.007941248,-0.00061086525,-0.01160644
984,9.84,-0.34704942,0.75267255,0.5530337,-0.007941248,-0.00061086525,-0.01160644
985,9.85,-0.34704942,0.75267255,0.5530337,0.0081630795153357,0.0539360475855576,-0.0193988579113301
986,9.86,-0.34704942,0.75267255,0.5530337,0.010995574,0.06352998,-0.02076942
987,9.87,-0.34704942,0.75267255,0.5530337,0.0135819644933589,0.06352998,-0.0170745763516509
988,9.88,-0.34704942,0.75267255,0.5530337,0.019547688,0.06352998,-0.008552114
989,9.89,-0.34704942,0.75267255,0.5530337,0.019547688,0.06352998,-0.008552114
990,9.9,-0.34704942,0.75267255,0.5530337,0.019547688,0.06352998,-0.008552114
991,9.91,-0.34704942,0.75267255,0.5530337,0.019547688,0.06352998,-0.008552114
992,9.92,-0.34704942,0.75267255,0.5530337,0.019547688,0.06352998,-0.008552114
993,9.93,-0.3413988377506721,0.7552747880173438,0.5544463569863457,0.019547688,0.06352998,-0.008552114
994,9.94,-0.3290576435160927,0.7486269931262552,0.5822037091242545,0.019547688,0.06352998,-0.008552114
995,9.95,-0.3315875342056233,0.6914126310862951,0.693713277039326,0.019547688,0.06352998,-0.008552114
996,9.96,-0.3318980291151177,0.7589747745737169,0.5479503241164653,0.019547688,0.06352998,-0.008552114
997,9.97,-0.33191785,0.76511943,0.5347294,0.019547688,0.06352998,-0.008552114
998,9.98,-0.33191785,0.76511943,0.5347294,0.019547688,0.06352998,-0.008552114
999,9.99,-0.33191785,0.76511943,0.5347294,0.019547688,0.06352998,-0.008552114
