id,timestamp,acc_x,acc_y,acc_z,gyro_x,gyro_y,gyro_z
1,0.01,-0.033679903,0.35754386,0.92278045,0.13805555,-0.118507855,-0.047036625
2,0.02,-0.033679903,0.35754386,0.92278045,0.13805555,-0.118507855,-0.047036625
3,0.03,-0.033679903,0.35754386,0.92278045,0.13805555,-0.118507855,-0.047036625
4,0.04,-0.033679903,0.35754386,0.92278045,0.13805555,-0.118507855,-0.047036625
5,0.05,-0.0307255590953597,0.3637479877680994,0.9252916267033404,0.13805555,-0.118507855,-0.047036625
6,0.06,-0.028798755,0.36779428,0.9269294,0.0922861199114685,-0.1108284237962611,-0.0445792045005225
7,0.07,-0.028798755,0.36779428,0.9269294,0.047036625,-0.10323623,-0.0421497
8,0.08,-0.028798755,0.36779428,0.9269294,0.047036625,-0.10323623,-0.0421497
9,0.09,-0.028798755,0.36779428,0.9269294,0.047036625,-0.10323623,-0.0421497
10,0.1,-0.028798755,0.36779428,0.9269294,0.047036625,-0.10323623,-0.0421497
11,0.11,-0.028798755,0.36779428,0.9269294,0.047036625,-0.10323623,-0.0421497
12,0.12,-0.028798755,0.36779428,0.9269294,0.047036625,-0.10323623,-0.0421497
13,0.13,-0.028798755,0.36779428,0.9269294,0.047036625,-0.10323623,-0.0421497
14,0.14,-0.028798755,0.36779428,0.9269294,0.047036625,-0.10323623,-0.0421497
15,0.15,-0.028798755,0.36779428,0.9269294,0.047036625,-0.10323623,-0.0421497
16,0.16,-0.0229042450343506,0.3754749894267017,0.9463991893724626,0.047036625,-0.10323623,-0.0421497
17,0.17,-0.020744866,0.37828872,0.9535317,0.047036625,-0.10323623,-0.0421497
18,0.18,-0.020744866,0.37828872,0.9535317,0.047036625,-0.10323623,-0.0421497
19,0.19,-0.020744866,0.37828872,0.9535317,0.047036625,-0.10323623,-0.0421497
20,0.2,-0.020744866,0.37828872,0.9535317,0.047036625,-0.10323623,-0.0421497
21,0.21,-0.020744866,0.37828872,0.9535317,0.047036625,-0.10323623,-0.0421497
22,0.22,-0.020744866,0.37828872,0.9535317,0.047036625,-0.10323623,-0.0421497
23,0.23,-0.0252114922658035,0.3723332201198222,0.9386429435212048,0.047036625,-0.10323623,-0.0421497
24,0.24,-0.027334413,0.36950266,0.93156654,0.047036625,-0.10323623,-0.0421497
25,0.25,-0.027334413,0.36950266,0.93156654,0.047036625,-0.10323623,-0.0421497
26,0.26,-0.0292527825525669,0.3678720427263612,0.9340124501898012,0.047036625,-0.10323623,-0.0421497
27,0.27,-0.0370967,0.3612047,0.9440134,0.0523913450609827,-0.1047032764143983,-0.043029928040766
28,0.28,-0.0370967,0.3612047,0.9440134,0.09162979,-0.115453534,-0.049480084
29,0.29,-0.0370967,0.3612047,0.9440134,0.09162979,-0.115453534,-0.049480084
30,0.3,-0.0370967,0.3612047,0.9440134,0.09162979,-0.115453534,-0.049480084
31,0.31,-0.0370967,0.3612047,0.9440134,0.09162979,-0.115453534,-0.049480084
32,0.32,-0.0370967,0.3612047,0.9440134,0.09162979,-0.115453534,-0.049480084
33,0.33,-0.0370967,0.3612047,0.9440134,0.09162979,-0.115453534,-0.049480084
34,0.34,-0.0370967,0.3612047,0.9440134,0.09162979,-0.115453534,-0.049480084
35,0.35,-0.0370967,0.3612047,0.9440134,0.09162979,-0.115453534,-0.049480084
36,0.36,-0.0370967,0.3612047,0.9440134,0.09162979,-0.115453534,-0.049480084
37,0.37,-0.0370967,0.3612047,0.9440134,0.09162979,-0.115453534,-0.049480084
38,0.38,-0.0370967,0.3612047,0.9440134,0.09162979,-0.115453534,-0.049480084
39,0.39,-0.0370967,0.3612047,0.9440134,0.09162979,-0.115453534,-0.049480084
40,0.4,-0.0370967,0.3612047,0.9440134,0.09162979,-0.115453534,-0.049480084
41,0.41,-0.0370967,0.3612047,0.9440134,0.09162979,-0.115453534,-0.049480084
42,0.42,-0.0370967,0.3612047,0.9440134,0.09162979,-0.115453534,-0.049480084
43,0.43,-0.0370967,0.3612047,0.9440134,0.09162979,-0.115453534,-0.049480084
44,0.44,-0.0370967,0.3612047,0.9440134,0.09162979,-0.115453534,-0.049480084
45,0.45,-0.0370967,0.3612047,0.9440134,0.09162979,-0.115453534,-0.049480084
46,0.46,-0.0370967,0.3612047,0.9440134,0.09162979,-0.115453534,-0.049480084
47,0.47,-0.0370967,0.3612047,0.9440134,0.09162979,-0.115453534,-0.049480084
48,0.48,-0.0375541947252987,0.3612555332101034,0.9423867497735864,0.09162979,-0.115453534,-0.049480084
49,0.49,-0.03929322,0.36144876,0.93620354,0.09162979,-0.115453534,-0.049480084
50,0.5,-0.03929322,0.36144876,0.93620354,0.09162979,-0.115453534,-0.049480084
51,0.51,-0.03929322,0.36144876,0.93620354,0.0530270525205021,-0.1042695606127421,-0.054170137089227
52,0.52,-0.03929322,0.36144876,0.93620354,0.026267206,-0.096516706,-0.057421334
53,0.53,-0.03929322,0.36144876,0.93620354,0.026267206,-0.096516706,-0.057421334
54,0.54,-0.03929322,0.36144876,0.93620354,0.026267206,-0.096516706,-0.057421334
55,0.55,-0.03929322,0.36144876,0.93620354,0.026267206,-0.096516706,-0.057421334
56,0.56,-0.03929322,0.36144876,0.93620354,0.026267206,-0.096516706,-0.057421334
57,0.57,-0.0314052425872627,0.3682098915317065,0.9377401844608856,0.026267206,-0.096516706,-0.057421334
58,0.58,-0.0232487328095005,0.3742361560218832,0.9384332355350689,0.026267206,-0.096516706,-0.057421334
59,0.59,-0.032215554,0.36340126,0.93376297,0.026267206,-0.096516706,-0.057421334
60,0.6,-0.032215554,0.36340126,0.93376297,0.026267206,-0.096516706,-0.057421334
61,0.61,-0.0286042133913452,0.3737428236897533,0.8981420254126443,0.026267206,-0.096516706,-0.057421334
62,0.62,-0.026846299,0.37877685,0.8808026,0.026267206,-0.096516706,-0.057421334
63,0.63,-0.026846299,0.37877685,0.8808026,0.026267206,-0.096516706,-0.057421334
64,0.64,-0.0268777381770982,0.378179504089306,0.884072279828612,0.026267206,-0.096516706,-0.057421334
65,0.65,-0.0271373894685267,0.3732461167854098,0.91107605882082,0.026267206,-0.096516706,-0.057421334
66,0.66,-0.027334413,0.36950266,0.93156654,0.026267206,-0.096516706,-0.057421334
67,0.67,-0.027334413,0.36950266,0.93156654,0.026267206,-0.096516706,-0.057421334
68,0.68,-0.027334413,0.36950266,0.93156654,0.2415158664499445,-0.0803097504908413,-0.0594472019877225
69,0.69,-0.027334413,0.36950266,0.93156654,0.28588495,-0.07696902,-0.059864793
70,0.7,-0.027334413,0.36950266,0.93156654,0.28588495,-0.07696902,-0.059864793
71,0.71,-0.027334413,0.36950266,0.93156654,0.28588495,-0.07696902,-0.059864793
72,0.72,-0.027334413,0.36950266,0.93156654,0.28588495,-0.07696902,-0.059864793
73,0.73,-0.027334413,0.36950266,0.93156654,0.28588495,-0.07696902,-0.059864793
74,0.74,-0.0279923004173948,0.3651812424146687,0.9316181390711664,0.28588495,-0.07696902,-0.059864793
75,0.75,-0.0476886502512874,0.2358032511527796,0.933162952560412,0.28588495,-0.07696902,-0.059864793
76,0.76,-0.05222825,0.20598431,0.933519,0.28588495,-0.07696902,-0.059864793
77,0.77,-0.05222825,0.20598431,0.933519,0.28588495,-0.07696902,-0.059864793
78,0.78,-0.05222825,0.20598431,0.933519,0.28588495,-0.07696902,-0.059864793
79,0.79,-0.049427713535327,0.2188739592697843,0.9339139467617268,0.2821105344389844,-0.0780474245510861,-0.0585167880099353
80,0.8,-0.0198561421587376,0.3549790192141262,0.93808428930205,0.2422555278802613,-0.0894345703917335,-0.0442828630878575
81,0.81,-0.01415532,0.38121742,0.93888825,0.23457226,-0.09162979,-0.04153884
82,0.82,-0.01415532,0.38121742,0.93888825,0.23457226,-0.09162979,-0.04153884
83,0.83,-0.01415532,0.38121742,0.93888825,0.23457226,-0.09162979,-0.04153884
84,0.84,-0.01415532,0.38121742,0.93888825,0.23457226,-0.09162979,-0.04153884
85,0.85,-0.01415532,0.38121742,0.93888825,0.23457226,-0.09162979,-0.04153884
86,0.86,-0.01415532,0.38121742,0.93888825,0.23457226,-0.09162979,-0.04153884
87,0.87,-0.01415532,0.38121742,0.93888825,0.23457226,-0.09162979,-0.04153884
88,0.88,-0.0147452587828047,0.3798900562279315,0.9210426063524284,0.23457226,-0.09162979,-0.04153884
89,0.89,-0.01513155,0.3790209,0.9093573,0.23457226,-0.09162979,-0.04153884
90,0.9,-0.01513155,0.3790209,0.9093573,0.23457226,-0.09162979,-0.04153884
91,0.91,-0.01513155,0.3790209,0.9093573,0.23457226,-0.09162979,-0.04153884
92,0.92,-0.01513155,0.3790209,0.9093573,0.23457226,-0.09162979,-0.04153884
93,0.93,-0.01513155,0.3790209,0.9093573,0.2465694392942457,-0.0859644526055426,-0.0452046436932608
94,0.94,-0.01513155,0.3790209,0.9093573,0.2565634,-0.08124508,-0.048258353
95,0.95,-0.01513155,0.3790209,0.9093573,0.2565634,-0.08124508,-0.048258353
96,0.96,-0.01513155,0.3790209,0.9093573,0.2565634,-0.08124508,-0.048258353
97,0.97,-0.01513155,0.3790209,0.9093573,0.2565634,-0.08124508,-0.048258353
98,0.98,-0.0236063491531516,0.3720594657002469,0.9202534574951936,0.2565634,-0.08124508,-0.048258353
99,0.99,-0.028798755,0.36779428,0.9269294,0.3170503121675931,-0.0256187161069761,-0.0779617523884005
100,1.0,-0.028798755,0.36779428,0.9269294,0.3933972,0.044593163,-0.115453534
101,1.01,-0.028798755,0.36779428,0.9269294,0.382437961424551,0.034814716663182,-0.110804159414572
102,1.02,-0.028798755,0.36779428,0.9269294,0.2414385313747371,-0.090992870312132,-0.0509862111036349
103,1.03,-0.028798755,0.36779428,0.9269294,0.21197024,-0.11728613,-0.03848451
104,1.04,-0.028798755,0.36779428,0.9269294,0.21197024,-0.11728613,-0.03848451
105,1.05,-0.0259504050863307,0.3718111805784235,0.9363508682757344,0.21197024,-0.11728613,-0.03848451
106,1.06,-0.019280521,0.38121742,0.9584128,0.21197024,-0.11728613,-0.03848451
107,1.07,-0.019280521,0.38121742,0.9584128,0.21197024,-0.11728613,-0.03848451
108,1.08,-0.019280521,0.38121742,0.9584128,0.21197024,-0.11728613,-0.03848451
109,1.09,-0.0271704763133845,0.369110424669833,0.938551886249683,0.21197024,-0.11728613,-0.03848451
110,1.1,-0.033435844,0.35949633,0.92278045,0.21197024,-0.11728613,-0.03848451
111,1.11,-0.033435844,0.35949633,0.92278045,0.2344948532232268,-0.1070368349042576,-0.0446817580567744
112,1.12,-0.033435844,0.35949633,0.92278045,0.32742378,-0.064751714,-0.070249505
113,1.13,-0.033435844,0.35949633,0.92278045,0.32742378,-0.064751714,-0.070249505
114,1.14,-0.033435844,0.35949633,0.92278045,0.32742378,-0.064751714,-0.070249505
115,1.15,-0.033435844,0.35949633,0.92278045,0.32742378,-0.064751714,-0.070249505
116,1.16,-0.033435844,0.35949633,0.92278045,0.32742378,-0.064751714,-0.070249505
117,1.17,-0.0325424396983155,0.3679836624465485,0.899641310287446,0.32742378,-0.064751714,-0.070249505
118,1.18,-0.03099527,0.38268176,0.85956967,0.32742378,-0.064751714,-0.070249505
119,1.19,-0.03099527,0.38268176,0.85956967,0.32742378,-0.064751714,-0.070249505
120,1.2,-0.03099527,0.38268176,0.85956967,0.32742378,-0.064751714,-0.070249505
121,1.21,-0.03099527,0.38268176,0.85956967,0.32742378,-0.064751714,-0.070249505
122,1.22,-0.03099527,0.38268176,0.85956967,0.32742378,-0.064751714,-0.070249505
123,1.23,-0.03099527,0.38268176,0.85956967,0.32742378,-0.064751714,-0.070249505
124,1.24,-0.0289681501448192,0.3808508163356551,0.8794484968789661,0.32742378,-0.064751714,-0.070249505
125,1.25,-0.023429496,0.37584817,0.93376297,0.32742378,-0.064751714,-0.070249505
126,1.26,-0.023429496,0.37584817,0.93376297,0.32742378,-0.064751714,-0.070249505
127,1.27,-0.023429496,0.37584817,0.93376297,0.32742378,-0.064751714,-0.070249505
128,1.28,-0.023429496,0.37584817,0.93376297,0.32742378,-0.064751714,-0.070249505
129,1.29,-0.0319107336364681,0.3667216132127154,0.9358833031115747,0.32742378,-0.064751714,-0.070249505
130,1.3,-0.045882765,0.35168648,0.93937635,0.32742378,-0.064751714,-0.070249505
131,1.31,-0.045882765,0.35168648,0.93937635,0.32742378,-0.064751714,-0.070249505
132,1.32,-0.045882765,0.35168648,0.93937635,0.32742378,-0.064751714,-0.070249505
133,1.33,-0.045882765,0.35168648,0.93937635,0.32742378,-0.064751714,-0.070249505
134,1.34,-0.045882765,0.35168648,0.93937635,0.355280887326901,-0.0306204832495244,-0.0835506455405062
135,1.35,-0.045882765,0.35168648,0.93937635,0.39522982,0.018325957,-0.10262536
136,1.36,-0.045882765,0.35168648,0.93937635,0.39522982,0.018325957,-0.10262536
137,1.37,-0.045882765,0.35168648,0.93937635,0.39522982,0.018325957,-0.10262536
138,1.38,-0.045882765,0.35168648,0.93937635,0.2225461860472124,-0.1074044168851573,-0.0499333809853801
139,1.39,-0.045882765,0.35168648,0.93937635,0.19303341,-0.12889257,-0.040927973
140,1.4,-0.045882765,0.35168648,0.93937635,0.19303341,-0.12889257,-0.040927973
141,1.41,-0.045882765,0.35168648,0.93937635,0.19303341,-0.12889257,-0.040927973
142,1.42,-0.045882765,0.35168648,0.93937635,0.19303341,-0.12889257,-0.040927973
143,1.43,-0.045882765,0.35168648,0.93937635,0.19303341,-0.12889257,-0.040927973
144,1.44,-0.045882765,0.35168648,0.93937635,0.19303341,-0.12889257,-0.040927973
145,1.45,-0.045882765,0.35168648,0.93937635,0.19303341,-0.12889257,-0.040927973
146,1.46,-0.045882765,0.35168648,0.93937635,0.19303341,-0.12889257,-0.040927973
147,1.47,-0.045882765,0.35168648,0.93937635,0.19303341,-0.12889257,-0.040927973
148,1.48,-0.045882765,0.35168648,0.93937635,0.19303341,-0.12889257,-0.040927973
149,1.49,-0.045882765,0.35168648,0.93937635,0.19303341,-0.12889257,-0.040927973
150,1.5,-0.0349279378402531,0.3752311757899146,0.8726663763620929,0.19303341,-0.12889257,-0.040927973
151,1.51,-0.029530926,0.38683072,0.839801,0.19303341,-0.12889257,-0.040927973
152,1.52,-0.029530926,0.38683072,0.839801,0.19303341,-0.12889257,-0.040927973
153,1.53,-0.029530926,0.38683072,0.839801,0.19303341,-0.12889257,-0.040927973
154,1.54,-0.029530926,0.38683072,0.839801,0.19303341,-0.12889257,-0.040927973
155,1.55,-0.029530926,0.38683072,0.839801,0.19303341,-0.12889257,-0.040927973
156,1.56,-0.029530926,0.38683072,0.839801,0.19303341,-0.12889257,-0.040927973
157,1.57,-0.029530926,0.38683072,0.839801,0.19303341,-0.12889257,-0.040927973
158,1.58,-0.029530926,0.38683072,0.839801,0.19303341,-0.12889257,-0.040927973
159,1.59,-0.029530926,0.38683072,0.839801,0.19303341,-0.12889257,-0.040927973
160,1.6,-0.029530926,0.38683072,0.839801,0.19303341,-0.12889257,-0.040927973
161,1.61,-0.029530926,0.38683072,0.839801,0.19303341,-0.12889257,-0.040927973
162,1.62,-0.029530926,0.38683072,0.839801,0.19303341,-0.12889257,-0.040927973
163,1.63,-0.029530926,0.38683072,0.839801,0.19303341,-0.12889257,-0.040927973
164,1.64,-0.029530926,0.38683072,0.839801,0.19303341,-0.12889257,-0.040927973
165,1.65,-0.029530926,0.38683072,0.839801,0.19303341,-0.12889257,-0.040927973
166,1.66,-0.029530926,0.38683072,0.839801,0.19303341,-0.12889257,-0.040927973
167,1.67,-0.029530926,0.38683072,0.839801,0.2843497033923308,-0.023958942765856,-0.0901907064462312
168,1.68,-0.029530926,0.38683072,0.839801,0.3323107,0.031154128,-0.1160644
169,1.69,-0.029530926,0.38683072,0.839801,0.3323107,0.031154128,-0.1160644
170,1.7,-0.0298699953853696,0.3869663488814677,0.8411475914824295,0.3323107,0.031154128,-0.1160644
171,1.71,-0.0368182076158435,0.3897456568747032,0.8687419536141493,0.3323107,0.031154128,-0.1160644
172,1.72,-0.03807293,0.39024755,0.873725,0.3323107,0.031154128,-0.1160644
173,1.73,-0.03807293,0.39024755,0.873725,0.3323107,0.031154128,-0.1160644
174,1.74,-0.03807293,0.39024755,0.873725,0.3323107,0.031154128,-0.1160644
175,1.75,-0.03807293,0.39024755,0.873725,0.3323107,0.031154128,-0.1160644
176,1.76,-0.03807293,0.39024755,0.873725,0.284929534116166,0.0288895869394608,-0.1104030468496189
177,1.77,-0.03807293,0.39024755,0.873725,0.0,0.015271631,-0.076358154
178,1.78,-0.03807293,0.39024755,0.873725,0.0,0.015271631,-0.076358154
179,1.79,-0.03807293,0.39024755,0.873725,0.0,0.015271631,-0.076358154
180,1.8,-0.03807293,0.39024755,0.873725,0.0929178905007582,-0.0428355236723902,-0.0597561106845954
181,1.81,-0.03807293,0.39024755,0.873725,0.21197024,-0.11728613,-0.03848451
182,1.82,-0.03807293,0.39024755,0.873725,0.21197024,-0.11728613,-0.03848451
183,1.83,-0.03807293,0.39024755,0.873725,0.21197024,-0.11728613,-0.03848451
184,1.84,-0.03807293,0.39024755,0.873725,0.0428142131868677,-0.0343912596268254,-0.052791237631812
185,1.85,-0.03807293,0.39024755,0.873725,-0.03359759,0.0030543262,-0.059253927
186,1.86,-0.03807293,0.39024755,0.873725,-0.03359759,0.0030543262,-0.059253927
187,1.87,-0.0372021428443189,0.389252355577272,0.8672562706576379,-0.03359759,0.0030543262,-0.059253927
188,1.88,-0.03465613,0.3863426,0.84834296,-0.03359759,0.0030543262,-0.059253927
189,1.89,-0.03465613,0.3863426,0.84834296,-0.03359759,0.0030543262,-0.059253927
190,1.9,-0.03465613,0.3863426,0.84834296,-0.03359759,0.0030543262,-0.059253927
191,1.91,-0.03465613,0.3863426,0.84834296,-0.03359759,0.0030543262,-0.059253927
192,1.92,-0.03465613,0.3863426,0.84834296,0.0723514426045551,0.0145601034429185,-0.074594962783251
193,1.93,-0.03465613,0.3863426,0.84834296,0.37140608,0.047036625,-0.11789699
194,1.94,-0.03465613,0.3863426,0.84834296,0.37140608,0.047036625,-0.11789699
195,1.95,-0.03465613,0.3863426,0.84834296,0.37140608,0.047036625,-0.11789699
196,1.96,-0.03465613,0.3863426,0.84834296,0.37140608,0.047036625,-0.11789699
197,1.97,-0.03465613,0.3863426,0.84834296,0.37140608,0.047036625,-0.11789699
198,1.98,-0.03465613,0.3863426,0.84834296,0.37140608,0.047036625,-0.11789699
199,1.99,-0.03465613,0.3863426,0.84834296,0.37140608,0.047036625,-0.11789699
200,2.0,-0.03465613,0.3863426,0.84834296,0.37140608,0.047036625,-0.11789699
201,2.01,-0.03465613,0.3863426,0.84834296,0.37140608,0.047036625,-0.11789699
202,2.02,-0.03465613,0.3863426,0.84834296,0.37140608,0.047036625,-0.11789699
203,2.03,-0.03465613,0.3863426,0.84834296,0.37140608,0.047036625,-0.11789699
204,2.04,-0.03465613,0.3863426,0.84834296,0.37140608,0.047036625,-0.11789699
205,2.05,-0.03465613,0.3863426,0.84834296,0.37140608,0.047036625,-0.11789699
206,2.06,-0.03465613,0.3863426,0.84834296,0.37140608,0.047036625,-0.11789699
207,2.07,-0.0320586132680165,0.3811475891525365,0.8465571874935209,0.37140608,0.047036625,-0.11789699
208,2.08,-0.030751213,0.3785328,0.84565836,0.37140608,0.047036625,-0.11789699
209,2.09,-0.030751213,0.3785328,0.84565836,0.37140608,0.047036625,-0.11789699
210,2.1,-0.0312648367384263,0.3792518667518691,0.8566499078339616,0.37140608,0.047036625,-0.11789699
211,2.11,-0.033191785,0.38194957,0.8978866,0.37140608,0.047036625,-0.11789699
212,2.12,-0.033191785,0.38194957,0.8978866,0.37140608,0.047036625,-0.11789699
213,2.13,-0.0317198124472882,0.3798888270024859,0.8663863878544686,0.37140608,0.047036625,-0.11789699
214,2.14,-0.030751213,0.3785328,0.84565836,0.2358312863235572,0.1479914269328014,-0.0978028714844033
215,2.15,-0.030751213,0.3785328,0.84565836,0.029321533,0.30176744,-0.06719518
216,2.16,-0.030751213,0.3785328,0.84565836,0.029321533,0.30176744,-0.06719518
217,2.17,-0.030751213,0.3785328,0.84565836,0.029321533,0.30176744,-0.06719518
218,2.18,-0.030751213,0.3785328,0.84565836,0.029321533,0.30176744,-0.06719518
219,2.19,-0.030751213,0.3785328,0.84565836,0.029321533,0.30176744,-0.06719518
220,2.2,-0.0321532348317777,0.3805356865725465,0.8515668782613344,0.029321533,0.30176744,-0.06719518
221,2.21,-0.037467841310984,0.388127974876698,0.873964139646615,0.029321533,0.30176744,-0.06719518
222,2.22,-0.037584815,0.38829508,0.8744571,0.029321533,0.30176744,-0.06719518
223,2.23,-0.037584815,0.38829508,0.8744571,0.029321533,0.30176744,-0.06719518
224,2.24,-0.037584815,0.38829508,0.8744571,0.029321533,0.30176744,-0.06719518
225,2.25,-0.037584815,0.38829508,0.8744571,0.0075713062880428,0.227676342711453,-0.0551273116060719
226,2.26,-0.037584815,0.38829508,0.8744571,-0.06536258,-0.02076942,-0.014660766
227,2.27,-0.037584815,0.38829508,0.8744571,-0.06536258,-0.02076942,-0.014660766
228,2.28,-0.037584815,0.38829508,0.8744571,-0.06536258,-0.02076942,-0.014660766
229,2.29,-0.037584815,0.38829508,0.8744571,-0.06536258,-0.02076942,-0.014660766
230,2.3,-0.037584815,0.38829508,0.8744571,-0.06536258,-0.02076942,-0.014660766
231,2.31,-0.037584815,0.38829508,0.8744571,-0.06536258,-0.02076942,-0.014660766
232,2.32,-0.037584815,0.38829508,0.8744571,-0.06536258,-0.02076942,-0.014660766
233,2.33,-0.037584815,0.38829508,0.8744571,-0.06536258,-0.02076942,-0.014660766
234,2.34,-0.037584815,0.38829508,0.8744571,-0.06536258,-0.02076942,-0.014660766
235,2.35,-0.037584815,0.38829508,0.8744571,-0.06536258,-0.02076942,-0.014660766
236,2.36,-0.037584815,0.38829508,0.8744571,-0.06536258,-0.02076942,-0.014660766
237,2.37,-0.037584815,0.38829508,0.8744571,-0.06536258,-0.02076942,-0.014660766
238,2.38,-0.037584815,0.38829508,0.8744571,-0.06536258,-0.02076942,-0.014660766
239,2.39,-0.037584815,0.38829508,0.8744571,0.3402195545379539,-0.208266754589016,0.019899122135885
240,2.4,-0.037584815,0.38829508,0.8744571,0.55833083,-0.30909783,0.03848451
241,2.41,-0.0373592145137036,0.3869414672221687,0.8769387213718461,0.55833083,-0.30909783,0.03848451
242,2.42,-0.036852647,0.38390204,0.882511,0.55833083,-0.30909783,0.03848451
243,2.43,-0.036852647,0.38390204,0.882511,0.55833083,-0.30909783,0.03848451
244,2.44,-0.036852647,0.38390204,0.882511,0.55833083,-0.30909783,0.03848451
245,2.45,-0.036852647,0.38390204,0.882511,0.55833083,-0.30909783,0.03848451
246,2.46,-0.036852647,0.38390204,0.882511,0.55833083,-0.30909783,0.03848451
247,2.47,-0.036852647,0.38390204,0.882511,0.55833083,-0.30909783,0.03848451
248,2.48,-0.036852647,0.38390204,0.882511,0.55833083,-0.30909783,0.03848451
249,2.49,-0.036852647,0.38390204,0.882511,0.55833083,-0.30909783,0.03848451
250,2.5,-0.036852647,0.38390204,0.882511,0.55833083,-0.30909783,0.03848451
251,2.51,-0.0307176115579413,0.3874539156109934,0.8867086826028494,0.55833083,-0.30909783,0.03848451
252,2.52,-0.0324190377628771,0.3851754483195052,0.8917112008585867,0.55833083,-0.30909783,0.03848451
253,2.53,-0.0370967,0.38121742,0.8944698,0.3206669812322568,-0.1933555291687416,0.0083012011524171
254,2.54,-0.0370967,0.38121742,0.8944698,-0.052534413,-0.01160644,-0.039095376
255,2.55,-0.0370967,0.38121742,0.8944698,-0.0536720508744393,-0.0124190387984667,-0.0369284461663647
256,2.56,-0.0370967,0.38121742,0.8944698,-0.0637319241399847,-0.0196046653602917,-0.0177667779488378
257,2.57,-0.0370967,0.38121742,0.8944698,-0.06536258,-0.02076942,-0.014660766
258,2.58,-0.0370967,0.38121742,0.8944698,0.0176356079847619,-0.0243885260513854,-0.0498867427313206
259,2.59,-0.0370967,0.38121742,0.8944698,0.14477506,-0.029932396,-0.103847094
260,2.6,-0.0370967,0.38121742,0.8944698,0.14477506,-0.029932396,-0.103847094
261,2.61,-0.0370967,0.38121742,0.8944698,0.14477506,-0.029932396,-0.103847094
262,2.62,-0.0370967,0.38121742,0.8944698,0.14477506,-0.029932396,-0.103847094
263,2.63,-0.0370967,0.38121742,0.8944698,0.14477506,-0.029932396,-0.103847094
264,2.64,-0.0370967,0.38121742,0.8944698,0.1291800010205748,-0.0308704447426811,-0.0972807531531415
265,2.65,-0.0370967,0.38121742,0.8944698,-0.0782377055003938,-0.0433466988606365,-0.0099469790079318
266,2.66,-0.0370967,0.38121742,0.8944698,-0.09896017,-0.044593163,-0.0012217305
267,2.67,-0.0370967,0.38121742,0.8944698,-0.09896017,-0.044593163,-0.0012217305
268,2.68,-0.0370967,0.38121742,0.8944698,-0.09896017,-0.044593163,-0.0012217305
269,2.69,-0.0370967,0.38121742,0.8944698,-0.09896017,-0.044593163,-0.0012217305
270,2.7,-0.0370967,0.38121742,0.8944698,-0.09896017,-0.044593163,-0.0012217305
271,2.71,-0.0370967,0.38121742,0.8944698,-0.0077276780996342,-0.0141823322388955,-0.0573648027087138
272,2.72,-0.0370967,0.38121742,0.8944698,-0.0235002002691533,-0.0194398396508035,-0.0476586351730959
273,2.73,-0.0370967,0.38121742,0.8944698,-0.09896017,-0.044593163,-0.0012217305
274,2.74,-0.0370967,0.38121742,0.8944698,-0.0869054594197779,-0.0372555125469128,-0.0080352628592969
275,2.75,-0.0370967,0.38121742,0.8944698,-0.05681047,-0.018936822,-0.025045475
276,2.76,-0.0370967,0.38121742,0.8944698,-0.05681047,-0.018936822,-0.025045475
277,2.77,-0.0370967,0.38121742,0.8944698,-0.05681047,-0.018936822,-0.025045475
278,2.78,-0.0370967,0.38121742,0.8944698,0.1651124313296238,0.0096309605093842,-0.0769552282316307
279,2.79,-0.0370967,0.38121742,0.8944698,0.3323107,0.031154128,-0.1160644
280,2.8,-0.0370967,0.38121742,0.8944698,0.3323107,0.031154128,-0.1160644
281,2.81,-0.0368738369541253,0.3814105687198527,0.8943286541814794,0.3323107,0.031154128,-0.1160644
282,2.82,-0.0313304068091643,0.38621489342021,0.8908178344215171,0.3323107,0.031154128,-0.1160644
283,2.83,-0.029774986,0.38756293,0.88983274,0.2479392882588997,-0.0001948813313991,-0.1114200978628311
284,2.84,-0.029774986,0.38756293,0.88983274,0.19914207,-0.018325957,-0.10873401
285,2.85,-0.029774986,0.38756293,0.88983274,0.19914207,-0.018325957,-0.10873401
286,2.86,-0.029774986,0.38756293,0.88983274,0.19914207,-0.018325957,-0.10873401
287,2.87,-0.029774986,0.38756293,0.88983274,0.19914207,-0.018325957,-0.10873401
288,2.88,-0.029774986,0.38756293,0.88983274,0.19914207,-0.018325957,-0.10873401
289,2.89,-0.029774986,0.38756293,0.88983274,0.19914207,-0.018325957,-0.10873401
290,2.9,-0.0275055604296679,0.3887786974344941,0.893966349941476,0.19914207,-0.018325957,-0.10873401
291,2.91,-0.022941383,0.3912238,0.9022797,0.19914207,-0.018325957,-0.10873401
292,2.92,-0.022941383,0.3912238,0.9022797,0.19914207,-0.018325957,-0.10873401
293,2.93,-0.022941383,0.3912238,0.9022797,0.19914207,-0.018325957,-0.10873401
294,2.94,-0.022941383,0.3912238,0.9022797,0.19914207,-0.018325957,-0.10873401
295,2.95,-0.022941383,0.3912238,0.9022797,0.19914207,-0.018325957,-0.10873401
296,2.96,-0.0232280091101854,0.39409004935761,0.9021841409993632,0.19914207,-0.018325957,-0.10873401
297,2.97,-0.023673553,0.39854547,0.9020356,0.19914207,-0.018325957,-0.10873401
298,2.98,-0.023673553,0.39854547,0.9020356,0.19914207,-0.018325957,-0.10873401
299,2.99,-0.023673553,0.39854547,0.9020356,0.19914207,-0.018325957,-0.10873401
300,3.0,-0.023673553,0.39854547,0.9020356,0.19914207,-0.018325957,-0.10873401
301,3.01,-0.023673553,0.39854547,0.9020356,0.19914207,-0.018325957,-0.10873401
302,3.02,-0.023673553,0.39854547,0.9020356,0.19914207,-0.018325957,-0.10873401
303,3.03,-0.023673553,0.39854547,0.9020356,0.19914207,-0.018325957,-0.10873401
304,3.04,-0.023673553,0.39854547,0.9020356,0.0290636283223883,-0.0071854480038517,0.0695141388016412
305,3.05,-0.023673553,0.39854547,0.9020356,-0.080634214,0.0,0.18448131
306,3.06,-0.0253003384868031,0.3979197898478668,0.904288067006237,-0.080634214,0.0,0.18448131
307,3.07,-0.033191785,0.39488465,0.91521466,-0.080634214,0.0,0.18448131
308,3.08,-0.033191785,0.39488465,0.91521466,-0.080634214,0.0,0.18448131
309,3.09,-0.033191785,0.39488465,0.91521466,-0.080634214,0.0,0.18448131
310,3.1,-0.033191785,0.39488465,0.91521466,-0.080634214,0.0,0.18448131
311,3.11,-0.033191785,0.39488465,0.91521466,-0.080634214,0.0,0.18448131
312,3.12,-0.033191785,0.39488465,0.91521466,-0.080634214,0.0,0.18448131
313,3.13,-0.033191785,0.39488465,0.91521466,-0.0766926316276806,-0.0072370031832446,0.1988906987083024
314,3.14,-0.033191785,0.39488465,0.91521466,-0.04337143,-0.06841691,0.32070425
315,3.15,-0.033191785,0.39488465,0.91521466,-0.04337143,-0.06841691,0.32070425
316,3.16,-0.033191785,0.39488465,0.91521466,-0.04337143,-0.06841691,0.32070425
317,3.17,-0.033191785,0.39488465,0.91521466,-0.04337143,-0.06841691,0.32070425
318,3.18,-0.033191785,0.39488465,0.91521466,-0.04337143,-0.06841691,0.32070425
319,3.19,-0.033191785,0.39488465,0.91521466,-0.04337143,-0.06841691,0.32070425
320,3.2,-0.033191785,0.39488465,0.91521466,-0.04337143,-0.06841691,0.32070425
321,3.21,-0.033191785,0.39488465,0.91521466,0.0856534432800525,-0.0420254554366201,0.0295604536927927
322,3.22,-0.033191785,0.39488465,0.91521466,0.14477506,-0.029932396,-0.103847094
323,3.23,-0.033191785,0.39488465,0.91521466,0.14477506,-0.029932396,-0.103847094
324,3.24,-0.033191785,0.39488465,0.91521466,0.14477506,-0.029932396,-0.103847094
325,3.25,-0.033191785,0.39488465,0.91521466,0.1057464883826395,-0.0113585580989666,-0.0855083671136699
326,3.26,-0.033244512568659,0.3948319226041775,0.9163570892619844,-0.0580322,0.06658431,-0.008552114
327,3.27,-0.0356614063890063,0.3924150367062064,0.9687230582170344,-0.0580322,0.06658431,-0.008552114
328,3.28,-0.036852647,0.3912238,0.99453324,-0.0580322,0.06658431,-0.008552114
329,3.29,-0.036852647,0.3912238,0.99453324,-0.0580322,0.06658431,-0.008552114
330,3.3,-0.036852647,0.3912238,0.99453324,-0.0580322,0.06658431,-0.008552114
331,3.31,-0.036852647,0.3912238,0.99453324,-0.0580322,0.06658431,-0.008552114
332,3.32,-0.036852647,0.3912238,0.99453324,-0.0580322,0.06658431,-0.008552114
333,3.33,-0.0549057621213916,0.2954637782306448,0.9286001353007438,0.0195701919059791,0.0879495261877232,-0.0193575108451302
334,3.34,-0.08175918,0.15302388,0.8305268,0.13500121,0.119729586,-0.035430185
335,3.35,-0.08175918,0.15302388,0.8305268,0.13500121,0.119729586,-0.035430185
336,3.36,-0.08175918,0.15302388,0.8305268,0.13500121,0.119729586,-0.035430185
337,3.37,-0.08175918,0.15302388,0.8305268,0.13500121,0.119729586,-0.035430185
338,3.38,-0.08175918,0.15302388,0.8305268,0.13500121,0.119729586,-0.035430185
339,3.39,-0.08175918,0.15302388,0.8305268,0.13500121,0.119729586,-0.035430185
340,3.4,-0.08175918,0.15302388,0.8305268,0.13500121,0.119729586,-0.035430185
341,3.41,-0.08175918,0.15302388,0.8305268,0.13500121,0.119729586,-0.035430185
342,3.42,-0.08175918,0.15302388,0.8305268,0.13500121,0.119729586,-0.035430185
343,3.43,-0.08175918,0.15302388,0.8305268,0.13500121,0.119729586,-0.035430185
344,3.44,-0.08175918,0.15302388,0.8305268,0.13500121,0.119729586,-0.035430185
345,3.45,-0.08175918,0.15302388,0.8305268,0.2126888890869272,0.115159724044495,-0.0711582042567497
346,3.46,-0.08175918,0.15302388,0.8305268,0.24923302,0.11301007,-0.087964594
347,3.47,-0.08175918,0.15302388,0.8305268,0.24923302,0.11301007,-0.087964594
348,3.48,-0.08175918,0.15302388,0.8305268,0.108681270112673,0.0652755132557791,-0.0561415565651786
349,3.49,-0.08175918,0.15302388,0.8305268,-0.106901415,-0.007941248,-0.007330383
350,3.5,-0.0822766476852171,0.1744125431443793,0.8296212356368097,-0.106901415,-0.007941248,-0.007330383
351,3.51,-0.0869847101190064,0.3690124463572224,0.8213821635526735,-0.106901415,-0.007941248,-0.007330383
352,3.52,-0.087616555,0.3951287,0.82027644,-0.106901415,-0.007941248,-0.007330383
353,3.53,-0.087616555,0.3951287,0.82027644,-0.106901415,-0.007941248,-0.007330383
354,3.54,-0.087616555,0.3951287,0.82027644,-0.106901415,-0.007941248,-0.007330383
355,3.55,-0.087616555,0.3951287,0.82027644,-0.106901415,-0.007941248,-0.007330383
356,3.56,-0.0717124338634778,0.3998276392432139,0.8900377020717016,-0.106901415,-0.007941248,-0.007330383
357,3.57,-0.04866875476487,0.3953594274092789,0.9460755217855056,-0.106901415,-0.007941248,-0.007330383
358,3.58,-0.036852647,0.3912238,0.967443,-0.106901415,-0.007941248,-0.007330383
359,3.59,-0.036852647,0.3912238,0.967443,-0.106901415,-0.007941248,-0.007330383
360,3.6,-0.036852647,0.3912238,0.967443,-0.106901415,-0.007941248,-0.007330383
361,3.61,-0.036852647,0.3912238,0.967443,-0.106901415,-0.007941248,-0.007330383
362,3.62,-0.036852647,0.3912238,0.967443,-0.106901415,-0.007941248,-0.007330383
363,3.63,-0.036852647,0.3912238,0.967443,0.1103748107510419,0.0458817428843744,-0.047263570872305
364,3.64,-0.036852647,0.3912238,0.967443,0.4219218834407801,0.1230572147772209,-0.1045227935128948
365,3.65,-0.036852647,0.3912238,0.967443,0.42821655,0.12461651,-0.10567969
366,3.66,-0.036852647,0.3912238,0.967443,0.42821655,0.12461651,-0.10567969
367,3.67,-0.036852647,0.3912238,0.967443,0.42821655,0.12461651,-0.10567969
368,3.68,-0.036852647,0.3912238,0.967443,0.42821655,0.12461651,-0.10567969
369,3.69,-0.036852647,0.3912238,0.967443,0.42821655,0.12461651,-0.10567969
370,3.7,-0.0588561100828093,0.3989249928830629,0.9276533732107818,0.42821655,0.12461651,-0.10567969
371,3.71,-0.0110252552787105,0.3894392968872857,0.8872672772937421,0.42821655,0.12461651,-0.10567969
372,3.72,0.032215554,0.37999713,0.8659151,0.42821655,0.12461651,-0.10567969
373,3.73,0.032215554,0.37999713,0.8659151,0.42821655,0.12461651,-0.10567969
374,3.74,0.032215554,0.37999713,0.8659151,0.42821655,0.12461651,-0.10567969
375,3.75,0.032215554,0.37999713,0.8659151,0.42821655,0.12461651,-0.10567969
376,3.76,0.032215554,0.37999713,0.8659151,0.42821655,0.12461651,-0.10567969
377,3.77,-0.0063143296584224,0.3924261218909733,0.8824117857862266,0.42821655,0.12461651,-0.10567969
378,3.78,-0.051007964,0.40684342,0.9015475,0.42821655,0.12461651,-0.10567969
379,3.79,-0.051007964,0.40684342,0.9015475,0.42821655,0.12461651,-0.10567969
380,3.8,-0.051007964,0.40684342,0.9015475,0.42821655,0.12461651,-0.10567969
381,3.81,-0.051007964,0.40684342,0.9015475,0.42821655,0.12461651,-0.10567969
382,3.82,-0.051007964,0.40684342,0.9015475,0.42821655,0.12461651,-0.10567969
383,3.83,-0.051007964,0.40684342,0.9015475,0.42821655,0.12461651,-0.10567969
384,3.84,-0.051007964,0.40684342,0.9015475,0.42821655,0.12461651,-0.10567969
385,3.85,-0.051007964,0.40684342,0.9015475,0.42821655,0.12461651,-0.10567969
386,3.86,-0.0181153796112497,0.4173092440709401,0.9770509271425092,0.42821655,0.12461651,-0.10567969
387,3.87,0.0026846298,0.42392743,1.0247964,0.42821655,0.12461651,-0.10567969
388,3.88,0.0026846298,0.42392743,1.0247964,0.42821655,0.12461651,-0.10567969
389,3.89,0.0026846298,0.42392743,1.0247964,0.42821655,0.12461651,-0.10567969
390,3.9,0.0026846298,0.42392743,1.0247964,0.42821655,0.12461651,-0.10567969
391,3.91,0.0026846298,0.42392743,1.0247964,0.42821655,0.12461651,-0.10567969
392,3.92,0.0026846298,0.42392743,1.0247964,0.42821655,0.12461651,-0.10567969
393,3.93,-0.012218494066912,0.4261996561282319,1.00822252174301,0.42821655,0.12461651,-0.10567969
394,3.94,-0.1179188519591969,0.4423154126039296,0.8906723437352644,0.42821655,0.12461651,-0.10567969
395,3.95,-0.16058967,0.44882128,0.8432178,0.42821655,0.12461651,-0.10567969
396,3.96,-0.16058967,0.44882128,0.8432178,0.42821655,0.12461651,-0.10567969
397,3.97,-0.16058967,0.44882128,0.8432178,0.2894788076024188,0.0934526760513673,-0.0803835229078379
398,3.98,-0.16058967,0.44882128,0.8432178,-0.1956264295174023,-0.0222485562124709,0.010223350192021
399,3.99,-0.16058967,0.44882128,0.8432178,0.2298058473409351,-0.0363919152611409,-0.0322067297323482
400,4.0,-0.16058967,0.44882128,0.8432178,0.23762658,-0.036651913,-0.032986723
401,4.01,-0.16058967,0.44882128,0.8432178,0.23762658,-0.036651913,-0.032986723
402,4.02,-0.16058967,0.44882128,0.8432178,0.23762658,-0.036651913,-0.032986723
403,4.03,-0.16058967,0.44882128,0.8432178,0.23762658,-0.036651913,-0.032986723
404,4.04,-0.1501272974716389,0.446080214790533,0.8524061549897358,0.23762658,-0.036651913,-0.032986723
405,4.05,-0.02831064,0.41416514,0.95938903,0.23762658,-0.036651913,-0.032986723
406,4.06,-0.02831064,0.41416514,0.95938903,0.23762658,-0.036651913,-0.032986723
407,4.07,-0.02831064,0.41416514,0.95938903,0.23762658,-0.036651913,-0.032986723
408,4.08,-0.0564847062404328,0.4050921408406601,0.8820297467201812,0.23762658,-0.036651913,-0.032986723
409,4.09,-0.08590815,0.3956168,0.80123997,0.23762658,-0.036651913,-0.032986723
410,4.1,-0.08590815,0.3956168,0.80123997,0.23762658,-0.036651913,-0.032986723
411,4.11,-0.08590815,0.3956168,0.80123997,0.23762658,-0.036651913,-0.032986723
412,4.12,-0.0193630907685466,0.4097598730021054,0.9414016196147384,0.23762658,-0.036651913,-0.032986723
413,4.13,0.0036608586,0.41465324,0.9898962,0.23762658,-0.036651913,-0.032986723
414,4.14,0.0036608586,0.41465324,0.9898962,0.23762658,-0.036651913,-0.032986723
415,4.15,0.0036608586,0.41465324,0.9898962,0.23762658,-0.036651913,-0.032986723
416,4.16,0.0036608586,0.41465324,0.9898962,0.23762658,-0.036651913,-0.032986723
417,4.17,0.0036608586,0.41465324,0.9898962,0.23762658,-0.036651913,-0.032986723
418,4.18,0.0036608586,0.41465324,0.9898962,0.23762658,-0.036651913,-0.032986723
419,4.19,0.0036608586,0.41465324,0.9898962,0.23762658,-0.036651913,-0.032986723
420,4.2,0.0036608586,0.41465324,0.9898962,0.1136594468773011,-0.0673896662041454,-0.0220633895792924
421,4.21,0.0036608586,0.41465324,0.9898962,-0.06047566,-0.11056661,-0.0067195175
422,4.22,0.0036608586,0.41465324,0.9898962,-0.06047566,-0.11056661,-0.0067195175
423,4.23,0.0036608586,0.41465324,0.9898962,-0.06047566,-0.11056661,-0.0067195175
424,4.24,0.0036608586,0.41465324,0.9898962,-0.06047566,-0.11056661,-0.0067195175
425,4.25,0.0036608586,0.41465324,0.9898962,-0.06047566,-0.11056661,-0.0067195175
426,4.26,0.0030134162620673,0.4208039530869642,1.013042277110526,-0.06047566,-0.11056661,-0.0067195175
427,4.27,0.0026846298,0.42392743,1.0247964,-0.06047566,-0.11056661,-0.0067195175
428,4.28,0.0026846298,0.42392743,1.0247964,-0.06047566,-0.11056661,-0.0067195175
429,4.29,0.0026846298,0.42392743,1.0247964,-0.06047566,-0.11056661,-0.0067195175
430,4.3,0.0026846298,0.42392743,1.0247964,-0.06047566,-0.11056661,-0.0067195175
431,4.31,0.0026846298,0.42392743,1.0247964,-0.06047566,-0.11056661,-0.0067195175
432,4.32,0.0026846298,0.42392743,1.0247964,-0.06047566,-0.11056661,-0.0067195175
433,4.33,0.0026846298,0.42392743,1.0247964,-0.06047566,-0.11056661,-0.0067195175
434,4.34,0.0026846298,0.42392743,1.0247964,-0.06047566,-0.11056661,-0.0067195175
435,4.35,0.0026846298,0.42392743,1.0247964,-0.06047566,-0.11056661,-0.0067195175
436,4.36,0.0026846298,0.42392743,1.0247964,-0.06047566,-0.11056661,-0.0067195175
437,4.37,0.0026846298,0.42392743,1.0247964,-0.06047566,-0.11056661,-0.0067195175
438,4.38,0.0026846298,0.42392743,1.0247964,-0.06047566,-0.11056661,-0.0067195175
439,4.39,0.0026846298,0.42392743,1.0247964,-0.06047566,-0.11056661,-0.0067195175
440,4.4,-0.0030245768794053,0.4191244480718005,1.0092093580731805,-0.06047566,-0.11056661,-0.0067195175
441,4.41,-0.0264699324956939,0.3994005835055639,0.9451998097241008,-0.06047566,-0.11056661,-0.0067195175
442,4.42,-0.028066583,0.39805737,0.9408407,-0.06047566,-0.11056661,-0.0067195175
443,4.43,-0.028066583,0.39805737,0.9408407,-0.06047566,-0.11056661,-0.0067195175
444,4.44,-0.028066583,0.39805737,0.9408407,-0.06047566,-0.11056661,-0.0067195175
445,4.45,-0.028066583,0.39805737,0.9408407,-0.1019943035855446,-0.0430243220804409,-0.0015545192128929
446,4.46,-0.028066583,0.39805737,0.9408407,-0.1881465,0.09712757,0.009162978
447,4.47,-0.028066583,0.39805737,0.9408407,-0.1881465,0.09712757,0.009162978
448,4.48,-0.028066583,0.39805737,0.9408407,-0.1881465,0.09712757,0.009162978
449,4.49,-0.028066583,0.39805737,0.9408407,-0.1881465,0.09712757,0.009162978
450,4.5,-0.0382116236569545,0.4029093509364903,0.8936442078644382,-0.1881465,0.09712757,0.009162978
451,4.51,-0.05051985,0.4087959,0.8363842,-0.1881465,0.09712757,0.009162978
452,4.52,-0.0498087192794616,0.4089678210863395,0.8403227693317139,-0.1881465,0.09712757,0.009162978
453,4.53,-0.031666667641584,0.4133537956138512,0.940801803820935,-0.1881465,0.09712757,0.009162978
454,4.54,-0.02831064,0.41416514,0.95938903,-0.1881465,0.09712757,0.009162978
455,4.55,-0.02831064,0.41416514,0.95938903,-0.1930131552535652,0.1258408349337922,0.0169496253434615
456,4.56,-0.02831064,0.41416514,0.95938903,-0.1789240664054446,0.1731051324979119,0.029359757895302
457,4.57,-0.02831064,0.41416514,0.95938903,0.2328238149136623,-0.3073541588865945,-0.1070219637385138
458,4.58,-0.02831064,0.41416514,0.95938903,0.27672195,-0.3585779,-0.12156218
459,4.59,-0.02831064,0.41416514,0.95938903,0.27672195,-0.3585779,-0.12156218
460,4.6,-0.0344724516684632,0.4081845660363643,0.9384871967184976,0.27672195,-0.3585779,-0.12156218
461,4.61,-0.053204484,0.3900035,0.8749452,0.27672195,-0.3585779,-0.12156218
462,4.62,-0.053204484,0.3900035,0.8749452,0.27672195,-0.3585779,-0.12156218
463,4.63,-0.053204484,0.3900035,0.8749452,0.27672195,-0.3585779,-0.12156218
464,4.64,-0.053204484,0.3900035,0.8749452,0.27672195,-0.3585779,-0.12156218
465,4.65,0.0061222286923441,0.3876628365293215,0.8720644004454645,0.1298069529088409,-0.1332481388167208,-0.0778482087797394
466,4.66,0.107629254,0.383658,0.8671354,-0.12156218,0.25228736,-0.0030543262
467,4.67,0.107629254,0.383658,0.8671354,-0.12156218,0.25228736,-0.0030543262
468,4.68,0.107629254,0.383658,0.8671354,-0.12156218,0.25228736,-0.0030543262
469,4.69,0.107629254,0.383658,0.8671354,-0.12156218,0.25228736,-0.0030543262
470,4.7,0.107629254,0.383658,0.8671354,-0.12156218,0.25228736,-0.0030543262
471,4.71,0.0491039175779323,0.3945645386089369,0.9006340959093393,-0.12156218,0.25228736,-0.0030543262
472,4.72,-0.03904916,0.41099238,0.9510911,-0.12156218,0.25228736,-0.0030543262
473,4.73,-0.03904916,0.41099238,0.9510911,-0.12156218,0.25228736,-0.0030543262
474,4.74,-0.03904916,0.41099238,0.9510911,-0.12156218,0.25228736,-0.0030543262
475,4.75,-0.03904916,0.41099238,0.9510911,-0.1955793134286237,0.1557247689586555,0.013961106775299
476,4.76,-0.03904916,0.41099238,0.9510911,-0.22785273,0.11362094,0.021380283
477,4.77,-0.03904916,0.41099238,0.9510911,-0.22785273,0.11362094,0.021380283
478,4.78,-0.03904916,0.41099238,0.9510911,-0.22785273,0.11362094,0.021380283
479,4.79,-0.0391362414750546,0.4106875958631303,0.9483806888770684,-0.22785273,0.11362094,0.021380283
480,4.8,-0.0408069617295087,0.4048400946536642,0.8963795168926074,-0.22785273,0.11362094,0.021380283
481,4.81,-0.041001618,0.4041588,0.89032084,-0.22785273,0.11362094,0.021380283
482,4.82,-0.041001618,0.4041588,0.89032084,-0.1976065701623108,0.2018975318868195,0.0294693747493274
483,4.83,-0.041001618,0.4041588,0.89032084,-0.17531833,0.2669481,0.035430185
484,4.84,-0.041001618,0.4041588,0.89032084,-0.17531833,0.2669481,0.035430185
485,4.85,-0.041001618,0.4041588,0.89032084,-0.17531833,0.2669481,0.035430185
486,4.86,-0.041001618,0.4041588,0.89032084,-0.17531833,0.2669481,0.035430185
487,4.87,-0.041001618,0.4041588,0.89032084,-0.17531833,0.2669481,0.035430185
488,4.88,-0.041001618,0.4041588,0.89032084,-0.1541664618247709,0.1603312611603023,0.0634421154942009
489,4.89,-0.041001618,0.4041588,0.89032084,-0.1301143,0.039095376,0.095294975
490,4.9,-0.041001618,0.4041588,0.89032084,-0.1301143,0.039095376,0.095294975
491,4.91,-0.041001618,0.4041588,0.89032084,-0.1301143,0.039095376,0.095294975
492,4.92,-0.041001618,0.4041588,0.89032084,-0.18182931142019,0.0247742954635641,0.0332369619469921
493,4.93,-0.041001618,0.4041588,0.89032084,-0.20952678,0.017104227,0.0
494,4.94,-0.041001618,0.4041588,0.89032084,-0.2089610985053819,0.0519502794844146,0.0071276012783345
495,4.95,-0.041001618,0.4041588,0.89032084,-0.2065654021682312,0.1995254805389262,0.0373134363067664
496,4.96,-0.041001618,0.4041588,0.89032084,-0.1926837535088948,0.1238973647121349,0.0164225826238872
497,4.97,-0.041001618,0.4041588,0.89032084,-0.1881465,0.09712757,0.009162978
498,4.98,-0.041001618,0.4041588,0.89032084,-0.1881465,0.09712757,0.009162978
499,4.99,-0.041001618,0.4041588,0.89032084,-0.1881465,0.09712757,0.009162978
500,5.0,-0.041001618,0.4041588,0.89032084,-0.1881465,0.09712757,0.009162978
501,5.01,-0.041001618,0.4041588,0.89032084,-0.1881465,0.09712757,0.009162978
502,5.02,-0.041001618,0.4041588,0.89032084,-0.1881465,0.09712757,0.009162978
503,5.03,-0.041001618,0.4031078248791631,0.8913718294750869,-0.1881465,0.09712757,0.009162978
504,5.04,-0.0561970884596021,0.3184966058336834,0.9327631344773294,-0.1881465,0.09712757,0.009162978
505,5.05,-0.0707766,0.23771177,0.97208,-0.1881465,0.09712757,0.009162978
506,5.06,-0.0707766,0.23771177,0.97208,-0.1881465,0.09712757,0.009162978
507,5.07,-0.0707766,0.23771177,0.97208,-0.1881465,0.09712757,0.009162978
508,5.08,-0.0707766,0.23771177,0.97208,-0.1881465,0.09712757,0.009162978
509,5.09,-0.0707766,0.23771177,0.97208,-0.1881465,0.09712757,0.009162978
510,5.1,-0.0707766,0.23771177,0.97208,-0.1881465,0.09712757,0.009162978
511,5.11,-0.0707766,0.23771177,0.97208,-0.1881465,0.09712757,0.009162978
512,5.12,-0.0707766,0.23771177,0.97208,-0.1881465,0.09712757,0.009162978
513,5.13,-0.0707766,0.23771177,0.97208,-0.2028608842472926,0.103239703630233,0.013690482128102
514,5.14,-0.0642100144001776,0.2623646074820098,0.9672770157837088,-0.22785273,0.11362094,0.021380283
515,5.15,-0.0328212538837717,0.3802069777685732,0.9443183991575398,-0.22785273,0.11362094,0.021380283
516,5.16,-0.028066583,0.39805737,0.9408407,-0.22785273,0.11362094,0.021380283
517,5.17,-0.028066583,0.39805737,0.9408407,-0.22785273,0.11362094,0.021380283
518,5.18,-0.028066583,0.39805737,0.9408407,-0.22785273,0.11362094,0.021380283
519,5.19,-0.028066583,0.39805737,0.9408407,-0.22785273,0.11362094,0.021380283
520,5.2,-0.028066583,0.39805737,0.9408407,-0.22785273,0.11362094,0.021380283
521,5.21,-0.028066583,0.39805737,0.9408407,-0.22785273,0.11362094,0.021380283
522,5.22,-0.028066583,0.39805737,0.9408407,-0.1820564706952006,0.1733666401322151,0.0108524072957663
523,5.23,-0.028066583,0.39805737,0.9408407,-0.140016275991179,0.1958178255419576,-0.0042845990915332
524,5.24,-0.028066583,0.39805737,0.9408407,-0.2048317232828819,-0.0025174457171567,-0.0086056282979329
525,5.25,-0.028066583,0.39805737,0.9408407,0.1461287013667533,-0.225750154776027,-0.1468466045387476
526,5.26,-0.028066583,0.39805737,0.9408407,0.2443461,-0.27977628,-0.18448131
527,5.27,-0.028066583,0.39805737,0.9408407,0.2443461,-0.27977628,-0.18448131
528,5.28,-0.028066583,0.39805737,0.9408407,0.2443461,-0.27977628,-0.18448131
529,5.29,-0.028066583,0.39805737,0.9408407,0.2443461,-0.27977628,-0.18448131
530,5.3,-0.028066583,0.39805737,0.9408407,0.2443461,-0.27977628,-0.18448131
531,5.31,-0.028066583,0.39805737,0.9408407,0.2443461,-0.27977628,-0.18448131
532,5.32,-0.028066583,0.39805737,0.9408407,0.2443461,-0.27977628,-0.18448131
533,5.33,-0.0323232033667349,0.3995833288966232,0.9246976713649504,0.2443461,-0.27977628,-0.18448131
534,5.34,-0.041001618,0.40269446,0.8917852,0.2443461,-0.27977628,-0.18448131
535,5.35,-0.041001618,0.40269446,0.8917852,0.2443461,-0.27977628,-0.18448131
536,5.36,-0.041001618,0.40269446,0.8917852,0.2443461,-0.27977628,-0.18448131
537,5.37,-0.041001618,0.40269446,0.8917852,0.2443461,-0.27977628,-0.18448131
538,5.38,-0.041001618,0.40269446,0.8917852,0.2443461,-0.27977628,-0.18448131
539,5.39,-0.041001618,0.40269446,0.8917852,0.2443461,-0.27977628,-0.18448131
540,5.4,-0.041001618,0.40269446,0.8917852,0.2443461,-0.27977628,-0.18448131
541,5.41,-0.0405434758390683,0.4025058136825347,0.8911294256643991,0.2443461,-0.27977628,-0.18448131
542,5.42,-0.029610705202513,0.3980040954471184,0.8754805048449658,0.2443461,-0.27977628,-0.18448131
543,5.43,-0.028554698,0.39756927,0.87396896,0.2443461,-0.27977628,-0.18448131
544,5.44,-0.028554698,0.39756927,0.87396896,0.2443461,-0.27977628,-0.18448131
545,5.45,-0.028554698,0.39756927,0.87396896,0.2443461,-0.27977628,-0.18448131
546,5.46,-0.028554698,0.39756927,0.87396896,0.2443461,-0.27977628,-0.18448131
547,5.47,-0.028554698,0.39756927,0.87396896,0.2443461,-0.27977628,-0.18448131
548,5.48,-0.028554698,0.39756927,0.87396896,0.2443461,-0.27977628,-0.18448131
549,5.49,-0.028554698,0.39756927,0.87396896,0.2443461,-0.27977628,-0.18448131
550,5.5,-0.028554698,0.39756927,0.87396896,0.2443461,-0.27977628,-0.18448131
551,5.51,-0.0372224506515407,0.4193371479191859,0.8806667803875413,0.2443461,-0.27977628,-0.18448131
552,5.52,-0.07150877,0.50544256,0.9071608,0.2443461,-0.27977628,-0.18448131
553,5.53,-0.07150877,0.50544256,0.9071608,0.2443461,-0.27977628,-0.18448131
554,5.54,-0.07150877,0.50544256,0.9071608,0.2443461,-0.27977628,-0.18448131
555,5.55,-0.07150877,0.50544256,0.9071608,0.0838820895339634,-0.2637803951551031,-0.1285798923791888
556,5.56,-0.0691518100143858,0.4904880517613,0.8975500887081017,-0.3378085,-0.22174409,0.018325957
557,5.57,-0.043198135,0.32581642,0.7917217,-0.3378085,-0.22174409,0.018325957
558,5.58,-0.043198135,0.32581642,0.7917217,-0.3378085,-0.22174409,0.018325957
559,5.59,-0.043198135,0.32581642,0.7917217,-0.3378085,-0.22174409,0.018325957
560,5.6,-0.043198135,0.32581642,0.7917217,-0.3378085,-0.22174409,0.018325957
561,5.61,-0.043198135,0.32581642,0.7917217,-0.3378085,-0.22174409,0.018325957
562,5.62,-0.043198135,0.32581642,0.7917217,-0.3378085,-0.22174409,0.018325957
563,5.63,-0.043198135,0.32581642,0.7917217,-0.3378085,-0.22174409,0.018325957
564,5.64,-0.043198135,0.32581642,0.7917217,-0.3378085,-0.22174409,0.018325957
565,5.65,-0.043198135,0.32581642,0.7917217,-0.3378085,-0.22174409,0.018325957
566,5.66,-0.043198135,0.32581642,0.7917217,-0.3378085,-0.22174409,0.018325957
567,5.67,-0.043198135,0.32581642,0.7917217,-0.3378085,-0.22174409,0.018325957
568,5.68,-0.043198135,0.32581642,0.7917217,-0.3378085,-0.22174409,0.018325957
569,5.69,-0.043198135,0.32581642,0.7917217,-0.3378085,-0.22174409,0.018325957
570,5.7,-0.043198135,0.32581642,0.7917217,-0.3378085,-0.22174409,0.018325957
571,5.71,-0.043198135,0.32581642,0.7917217,-0.3378085,-0.22174409,0.018325957
572,5.72,-0.043198135,0.32581642,0.7917217,-0.3378085,-0.22174409,0.018325957
573,5.73,-0.0531113638761859,0.3596970938110179,0.8156891392790964,-0.3378085,-0.22174409,0.018325957
574,5.74,-0.062478654,0.3917119,0.83833665,-0.3378085,-0.22174409,0.018325957
575,5.75,-0.062478654,0.3917119,0.83833665,-0.3378085,-0.22174409,0.018325957
576,5.76,-0.062478654,0.3917119,0.83833665,-0.3208340933292456,-0.2123515846420662,0.0119888469176
577,5.77,-0.062478654,0.3917119,0.83833665,-0.2479848859211343,-0.1720416884451757,-0.0152081830414015
578,5.78,-0.062478654,0.3917119,0.83833665,-0.24617869,-0.17104226,-0.015882496
579,5.79,-0.062478654,0.3917119,0.83833665,-0.24617869,-0.17104226,-0.015882496
580,5.8,-0.062478654,0.3917119,0.83833665,-0.24617869,-0.17104226,-0.015882496
581,5.81,-0.062478654,0.3917119,0.83833665,-0.24617869,-0.17104226,-0.015882496
582,5.82,-0.062478654,0.3917119,0.83833665,-0.24617869,-0.17104226,-0.015882496
583,5.83,-0.0540140743390505,0.3916099159545805,0.828954230644861,-0.24617869,-0.17104226,-0.015882496
584,5.84,-0.042221904,0.39146784,0.8158834,-0.2625039334066323,-0.1883788023405016,-0.0040358604683423
585,5.85,-0.042221904,0.39146784,0.8158834,-0.3050241638655812,-0.222762050508476,0.02987944980832
586,5.86,-0.042221904,0.39146784,0.8158834,-0.2270676668065273,-0.0575129538406025,-0.0032637299470573
587,5.87,-0.042221904,0.39146784,0.8158834,-0.21319197,-0.028099801,-0.009162978
588,5.88,-0.042221904,0.39146784,0.8158834,-0.21319197,-0.028099801,-0.009162978
589,5.89,-0.042221904,0.39146784,0.8158834,-0.2469063544146341,-0.024756225901021,-0.0035903530630978
590,5.9,-0.042221904,0.39146784,0.8158834,-0.3127919231385708,-0.0151124234798228,-0.0459863391335661
591,5.91,-0.042221904,0.39146784,0.8158834,0.0795755256328955,-0.0287261638678917,-0.5443464701813919
592,5.92,-0.042221904,0.39146784,0.8158834,0.13194689,-0.030543262,-0.61086524
593,5.93,-0.0469416857107948,0.3908385374909006,0.8412653051121525,0.13194689,-0.030543262,-0.61086524
594,5.94,-0.053204484,0.3900035,0.8749452,-0.0249472416337599,0.0037520125936207,-0.4551862969860353
595,5.95,-0.0521803251887051,0.3901400541351605,0.8694375084665958,-0.57787853,0.12461651,0.093462385
596,5.96,-0.0436956262101785,0.3912713442420585,0.8238087405332009,-0.57787853,0.12461651,0.093462385
597,5.97,-0.042221904,0.39146784,0.8158834,-0.57787853,0.12461651,0.093462385
598,5.98,-0.042221904,0.39146784,0.8158834,-0.57787853,0.12461651,0.093462385
599,5.99,-0.039138983641627,0.3920567105541813,0.830674483486118,-0.57787853,0.12461651,0.093462385
600,6.0,-0.0208338046898734,0.3955531942841069,0.918498169676512,-0.57787853,0.12461651,0.093462385
601,6.01,-0.020500809,0.3956168,0.9200958,-0.57787853,0.12461651,0.093462385
602,6.02,-0.020500809,0.3956168,0.9200958,-0.3590525201876205,-0.0704328120169658,0.0213263719026181
603,6.03,0.0056552084362556,0.3959058081833131,0.8305005986844552,-0.24617869,-0.17104226,-0.015882496
604,6.04,-0.0080379374203165,0.3965453423359963,0.8012625613501766,-0.1808616925194487,-0.0963548937791869,0.0006534536658428
605,6.05,-0.046614934,0.39708114,0.8407772,-0.10140363,-0.005497787,0.02076942
606,6.06,-0.046614934,0.39708114,0.8407772,-0.10140363,-0.005497787,0.02076942
607,6.07,-0.046614934,0.39708114,0.8407772,-0.10140363,-0.005497787,0.02076942
608,6.08,-0.0490303045775183,0.388224769944489,0.8935127965781232,-0.10140363,-0.005497787,0.02076942
609,6.09,-0.049543623,0.3863426,0.90472025,-0.10140363,-0.005497787,0.02076942
610,6.1,-0.049543623,0.3863426,0.90472025,-0.10140363,-0.005497787,0.02076942
611,6.11,-0.049543623,0.3863426,0.90472025,-0.10140363,-0.005497787,0.02076942
612,6.12,-0.049543623,0.3863426,0.90472025,-0.10140363,-0.005497787,0.02076942
613,6.13,-0.049543623,0.3863426,0.90472025,-0.5857153778450032,0.0444496478718307,0.0956905719427235
614,6.14,-0.049543623,0.3863426,0.90472025,-0.7648033,0.06291912,0.12339478
615,6.15,-0.049543623,0.3863426,0.90472025,-0.7648033,0.06291912,0.12339478
616,6.16,-0.049543623,0.3863426,0.90472025,-0.7648033,0.06291912,0.12339478
617,6.17,-0.0480541966733326,0.381545081064949,0.9049083856671885,-0.7648033,0.06291912,0.12339478
618,6.18,-0.0285361355124339,0.3186764004740705,0.907373793584979,-0.7648033,0.06291912,0.12339478
619,6.19,-0.026358182,0.3116611,0.9076489,-0.7648033,0.06291912,0.12339478
620,6.2,-0.026358182,0.3116611,0.9076489,-0.7648033,0.06291912,0.12339478
621,6.21,-0.026358182,0.3116611,0.9076489,-0.7648033,0.06291912,0.12339478
622,6.22,-0.0269400427279104,0.3135353033826937,0.907575402738473,-0.7648033,0.06291912,0.12339478
623,6.23,-0.045963651939372,0.374811328769736,0.9051724511139104,-0.7648033,0.06291912,0.12339478
624,6.24,-0.049543623,0.3863426,0.90472025,-0.7648033,0.06291912,0.12339478
625,6.25,-0.049543623,0.3863426,0.90472025,-0.7648033,0.06291912,0.12339478
626,6.26,-0.049543623,0.3863426,0.90472025,-0.793329923269165,-0.0188507091279552,0.1012182547563011
627,6.27,-0.049543623,0.3863426,0.90472025,-0.9352451912365356,-0.4256421860877705,-0.0091063179366939
628,6.28,-0.049543623,0.3863426,0.90472025,-0.9431759,-0.44837508,-0.015271631
629,6.29,-0.049543623,0.3863426,0.90472025,-0.9431759,-0.44837508,-0.015271631
630,6.3,-0.049543623,0.3863426,0.90472025,-0.9431759,-0.44837508,-0.015271631
631,6.31,-0.049543623,0.3863426,0.90472025,-0.9431759,-0.44837508,-0.015271631
632,6.32,-0.049543623,0.3863426,0.90472025,-0.9431759,-0.44837508,-0.015271631
633,6.33,-0.049543623,0.3863426,0.90472025,-0.9431759,-0.44837508,-0.015271631
634,6.34,-0.049543623,0.3863426,0.90472025,-0.9431759,-0.44837508,-0.015271631
635,6.35,-0.049543623,0.3863426,0.90472025,-0.9431759,-0.44837508,-0.015271631
636,6.36,-0.049543623,0.3863426,0.90472025,-0.9431759,-0.44837508,-0.015271631
637,6.37,-0.049543623,0.3863426,0.90472025,-0.668918381879822,-0.3702637613771976,0.1180383642438543
638,6.38,-0.049543623,0.3863426,0.90472025,-0.0456185182049644,-0.1825539202234356,0.3720296187455216
639,6.39,-0.0494668283460239,0.3866058967784531,0.9011876998727992,-0.3378085,-0.22174409,0.018325957
640,6.4,-0.0480883055417698,0.3913322754336285,0.8377757218849535,-0.3378085,-0.22174409,0.018325957
641,6.41,-0.04783522,0.3922,0.8261338,-0.6079354069293573,-0.0416594790541943,0.0847949542142473
642,6.42,-0.04783522,0.3922,0.8261338,-0.7648033,0.06291912,0.12339478
643,6.43,-0.0412734627142266,0.3766670910956842,0.8628386328826825,-0.7648033,0.06291912,0.12339478
644,6.44,-0.0163670719798526,0.3186930471790934,0.9995599585253824,-0.7648033,0.06291912,0.12339478
645,6.45,0.0176954251837782,0.3845471895275291,0.8032360632839879,-0.7648033,0.06291912,0.12339478
646,6.46,0.023673553,0.3961049,0.7687803,-0.7648033,0.06291912,0.12339478
647,6.47,0.023673553,0.3961049,0.7687803,-0.7648033,0.06291912,0.12339478
648,6.48,0.023673553,0.3961049,0.7687803,-0.7648033,0.06291912,0.12339478
649,6.49,0.023673553,0.3961049,0.7687803,-0.7648033,0.06291912,0.12339478
650,6.5,0.023673553,0.3961049,0.7687803,-0.7648033,0.06291912,0.12339478
651,6.51,0.023673553,0.3961049,0.7687803,-0.7648033,0.06291912,0.12339478
652,6.52,0.023673553,0.3961049,0.7687803,-0.7648033,0.06291912,0.12339478
653,6.53,0.023673553,0.3961049,0.7687803,-0.885943725976345,-0.2843225369990825,0.0292205172648549
654,6.54,0.023673553,0.3961049,0.7687803,-0.9431759,-0.44837508,-0.015271631
655,6.55,0.023673553,0.3961049,0.7687803,-0.9431759,-0.44837508,-0.015271631
656,6.56,0.023673553,0.3961049,0.7687803,-0.9431759,-0.44837508,-0.015271631
657,6.57,0.023673553,0.3961049,0.7687803,-0.9431759,-0.44837508,-0.015271631
658,6.58,0.023673553,0.3961049,0.7687803,-0.9431759,-0.44837508,-0.015271631
659,6.59,0.023673553,0.3961049,0.7687803,-0.9431759,-0.44837508,-0.015271631
660,6.6,0.023673553,0.3961049,0.7687803,-0.9431759,-0.44837508,-0.015271631
661,6.61,0.023673553,0.3961049,0.7687803,-0.9431759,-0.44837508,-0.015271631
662,6.62,0.023673553,0.3961049,0.7687803,-0.9431759,-0.44837508,-0.015271631
663,6.63,0.023673553,0.3961049,0.7687803,-0.9431759,-0.44837508,-0.015271631
664,6.64,0.023673553,0.3961049,0.7687803,-0.9431759,-0.44837508,-0.015271631
665,6.65,0.023673553,0.3961049,0.7687803,-0.7495573880339992,-0.4346222305043867,-0.044395311064361
666,6.66,0.023673553,0.3961049,0.7687803,-0.5045747,-0.41722095,-0.08124508
667,6.67,0.0192657631661393,0.3960561965865153,0.783878807197581,-0.5045747,-0.41722095,-0.08124508
668,6.68,-0.0188319694915301,0.3956352396678798,0.9143793329541632,-0.5045747,-0.41722095,-0.08124508
669,6.69,-0.0081655891827204,0.2626473207615982,0.9604466045916672,-0.5045747,-0.41722095,-0.08124508
670,6.7,-0.0061014313,0.2403964,0.96719885,-0.5045747,-0.41722095,-0.08124508
671,6.71,-0.0114038667277602,0.2744834869988553,1.003305904477973,-0.1762561414315938,-0.1919166943800544,0.0072334528573019
672,6.72,-0.016351834,0.30629185,1.0369992,0.1301143,0.018325957,0.08979719
673,6.73,-0.016351834,0.30629185,1.0369992,0.0388933310525657,-0.0875484467000323,0.0404243399561857
674,6.74,-0.016351834,0.30629185,1.0369992,-0.2919936,-0.47158796,-0.1386664
675,6.75,-0.016351834,0.30629185,1.0369992,-0.2919936,-0.47158796,-0.1386664
676,6.76,-0.016351834,0.30629185,1.0369992,-0.2919936,-0.47158796,-0.1386664
677,6.77,-0.016351834,0.30629185,1.0369992,-0.2919936,-0.47158796,-0.1386664
678,6.78,-0.016351834,0.30629185,1.0369992,-0.2919936,-0.47158796,-0.1386664
679,6.79,-0.016351834,0.30629185,1.0369992,-0.2919936,-0.47158796,-0.1386664
680,6.8,-0.016351834,0.30629185,1.0369992,-0.2919936,-0.47158796,-0.1386664
681,6.81,-0.016351834,0.30629185,1.0369992,-0.3460193484272053,-0.1130099766138272,-0.0181842036870475
682,6.82,-0.016351834,0.30629185,1.0369992,-0.2291589393185651,-0.3426930791361964,-0.1153847322525514
683,6.83,-0.016351834,0.30629185,1.0369992,-0.16065755,-0.5137377,-0.18325958
684,6.84,-0.016351834,0.30629185,1.0369992,-0.4611620252395214,-0.3908701371578986,-0.13309471873116
685,6.85,-0.016351834,0.30629185,1.0369992,-0.6772445663302714,-0.1483886873469284,-0.0313225432277219
686,6.86,-0.016351834,0.30629185,1.0369992,-0.03481932,0.0,0.036651913
687,6.87,-0.016351834,0.30629185,1.0369992,-0.03481932,0.0,0.036651913
688,6.88,-0.016351834,0.30629185,1.0369992,-0.03481932,0.0,0.036651913
689,6.89,-0.016351834,0.30629185,1.0369992,-0.03481932,0.0,0.036651913
690,6.9,-0.016351834,0.30629185,1.0369992,-0.03481932,0.0,0.036651913
691,6.91,-0.016351834,0.30629185,1.0369992,-0.3060946858249559,-0.0626597346138982,0.0079485026261682
692,6.92,-0.016351834,0.30629185,1.0369992,-0.91813046,-0.204029,-0.05681047
693,6.93,-0.016351834,0.30629185,1.0369992,-0.91813046,-0.204029,-0.05681047
694,6.94,-0.016351834,0.30629185,1.0369992,-0.91813046,-0.204029,-0.05681047
695,6.95,-0.016351834,0.30629185,1.0369992,-0.91813046,-0.204029,-0.05681047
696,6.96,-0.016351834,0.30629185,1.0369992,-0.91813046,-0.204029,-0.05681047
697,6.97,-0.016351834,0.30629185,1.0369992,-0.91813046,-0.204029,-0.05681047
698,6.98,-0.0176964097668369,0.3070133283491528,1.0196181056373927,-0.91813046,-0.204029,-0.05681047
699,6.99,-0.0246485980491989,0.310743763962133,0.9297483909342856,-0.91813046,-0.204029,-0.05681047
700,7.0,-0.026358182,0.3116611,0.9076489,-0.91813046,-0.204029,-0.05681047
701,7.01,-0.026358182,0.3116611,0.9076489,-0.91813046,-0.204029,-0.05681047
702,7.02,-0.026358182,0.3116611,0.9076489,-0.700703915028552,-0.1636658555464602,-0.0337458170790184
703,7.03,-0.026358182,0.3116611,0.9076489,0.026267206,-0.028710667,0.04337143
704,7.04,-0.026358182,0.3116611,0.9076489,0.026267206,-0.028710667,0.04337143
705,7.05,-0.026358182,0.3116611,0.9076489,-0.6824678607561663,-0.2177965208864268,-0.0361254651391033
706,7.06,-0.026358182,0.3116611,0.9076489,-0.93767816,-0.28588495,-0.064751714
707,7.07,-0.026358182,0.3116611,0.9076489,-0.93767816,-0.28588495,-0.064751714
708,7.08,-0.0175247714788683,0.2879601907687137,0.9144916837314502,-0.93767816,-0.28588495,-0.064751714
709,7.09,0.008297946,0.2186753,0.9344952,-0.9196352244267784,-0.2891352375982958,-0.0698062950592571
710,7.1,0.008297946,0.2186753,0.9344952,-0.2393019074561474,-0.4116917325701544,-0.2603961180947635
711,7.11,0.008297946,0.2186753,0.9344952,-0.076358154,-0.44104472,-0.30604348
712,7.12,0.008297946,0.2186753,0.9344952,-0.076358154,-0.44104472,-0.30604348
713,7.13,0.008297946,0.2186753,0.9344952,-0.076358154,-0.44104472,-0.30604348
714,7.14,0.008297946,0.2186753,0.9344952,-0.076358154,-0.44104472,-0.30604348
715,7.15,0.0072464938919162,0.2201269825687677,0.9366388059374132,-0.076358154,-0.44104472,-0.30604348
716,7.16,-0.0228648660885526,0.26170009471479,0.9980271369336352,-0.076358154,-0.44104472,-0.30604348
717,7.17,-0.029530926,0.27090356,1.0116173,-0.076358154,-0.44104472,-0.30604348
718,7.18,-0.029530926,0.27090356,1.0116173,-0.076358154,-0.44104472,-0.30604348
719,7.19,-0.029530926,0.27090356,1.0116173,-0.076358154,-0.44104472,-0.30604348
720,7.2,-0.028185666862103,0.2758277158895072,1.010500482961164,-0.0718474725138053,-0.4006391763373828,-0.2685603518405762
721,7.21,-0.0178926503654837,0.3135040388928645,1.001955351483807,-0.0373347770483212,-0.0914831812148623,0.018235288955438
722,7.22,-0.0087910724992111,0.2603497841006914,0.9758307344831624,-0.032986723,-0.052534413,0.054367006
723,7.23,-0.0061014313,0.2403964,0.96719885,-0.1000252470028726,-0.2962391431058105,-0.2086606059923936
724,7.24,-0.0061014313,0.2403964,0.96719885,-0.1485436326625878,-0.4711836356194264,-0.2696101214036631
725,7.25,-0.0061014313,0.2403964,0.96719885,-0.16065755,-0.5137377,-0.18325958
726,7.26,-0.0061014313,0.2403964,0.96719885,-0.16065755,-0.5137377,-0.18325958
727,7.27,-0.0061014313,0.2403964,0.96719885,-0.16065755,-0.5137377,-0.18325958
728,7.28,-0.0061014313,0.2403964,0.96719885,-0.16065755,-0.5137377,-0.18325958
729,7.29,-0.0061014313,0.2403964,0.96719885,-0.16065755,-0.5137377,-0.18325958
730,7.3,-0.0061014313,0.2403964,0.96719885,-0.1711767230141362,-0.4630795742260838,-0.2577242359079904
731,7.31,-0.0061014313,0.2403964,0.96719885,-0.18387043,-0.40194935,-0.3475823
732,7.32,-0.0061014313,0.2403964,0.96719885,-0.1873907193624378,-0.3578461028261924,-0.3109181592137264
733,7.33,-0.0061014313,0.2403964,0.96719885,-0.2140798308210536,-0.023476862596041,-0.0329485836383864
734,7.34,0.020898874720814,0.2859224420206179,1.0430756270773185,-0.21624629,0.0036651916,-0.01038471
735,7.35,0.027334413,0.2967736,1.0611609,-0.21624629,0.0036651916,-0.01038471
736,7.36,0.027334413,0.2967736,1.0611609,-0.21624629,0.0036651916,-0.01038471
737,7.37,0.027334413,0.2967736,1.0611609,-0.21624629,0.0036651916,-0.01038471
738,7.38,0.027334413,0.2967736,1.0611609,-0.21624629,0.0036651916,-0.01038471
739,7.39,0.027334413,0.2967736,1.0611609,-0.21624629,0.0036651916,-0.01038471
740,7.4,0.027334413,0.2967736,1.0611609,-0.21624629,0.0036651916,-0.01038471
741,7.41,0.027334413,0.2967736,1.0611609,-0.21624629,0.0036651916,-0.01038471
742,7.42,0.0093188713688863,0.2752666842858807,1.0156332666888526,-0.21624629,0.0036651916,-0.01038471
743,7.43,-0.004148973,0.2591888,0.98159826,-0.21624629,0.0036651916,-0.01038471
744,7.44,-0.004148973,0.2591888,0.98159826,-0.21624629,0.0036651916,-0.01038471
745,7.45,-0.004148973,0.2591888,0.98159826,-0.21624629,0.0036651916,-0.01038471
746,7.46,-0.004148973,0.2591888,0.98159826,-0.21624629,0.0036651916,-0.01038471
747,7.47,-0.004148973,0.2591888,0.98159826,-0.21624629,0.0036651916,-0.01038471
748,7.48,-0.004148973,0.2591888,0.98159826,-0.21624629,0.0036651916,-0.01038471
749,7.49,-0.004148973,0.2591888,0.98159826,-0.21624629,0.0036651916,-0.01038471
750,7.5,-0.004148973,0.2591888,0.98159826,-0.21624629,0.0036651916,-0.01038471
751,7.51,-0.004148973,0.2591888,0.98159826,-0.21624629,0.0036651916,-0.01038471
752,7.52,-0.004148973,0.2591888,0.98159826,-0.21624629,0.0036651916,-0.01038471
753,7.53,0.0004391570702366,0.2442548868283522,0.964235331392032,-0.21624629,0.0036651916,-0.01038471
754,7.54,0.008297946,0.2186753,0.9344952,-0.21624629,0.0036651916,-0.01038471
755,7.55,0.008297946,0.2186753,0.9344952,-0.21624629,0.0036651916,-0.01038471
756,7.56,0.008297946,0.2186753,0.9344952,-0.21624629,0.0036651916,-0.01038471
757,7.57,0.008297946,0.2186753,0.9344952,-0.1388383771772298,-0.2424176218028079,-0.1739892081930951
758,7.58,0.008297946,0.2186753,0.9344952,-0.076358154,-0.44104472,-0.30604348
759,7.59,0.008297946,0.2186753,0.9344952,-0.076358154,-0.44104472,-0.30604348
760,7.6,0.008297946,0.2186753,0.9344952,-0.076358154,-0.44104472,-0.30604348
761,7.61,0.008297946,0.2186753,0.9344952,-0.076358154,-0.44104472,-0.30604348
762,7.62,0.008297946,0.2186753,0.9344952,-0.076358154,-0.44104472,-0.30604348
763,7.63,0.008297946,0.2186753,0.9344952,-0.076358154,-0.44104472,-0.30604348
764,7.64,0.008297946,0.2186753,0.9344952,-0.076358154,-0.44104472,-0.30604348
765,7.65,0.008297946,0.2186753,0.9344952,-0.076358154,-0.44104472,-0.30604348
766,7.66,-0.009605004780115,0.2427214183111131,0.9422180280038392,-0.076358154,-0.44104472,-0.30604348
767,7.67,-0.016595893,0.25211114,0.9452337,-0.076358154,-0.44104472,-0.30604348
768,7.68,-0.016595893,0.25211114,0.9452337,-0.076358154,-0.44104472,-0.30604348
769,7.69,-0.016595893,0.25211114,0.9452337,-0.076358154,-0.44104472,-0.30604348
770,7.7,-0.016595893,0.25211114,0.9452337,-0.076358154,-0.44104472,-0.30604348
771,7.71,-0.016595893,0.25211114,0.9452337,-0.076358154,-0.44104472,-0.30604348
772,7.72,-0.016595893,0.25211114,0.9452337,-0.076358154,-0.44104472,-0.30604348
773,7.73,-0.0102596383294223,0.255714108142461,0.9637455176338804,-0.076358154,-0.44104472,-0.30604348
774,7.74,-0.004148973,0.2591888,0.98159826,-0.076358154,-0.44104472,-0.30604348
775,7.75,-0.004148973,0.2591888,0.98159826,-0.076358154,-0.44104472,-0.30604348
776,7.76,-0.004148973,0.2591888,0.98159826,-0.076358154,-0.44104472,-0.30604348
777,7.77,-0.004148973,0.2591888,0.98159826,-0.076358154,-0.44104472,-0.30604348
778,7.78,-0.0536375509678844,0.1620253576488402,1.019038569821132,-0.076358154,-0.44104472,-0.30604348
779,7.79,-0.09737884,0.07614586,1.0521308,-0.076358154,-0.44104472,-0.30604348
780,7.8,-0.0912550418910405,0.1116375522476785,1.043438946208463,-0.076358154,-0.44104472,-0.30604348
781,7.81,-0.05198419,0.3392396,0.9876996,-0.076358154,-0.44104472,-0.30604348
782,7.82,-0.05198419,0.3392396,0.9876996,-0.076358154,-0.44104472,-0.30604348
783,7.83,-0.05198419,0.3392396,0.9876996,-0.076358154,-0.44104472,-0.30604348
784,7.84,-0.0119041514523137,0.3005311078934585,1.0253412859601807,-0.076358154,-0.44104472,-0.30604348
785,7.85,0.012202863,0.27724904,1.0479817,-0.076358154,-0.44104472,-0.30604348
786,7.86,0.012202863,0.27724904,1.0479817,-0.076358154,-0.44104472,-0.30604348
787,7.87,0.012202863,0.27724904,1.0479817,-0.076358154,-0.44104472,-0.30604348
788,7.88,0.012202863,0.27724904,1.0479817,-0.076358154,-0.44104472,-0.30604348
789,7.89,0.012202863,0.27724904,1.0479817,-0.076358154,-0.44104472,-0.30604348
790,7.9,0.0079265529728973,0.279460925080141,1.0562395186940554,-0.076358154,-0.44104472,-0.30604348
791,7.91,0.0051252022,0.2809099,1.0616491,-0.076358154,-0.44104472,-0.30604348
792,7.92,0.0051252022,0.2809099,1.0616491,-0.0917876162788783,-0.411541084996157,-0.3084413051524538
793,7.93,0.0051252022,0.2809099,1.0616491,-0.1640903411602832,-0.2732865453286009,-0.319677554943797
794,7.94,0.0051252022,0.2809099,1.0616491,-0.16676621,-0.26816985,-0.3200934
795,7.95,0.0051252022,0.2809099,1.0616491,-0.16676621,-0.26816985,-0.3200934
796,7.96,0.0051252022,0.2809099,1.0616491,-0.16676621,-0.26816985,-0.3200934
797,7.97,-0.0218340511253182,0.2646487548555617,1.0185998600692543,-0.16676621,-0.26816985,-0.3200934
798,7.98,-0.07175283,0.234539,0.93888825,-0.16676621,-0.26816985,-0.3200934
799,7.99,-0.0693971125119782,0.2353072918807922,0.940023740022356,-0.16676621,-0.26816985,-0.3200934
800,8.0,0.0115276948762417,0.2617000460150148,0.9790306718032912,-0.16676621,-0.26816985,-0.3200934
801,8.01,0.0154071075627156,0.2995848167351086,0.9709939087108352,-0.16676621,-0.26816985,-0.3200934
802,8.02,0.0056133163,0.32093528,0.9596331,-0.16676621,-0.26816985,-0.3200934
803,8.03,0.0056133163,0.32093528,0.9596331,-0.16676621,-0.26816985,-0.3200934
804,8.04,0.0056133163,0.32093528,0.9596331,-0.16676621,-0.26816985,-0.3200934
805,8.05,0.0056133163,0.32093528,0.9596331,-0.16676621,-0.26816985,-0.3200934
806,8.06,0.0056133163,0.32093528,0.9596331,-0.16676621,-0.26816985,-0.3200934
807,8.07,0.0056133163,0.32093528,0.9596331,-0.16676621,-0.26816985,-0.3200934
808,8.08,0.0056133163,0.32093528,0.9596331,-0.16676621,-0.26816985,-0.3200934
809,8.09,0.0056133163,0.32093528,0.9596331,-0.16676621,-0.26816985,-0.3200934
810,8.1,0.0056133163,0.32093528,0.9596331,-0.16676621,-0.26816985,-0.3200934
811,8.11,0.0056133163,0.32093528,0.9596331,-0.16676621,-0.26816985,-0.3200934
812,8.12,0.0056133163,0.32093528,0.9596331,-0.16676621,-0.26816985,-0.3200934
813,8.13,0.0056133163,0.32093528,0.9596331,-0.16676621,-0.26816985,-0.3200934
814,8.14,0.0056133163,0.32093528,0.9596331,-0.16676621,-0.26816985,-0.3200934
815,8.15,0.0056133163,0.32093528,0.9596331,-0.16676621,-0.26816985,-0.3200934
816,8.16,0.0056133163,0.32093528,0.9596331,-0.16676621,-0.26816985,-0.3200934
817,8.17,0.0056133163,0.32093528,0.9596331,-0.16676621,-0.26816985,-0.3200934
818,8.18,0.0056133163,0.32093528,0.9596331,-0.16676621,-0.26816985,-0.3200934
819,8.19,0.0056133163,0.32093528,0.9596331,-0.16676621,-0.26816985,-0.3200934
820,8.2,0.0056133163,0.32093528,0.9596331,-0.16676621,-0.26816985,-0.3200934
821,8.21,0.0056133163,0.32093528,0.9596331,-0.16676621,-0.26816985,-0.3200934
822,8.22,0.0056133163,0.32093528,0.9596331,-0.16676621,-0.26816985,-0.3200934
823,8.23,0.0056133163,0.32093528,0.9596331,-0.16676621,-0.26816985,-0.3200934
824,8.24,0.0078110678872548,0.3063650056439208,0.9890992051391811,-0.16676621,-0.26816985,-0.3200934
825,8.25,0.012202863,0.27724904,1.0479817,-0.16676621,-0.26816985,-0.3200934
826,8.26,0.012202863,0.27724904,1.0479817,-0.1251602745419651,-0.2573683085330207,-0.3109492375897933
827,8.27,0.012202863,0.27724904,1.0479817,0.2544490860801043,-0.1588158735289198,-0.227518601846389
828,8.28,0.0072834116244097,0.3098631701134367,0.9820247136413668,0.2779437,-0.15271631,-0.22235495
829,8.29,0.0056133163,0.32093528,0.9596331,0.2779437,-0.15271631,-0.22235495
830,8.3,0.0056133163,0.32093528,0.9596331,0.2917970792468004,-0.0797739865557079,-0.091454577128418
831,8.31,0.0056133163,0.32093528,0.9596331,0.30787608,0.004886922,0.06047566
832,8.32,0.0056133163,0.32093528,0.9596331,0.30787608,0.004886922,0.06047566
833,8.33,0.0056133163,0.32093528,0.9596331,0.30787608,0.004886922,0.06047566
834,8.34,0.0056133163,0.32093528,0.9596331,0.30787608,0.004886922,0.06047566
835,8.35,0.0056133163,0.32093528,0.9596331,0.30787608,0.004886922,0.06047566
836,8.36,0.0056133163,0.32093528,0.9596331,0.3636209816991209,-0.0549282521299119,0.0029610677076969
837,8.37,0.0056133163,0.32093528,0.9596331,0.5002986,-0.20158553,-0.13805555
838,8.38,0.0056133163,0.32093528,0.9596331,0.5002986,-0.20158553,-0.13805555
839,8.39,0.0056133163,0.32093528,0.9596331,0.5002986,-0.20158553,-0.13805555
840,8.4,0.0056133163,0.32093528,0.9596331,0.5002986,-0.20158553,-0.13805555
841,8.41,0.0056133163,0.32093528,0.9596331,0.5002986,-0.20158553,-0.13805555
842,8.42,0.0179625985114953,0.303328385629218,0.9597553564617504,0.5002986,-0.20158553,-0.13805555
843,8.43,0.0302631,0.28579104,0.95987713,0.3749901857555018,-0.1893003924189144,-0.171576433362152
844,8.44,0.0302631,0.28579104,0.95987713,0.06414085,-0.15882497,-0.25473082
845,8.45,0.0302631,0.28579104,0.95987713,0.06414085,-0.15882497,-0.25473082
846,8.46,0.0175857468371462,0.2826217003423346,1.033605987871427,0.06414085,-0.15882497,-0.25473082
847,8.47,0.011714748,0.28115395,1.0677505,0.1374823106580749,-0.0619766232427744,-0.0707503010381353
848,8.48,0.011714748,0.28115395,1.0677505,0.20708331,0.029932396,0.103847094
849,8.49,0.011714748,0.28115395,1.0677505,0.20708331,0.029932396,0.103847094
850,8.5,0.011714748,0.28115395,1.0677505,0.20708331,0.029932396,0.103847094
851,8.51,0.011714748,0.28115395,1.0677505,0.20708331,0.029932396,0.103847094
852,8.52,0.011714748,0.28115395,1.0677505,0.20708331,0.029932396,0.103847094
853,8.53,0.011714748,0.28115395,1.0677505,0.20708331,0.029932396,0.103847094
854,8.54,0.011714748,0.28115395,1.0677505,0.20708331,0.029932396,0.103847094
855,8.55,0.011714748,0.28115395,1.0677505,0.2251405053215178,0.0179397961627774,0.0946682473558449
856,8.56,0.011714748,0.28115395,1.0677505,0.5464427561518505,-0.1954515557275886,-0.0686563462081993
857,8.57,0.011714748,0.28115395,1.0677505,0.61086524,-0.23823744,-0.10140363
858,8.58,0.011714748,0.28115395,1.0677505,0.4707332799568652,-0.2022402390618938,-0.1523139602279702
859,8.59,0.0214917959941852,0.2884999529187165,1.0288008474365269,0.1779410485751212,-0.2066859986768771,-0.2494720653444596
860,8.6,0.05686534,0.31507793,0.88788027,-0.1751833537777305,-0.3984492170809216,-0.343330131020057
861,8.61,0.05686534,0.31507793,0.88788027,0.4409180758377736,-0.1502141561566958,-0.0417594620769502
862,8.62,0.05686534,0.31507793,0.88788027,0.571159,-0.09773844,0.021991149
863,8.63,0.05686534,0.31507793,0.88788027,0.571159,-0.09773844,0.021991149
864,8.64,0.05686534,0.31507793,0.88788027,0.571159,-0.09773844,0.021991149
865,8.65,0.05686534,0.31507793,0.88788027,0.571159,-0.09773844,0.021991149
866,8.66,0.05686534,0.31507793,0.88788027,0.571159,-0.09773844,0.021991149
867,8.67,0.05686534,0.31507793,0.88788027,0.571159,-0.09773844,0.021991149
868,8.68,0.05686534,0.31507793,0.88788027,0.571159,-0.09773844,0.021991149
869,8.69,0.05686534,0.31507793,0.88788027,0.571159,-0.09773844,0.021991149
870,8.7,0.05686534,0.31507793,0.88788027,0.571159,-0.09773844,0.021991149
871,8.71,0.05686534,0.31507793,0.88788027,0.571159,-0.09773844,0.021991149
872,8.72,0.05686534,0.31507793,0.88788027,0.571159,-0.09773844,0.021991149
873,8.73,0.0462972664529295,0.3130273851933695,0.8697410484487319,0.6410381788846986,-0.1972274773613788,-0.0411764984573167
874,8.74,0.040513504,0.31190515,0.8598137,0.6792821,-0.25167647,-0.07574729
875,8.75,0.040513504,0.31190515,0.8598137,0.6792821,-0.25167647,-0.07574729
876,8.76,0.040513504,0.31190515,0.8598137,0.6792821,-0.25167647,-0.07574729
877,8.77,0.040513504,0.31190515,0.8598137,0.6792821,-0.25167647,-0.07574729
878,8.78,0.040513504,0.31190515,0.8598137,0.6792821,-0.25167647,-0.07574729
879,8.79,0.040513504,0.31190515,0.8598137,0.6792821,-0.25167647,-0.07574729
880,8.8,0.040513504,0.31190515,0.8598137,0.6792821,-0.25167647,-0.07574729
881,8.81,0.040513504,0.31190515,0.8598137,0.6792821,-0.25167647,-0.07574729
882,8.82,0.040513504,0.31190515,0.8598137,0.5513459623487478,-0.2103519643140027,-0.0589910512675879
883,8.83,0.040513504,0.31190515,0.8598137,-0.010995574,-0.028710667,0.014660766
884,8.84,0.040513504,0.31190515,0.8598137,-0.010995574,-0.028710667,0.014660766
885,8.85,0.040513504,0.31190515,0.8598137,-0.010995574,-0.028710667,0.014660766
886,8.86,0.040513504,0.31190515,0.8598137,-0.010995574,-0.028710667,0.014660766
887,8.87,0.040513504,0.31190515,0.8598137,-0.010995574,-0.028710667,0.014660766
888,8.88,0.040513504,0.31190515,0.8598137,-0.010995574,-0.028710667,0.014660766
889,8.89,0.040513504,0.31190515,0.8598137,-0.010995574,-0.028710667,0.014660766
890,8.9,0.040513504,0.31190515,0.8598137,-0.010995574,-0.028710667,0.014660766
891,8.91,0.040513504,0.31190515,0.8598137,-0.010995574,-0.028710667,0.014660766
892,8.92,0.0398410640467195,0.3123689040835183,0.8611122004128309,-0.010995574,-0.028710667,0.014660766
893,8.93,0.033435844,0.31678632,0.87348086,-0.010995574,-0.028710667,0.014660766
894,8.94,0.033435844,0.31678632,0.87348086,-0.010995574,-0.028710667,0.014660766
895,8.95,0.033435844,0.31678632,0.87348086,-0.010995574,-0.028710667,0.014660766
896,8.96,0.0445116753161685,0.3191245470945064,0.8701581539198447,-0.010995574,-0.028710667,0.014660766
897,8.97,0.055400997,0.3214234,0.8668914,-0.010995574,-0.028710667,0.014660766
898,8.98,0.055400997,0.3214234,0.8668914,-0.010995574,-0.028710667,0.014660766
899,8.99,0.055400997,0.3214234,0.8668914,-0.010995574,-0.028710667,0.014660766
900,9.0,0.055400997,0.3214234,0.8668914,-0.010995574,-0.028710667,0.014660766
901,9.01,0.0442639492278386,0.3181820146988023,0.9000531903467828,-0.010995574,-0.028710667,0.014660766
902,9.02,0.022697324,0.31190515,0.9642702,-0.010995574,-0.028710667,0.014660766
903,9.03,0.022697324,0.31190515,0.9642702,-0.010995574,-0.028710667,0.014660766
904,9.04,0.022697324,0.31190515,0.9642702,-0.010995574,-0.028710667,0.014660766
905,9.05,0.022697324,0.31190515,0.9642702,-0.010995574,-0.028710667,0.014660766
906,9.06,0.022697324,0.31190515,0.9642702,-0.1675394997015035,-0.0269215935508595,-0.0470622690936265
907,9.07,0.022697324,0.31190515,0.9642702,-0.22479841,-0.026267206,-0.06963864
908,9.08,0.022697324,0.31190515,0.9642702,-0.22479841,-0.026267206,-0.06963864
909,9.09,0.022697324,0.31190515,0.9642702,-0.184823506520373,0.0297822645787685,0.0092536285111447
910,9.1,0.022697324,0.31190515,0.9642702,-0.10934488,0.13561209,0.15821409
911,9.11,0.0255444813197001,0.3142107296312167,0.960927886682874,-0.10934488,0.13561209,0.15821409
912,9.12,0.0606114428126514,0.3426073593458423,0.9197623453276172,-0.10934488,0.13561209,0.15821409
913,9.13,0.06760386,0.3482697,0.91155386,-0.10934488,0.13561209,0.15821409
914,9.14,0.0597719087595937,0.3310394063725685,0.882888930384991,-0.10934488,0.13561209,0.15821409
915,9.15,0.055400997,0.3214234,0.8668914,-0.10934488,0.13561209,0.15821409
916,9.16,0.055400997,0.3214234,0.8668914,-0.10934488,0.13561209,0.15821409
917,9.17,0.055400997,0.3214234,0.8668914,-0.10934488,0.13561209,0.15821409
918,9.18,0.055400997,0.3214234,0.8668914,-0.10934488,0.13561209,0.15821409
919,9.19,0.055400997,0.3214234,0.8668914,0.1435446300610838,0.0511528449527579,0.114763969509999
920,9.2,0.055400997,0.3214234,0.8668914,0.20708331,0.029932396,0.103847094
921,9.21,0.055400997,0.3214234,0.8668914,0.20708331,0.029932396,0.103847094
922,9.22,0.055400997,0.3214234,0.8668914,0.20708331,0.029932396,0.103847094
923,9.23,0.055400997,0.3214234,0.8668914,0.20708331,0.029932396,0.103847094
924,9.24,0.055400997,0.3214234,0.8668914,0.20708331,0.029932396,0.103847094
925,9.25,0.055400997,0.3214234,0.8668914,0.20708331,0.029932396,0.103847094
926,9.26,0.055400997,0.3214234,0.8668914,0.20708331,0.029932396,0.103847094
927,9.27,0.055400997,0.3214234,0.8668914,0.20708331,0.029932396,0.103847094
928,9.28,0.0287624328739586,0.3323423868323238,0.9026604748463238,0.20708331,0.029932396,0.103847094
929,9.29,-0.013667206,0.34973404,0.9596331,0.20708331,0.029932396,0.103847094
930,9.3,-0.0080273869458266,0.3463311108720021,0.948639017378592,0.20708331,0.029932396,0.103847094
931,9.31,0.0380103609389992,0.3185530577536544,0.8588945062360241,0.20708331,0.029932396,0.103847094
932,9.32,0.044174362,0.31483385,0.8468786,0.20708331,0.029932396,0.103847094
933,9.33,0.044174362,0.31483385,0.8468786,0.20708331,0.029932396,0.103847094
934,9.34,0.044174362,0.31483385,0.8468786,0.20708331,0.029932396,0.103847094
935,9.35,0.044174362,0.31483385,0.8468786,0.20708331,0.029932396,0.103847094
936,9.36,0.044174362,0.31483385,0.8468786,0.20708331,0.029932396,0.103847094
937,9.37,0.044174362,0.31483385,0.8468786,0.20708331,0.029932396,0.103847094
938,9.38,0.0690950092199882,0.3428244165268895,0.8936500165689563,0.20708331,0.029932396,0.103847094
939,9.39,0.0411134950435535,0.3324552995970692,0.9555915064677336,0.1296241701715045,0.0384210698017766,0.1310815882696493
940,9.4,0.014399378,0.31776255,0.9886759,0.073303826,0.044593163,0.15088372
941,9.41,0.014399378,0.31776255,0.9886759,0.073303826,0.044593163,0.15088372
942,9.42,0.014399378,0.31776255,0.9886759,0.073303826,0.044593163,0.15088372
943,9.43,0.014399378,0.31776255,0.9886759,0.073303826,0.044593163,0.15088372
944,9.44,0.014399378,0.31776255,0.9886759,0.073303826,0.044593163,0.15088372
945,9.45,0.014399378,0.31776255,0.9886759,0.0542254594857156,0.0526116080452914,0.15088372
946,9.46,0.014399378,0.31776255,0.9886759,0.031154128,0.062308256,0.15088372
947,9.47,0.014399378,0.31776255,0.9886759,0.031154128,0.062308256,0.15088372
948,9.48,0.014399378,0.31776255,0.9886759,0.031154128,0.062308256,0.15088372
949,9.49,0.014399378,0.31776255,0.9886759,0.031154128,0.062308256,0.15088372
950,9.5,0.014399378,0.31776255,0.9886759,0.5969748922881765,-0.2118028537117309,-0.0469669157222942
951,9.51,0.046279888835134,0.3231056325202168,0.9429032943386118,0.6792821,-0.25167647,-0.07574729
952,9.52,0.058085624,0.32508424,0.92595315,0.2892166163727372,-0.056806109723505,0.0411749293559681
953,9.53,0.058085624,0.32508424,0.92595315,-0.054367006,0.11484267,0.1441642
954,9.54,0.058085624,0.32508424,0.92595315,-0.054367006,0.11484267,0.1441642
955,9.55,0.058085624,0.32508424,0.92595315,-0.054367006,0.11484267,0.1441642
956,9.56,0.058085624,0.32508424,0.92595315,-0.054367006,0.11484267,0.1441642
957,9.57,0.058085624,0.32508424,0.92595315,-0.054367006,0.11484267,0.1441642
958,9.58,0.058085624,0.32508424,0.92595315,-0.054367006,0.11484267,0.1441642
959,9.59,0.058085624,0.32508424,0.92595315,-0.054367006,0.11484267,0.1441642
960,9.6,0.058085624,0.32508424,0.92595315,0.4464275521682779,-0.0553492357500737,0.0463527604934937
961,9.61,0.058085624,0.32508424,0.92595315,0.571159,-0.09773844,0.021991149
962,9.62,0.058085624,0.32508424,0.92595315,0.306219461663796,-0.0595643551638858,0.0145842369688455
963,9.63,0.058085624,0.32508424,0.92595315,0.0030543262,-0.015882496,0.0061086523
964,9.64,0.058085624,0.32508424,0.92595315,0.0030543262,-0.015882496,0.0061086523
965,9.65,0.058085624,0.32508424,0.92595315,0.0030543262,-0.015882496,0.0061086523
966,9.66,0.058085624,0.32508424,0.92595315,0.0030543262,-0.015882496,0.0061086523
967,9.67,0.058085624,0.32508424,0.92595315,0.0030543262,-0.015882496,0.0061086523
968,9.68,0.058085624,0.32508424,0.92595315,-0.0720113529639155,0.0852929871036005,0.1076920920011528
969,9.69,0.058085624,0.32508424,0.92595315,-0.10934488,0.13561209,0.15821409
970,9.7,0.058085624,0.32508424,0.92595315,-0.10934488,0.13561209,0.15821409
971,9.71,0.058085624,0.32508424,0.92595315,-0.10934488,0.13561209,0.15821409
972,9.72,0.058085624,0.32508424,0.92595315,-0.10934488,0.13561209,0.15821409
973,9.73,0.058085624,0.32508424,0.92595315,-0.10934488,0.13561209,0.15821409
974,9.74,0.058085624,0.32508424,0.92595315,0.0117830918205733,0.1158360898437644,0.1488204920300814
975,9.75,0.058085624,0.32508424,0.92595315,0.040317107,0.111177474,0.14660765
976,9.76,0.058085624,0.32508424,0.92595315,0.040317107,0.111177474,0.14660765
977,9.77,0.058085624,0.32508424,0.92595315,0.040317107,0.111177474,0.14660765
978,9.78,0.058085624,0.32508424,0.92595315,0.040317107,0.111177474,0.14660765
979,9.79,0.058085624,0.32508424,0.92595315,0.040317107,0.111177474,0.14660765
980,9.8,0.058085624,0.32508424,0.92595315,0.040317107,0.111177474,0.14660765
981,9.81,0.058085624,0.32508424,0.92595315,0.040317107,0.111177474,0.14660765
982,9.82,0.058085624,0.32508424,0.92595315,0.040317107,0.111177474,0.14660765
983,9.83,0.058085624,0.32508424,0.92595315,0.040317107,0.111177474,0.14660765
984,9.84,0.058085624,0.32508424,0.92595315,0.040317107,0.111177474,0.14660765
985,9.85,0.058085624,0.32508424,0.92595315,0.040317107,0.111177474,0.14660765
986,9.86,0.058085624,0.32508424,0.92595315,0.040317107,0.111177474,0.14660765
987,9.87,0.058085624,0.32508424,0.92595315,0.040317107,0.111177474,0.14660765
988,9.88,0.058085624,0.32508424,0.92595315,0.040317107,0.111177474,0.14660765
989,9.89,0.058085624,0.32508424,0.92595315,0.040317107,0.111177474,0.14660765
990,9.9,0.0571764546674824,0.3162955940128827,0.939287636440991,0.040317107,0.111177474,0.14660765
991,9.91,0.05662128,0.3109289,0.9474302,0.040317107,0.111177474,0.14660765
992,9.92,0.05662128,0.3109289,0.9474302,0.040317107,0.111177474,0.14660765
993,9.93,0.05662128,0.3109289,0.9474302,0.040317107,0.111177474,0.14660765
994,9.94,0.05662128,0.3109289,0.9474302,0.040317107,0.111177474,0.14660765
995,9.95,0.05662128,0.3109289,0.9474302,0.040317107,0.111177474,0.14660765
996,9.96,0.05662128,0.3109289,0.9474302,0.040317107,0.111177474,0.14660765
997,9.97,0.05662128,0.3109289,0.9474302,0.040317107,0.111177474,0.14660765
998,9.98,0.05662128,0.3109289,0.9474302,0.040317107,0.111177474,0.14660765
