id,timestamp,acc_x,acc_y,acc_z,gyro_x,gyro_y,gyro_z
0,7.15e-07,-0.1648136228571428,0.6965475957142857,0.4648833614285714,1.3113581285714286,-0.85767321,-0.8683193857142858
1,0.010000715,-0.1943667485714285,0.6987733457142857,-0.0543150180714285,0.5830537,-0.47126865,-0.6923954
2,0.020000715,-0.09061504,0.651288,0.0078053335,-0.30160582,0.2495311,-0.42973104
3,0.030000715,-0.0835066171428571,0.6996096342857143,0.4002323905,-0.7112225771428572,0.8371661714285714,-0.3319954771428571
4,0.040000715,0.005549104,0.7923633,0.94252455,-0.9503256,1.2207782,-0.33688226
5,0.050000715,0.03433127,0.8011443,1.3469079,-0.6738735942857144,0.9317602571428572,-0.5180420942857143
6,0.060000715,-0.0369707971428571,0.7239185857142857,1.4169903285714285,-0.2010778257142857,0.3730967928571428,-0.7122915428571428
7,0.070000715,-0.23144644,0.60442555,1.2551342,0.5006547925714285,-0.4677781042857143,-0.7967629742857143
8,0.080000715,-0.2414470166666666,0.5813246,1.1483292,0.7247702866666667,-0.8023478666666667,-0.7347474333333333
9,0.090000715,-0.2091541928571428,0.5522664999999999,0.8874428428571429,1.0902314085714286,-1.859288085714286,-0.3510190228571428
10,0.100000715,0.14589772,0.4410420083333333,0.5012894083333334,1.05096265,-2.5487600833333333,-0.3077652166666667
11,0.110000715,0.2026163471428571,0.5795459999999999,0.34990718,0.9359488571428572,-2.721804457142857,-0.6014664
12,0.120000715,0.13415417,0.7283961,0.5388729,0.56106323,-3.740676,-1.069899
13,0.130000715,-0.10378654,0.69741875,0.25894803,0.4469220328571429,-4.575267771428572,-1.066757485714286
14,0.140000715,-0.1761775257142857,0.7076632785714285,0.2468218928571428,0.17852011,-4.8292055,-1.0894461
15,0.150000715,-0.22827552,0.6859547,0.09494456,0.08078455,-3.543982999999999,-0.837777
16,0.160000715,-0.27681494,0.6744600499999999,0.079333894,-0.21608722,-2.1193345,-0.5543439
17,0.170000715,-0.387858,0.7415982,0.2125734,-0.5862606999999999,-0.7314896,-0.27579755
18,0.180000715,-0.5369266666666667,0.8583224500000001,0.3478201,-0.7094481999999999,-0.4790060583333333,-0.108832625
19,0.190000715,-0.6671600000000001,0.9745733714285716,0.4585415542857142,-0.8126232,-0.4040754571428571,0.2142764885714285
20,0.200000715,-0.7239141866666667,1.0944033333333334,0.7002542666666667,-0.7666642,-0.6435275933333333,0.75694158
21,0.210000715,-0.5247736628571429,1.150790171428571,0.9181154228571428,-0.451001604,-1.2261013257142857,1.2809904
22,0.220000715,-0.17336378,1.1398836,0.90371126,-0.035276428,-1.6428736,1.5665178
23,0.230000715,0.26202747,1.0818009,0.85367787,0.31183752,-1.5439165,1.3649383
24,0.240000715,0.4217101428571428,1.0096886728571428,0.8570622314285714,0.6216243528571429,-1.3374501,0.8286143157142857
25,0.250000715,0.33035463,0.99075896,0.8749291,0.9226848,-1.2531532,0.22509721
26,0.260000715,-0.11747637,1.0700624,0.84245765,1.3111836999999995,-1.2470447,-0.16951011
27,0.270000715,-0.40837747,1.093021,0.8500191,1.4260229000000002,-1.2946907,-0.12430742
28,0.280000715,-0.5493700042857143,1.0976206,0.8843329799999999,1.6162581857142857,-1.4386762,0.0318949514285714
29,0.290000715,-0.6556784866666666,1.0874922666666669,0.9297493866666668,2.0743354333333333,-2.0297436,0.4502962333333333
30,0.300000715,-0.6726698857142858,1.052230442857143,0.9577867428571428,2.6642976857142857,-2.768752542857143,0.9643968857142858
31,0.310000715,-0.5551238333333334,0.992918725,0.9248557833333332,3.2182488,-3.3692808,1.3478345
32,0.320000715,-0.3271096885714285,0.9321928471428572,0.9006797571428571,3.5341440857142854,-3.770694728571428,1.4717492142857145
33,0.330000715,-0.0035063024,0.8758133,0.9224928,4.073435,-4.3136506,1.4785558
34,0.340000715,0.21516497,0.8272434,0.9913383,4.548674,-4.4407067,1.2281084
35,0.350000715,0.3018164,0.80870575,0.97984374,5.139974,-4.484688,0.78829837
36,0.360000715,0.23958716,0.83114606,0.7782771,5.779073,-4.3747354,0.32771957
37,0.370000715,-0.0739938657142857,0.8198562114285713,0.3360649028571428,6.1508174,-4.217660199999999,-0.0126096271428571
38,0.380000715,-0.1955645357142857,0.8275918614285714,0.0994788014285714,6.1918314571428565,-4.074721985714286,-0.079279244
39,0.390000715,-0.26230189,0.824804245,-0.13970326,6.04357,-3.7382325,-0.047951508
40,0.400000715,-0.3115817642857142,0.813340122857143,-0.36047397,5.620601742857143,-3.1970653857142857,0.0887910142857142
41,0.410000715,-0.4427697399999999,0.8511777,-0.29431596,5.2670307,-2.7790496,0.21654536
42,0.420000715,-0.5745762,0.8904483,-0.11250656,5.162313814285715,-2.7088893714285716,0.3673373771428571
43,0.430000715,-0.563777825,0.889838525,-0.1129130891666666,5.169295166666667,-2.851944,0.5492535049999999
44,0.440000715,-0.4292236757142857,0.8098251042857143,-0.1629886021428571,5.226539714285715,-3.015883685714286,0.6999873328571429
45,0.450000715,-0.1797056,0.7125416000000001,-0.23306239,5.3672094,-3.2408502,0.7162184000000001
46,0.460000715,-0.1052239057142857,0.6997882142857144,-0.2625414442857142,5.428992428571429,-3.2953028571428575,0.6083602571428571
47,0.470000715,-0.0739938614285714,0.6447414414285715,-0.3084587571428571,5.5073553142857135,-3.2876234714285713,0.4490163742857143
48,0.480000715,-0.1993975085714285,0.5831045942857144,-0.2151998328571428,5.656467485714286,-3.340396357142857,0.3181205328571428
49,0.490000715,-0.4913396399999999,0.4744484266666666,-0.1256678966666666,6.07289075,-3.5085539499999996,0.17256435
50,0.500000715,-0.6620595342857143,0.27333476,-0.2108224057142857,6.682603328571429,-3.5942472000000003,0.2758847928571428
51,0.510000715,-0.7394769328571428,0.1789999971428571,-0.4558279942857143,7.0711023285714285,-3.625313142857143,0.4474456142857143
52,0.520000715,-0.7287315433333333,0.15100475,-0.7123586533333334,7.115607,-3.604660666666667,0.571244
53,0.530000715,-0.64436686,0.075339764,-1.573354,6.639495142857143,-3.1440089714285717,0.9151800857142858
54,0.540000715,-0.61799335,0.06851009,-1.6539074,6.163907,-2.6837575,1.0350807
55,0.550000715,-0.48426607,0.055338595,-1.4698724,5.0715594,-1.8334581,1.265981
56,0.560000715,-0.41423148,0.10854292,-1.2641591,4.525462,-1.557355,1.3502779
57,0.570000715,-0.3820083685714285,0.1648092657142857,-1.232145071428571,4.189321428571429,-1.3437330571428574,1.4591832142857142
58,0.580000715,-0.31139011,0.19500121,-1.3447634666666666,3.719958,-0.9131148166666666,1.6239374333333334
59,0.590000715,-0.1658241257142857,0.2373134842857142,-1.3985137142857142,3.184390428571429,-0.3759764714285714,1.7335408857142858
60,0.600000715,0.14708175,0.3193784,-1.2661104,2.4995433714285715,0.2879272171428571,1.7855501714285715
61,0.610000715,0.265442325,0.318402735,-1.20314945,2.1871386,0.583053685,1.7180079499999998
62,0.620000715,0.46142936,0.26714975,-0.9886247500000002,1.649593,1.0705098,1.4089192
63,0.630000715,0.3857019685714285,0.1792700357142857,-0.6989998285714286,1.5665178,1.1242644,1.2183349
64,0.640000715,0.26519838,0.12781233,-0.5061576,1.9501299,0.7113316,1.0827267
65,0.650000715,0.1710639771428571,0.1192404077142857,-0.5778952285714285,2.248572557142857,0.2861819371428571,1.0534061571428572
66,0.660000715,0.0622858614285714,0.1173936105714285,-0.7915009571428572,2.5084443,-0.2599155,1.0509627
67,0.670000715,-0.0156564016666666,0.1189500366666666,-0.9402327,2.5074263,-0.4136453916666667,1.1039028666666668
68,0.680000715,-0.1299553174285714,0.1510062028571428,-1.269351114285714,2.278242185714286,-0.3864481471428571,1.2904148428571427
69,0.690000715,-0.0388872854285714,0.1155860114285714,-1.4620626571428572,1.6666967285714287,-0.06636419,1.6736778714285714
70,0.700000715,0.2256991553333333,0.06302705,-1.2879155833333331,0.98580565,0.349710071,1.9757854833333337
71,0.710000715,0.5368301,0.0031099375,-0.9320055,0.58427542,0.4662946285714285,2.0831200285714284
72,0.720000715,0.8591965,-0.015946053,-0.6894305,0.5107701166666667,0.3564293916666667,2.0240423
73,0.730000715,1.3137700428571428,-0.0048391326,-0.5047158714285714,0.6221479142857144,0.1633143821428571,1.8110311571428572
74,0.740000715,1.4996867571428572,-0.0972661281428571,-0.7152899714285714,1.1682454,-0.35765108,0.8542698599999999
75,0.750000715,1.2923925,-0.034727637,-1.1003995,1.165802,-0.29167956,0.37536564
76,0.760000715,1.0426305,0.0244657118571428,-1.363751157142857,0.9354253214285714,-0.1625289985714285,0.2401065971428571
77,0.770000715,0.5502193857142857,-0.003510658,-1.5132764428571428,0.1738514964285714,0.1683756788571428,0.2296349371428571
78,0.780000715,0.3626634333333333,-0.026912138,-1.3006653333333331,-0.513366235,0.4454094866666667,0.4718795066666666
79,0.790000715,0.44485175,-0.0778181311428571,-0.9788158571428572,-0.90110883,0.4631531285714286,0.7930106571428571
80,0.800000715,0.66933787,-0.1723576199999999,-0.64500713,-1.0700517,0.22509721,1.1792406
81,0.810000715,0.7964794,-0.16577187,-0.45295325,-0.8776348166666667,0.109036235,1.3604586833333334
82,0.820000715,0.9150839,-0.12747695,-0.34020278,-0.5407089199999999,0.0198525365714285,1.4919944714285711
83,0.830000715,1.2084546,-0.09598121,-0.5012488,-0.1218422145714285,0.00554125745,1.4782067714285714
84,0.840000715,1.3873371,-0.10939662,-0.7419030000000001,0.058794048,0.028404398,1.2940799
85,0.850000715,1.3323251571428574,-0.0884894794285714,-0.9395800285714284,-0.024106652,0.0118242577142857,1.063703221428571
86,0.860000715,1.2757321,-0.0802660074285714,-0.9927364857142856,-0.1148611025714285,-0.0016143820857142,0.9129112114285716
87,0.870000715,1.11912015,-0.089517418,-0.9169895,-0.42784761,0.0121151376666666,0.7231413533333333
88,0.880000715,0.9984946485714286,-0.1271502742857143,-0.7400344571428571,-0.5780578642857143,0.0318949525714285,0.6785204214285715
89,0.890000715,1.083103277142857,-0.18634798,-0.6366268514285714,-0.5546711400000001,0.0793665108571428,0.6743317214285715
90,0.900000715,1.3072715,-0.2687657,-0.54298896,-0.41522342,0.2360924599999999,0.55373305
91,0.910000715,1.1603726,-0.17747986,-0.6022912,-0.2246390857142857,0.3575637971428572,0.32021485
92,0.920000715,1.0790873,-0.13747753,-0.6926014,-0.1740260214285714,0.4081768628571428,0.2331254871428571
93,0.930000715,1.2145526,-0.12796478,-0.6708623,-0.16355436,0.4010212,0.22265382
94,0.940000715,1.298207342857143,-0.1091222171428571,-0.6497461228571428,-0.069309348,0.3915967171428571,0.1409748257142857
95,0.950000715,1.3811069666666669,-0.0433511058333333,-0.72189171,0.0431156373333333,0.2882180783333333,0.0296260933333333
96,0.960000715,1.4371569999999998,-0.0142952591428571,-0.8106570428571428,0.0566997151428571,0.1861775057142857,-0.0768358542857142
97,0.970000715,1.4935018,0.007744354,-0.9088335,0.04902049,0.07727218,-0.1927223
98,0.980000715,1.4935018,0.007744354,-0.9088335,0.04902049,0.07727218,-0.1927223
99,0.990000715,1.432836257142857,-0.0106626442857142,-0.9070825285714286,-0.16041285,0.0308477885714285,-0.4091367571428571
100,1.000000715,1.3017019,-0.0355406941666666,-0.6956808083333333,-0.6636346583333333,-0.1381532816666666,-1.0540169
101,1.010000715,1.4044112,-0.0132629685,-0.66671574,-0.47019967,-0.24403349,-1.141979
102,1.020000715,1.4466697142857143,-0.0021560490685714,-0.7309529057142857,-0.4108602271428571,-0.30162764,-1.1786297857142858
103,1.030000715,1.5296015,-0.007622396,-1.0132604,-0.3728713416666667,-0.6046369666666667,-1.36432735
104,1.040000715,1.3880688000000003,0.0016464376,-1.1489694,-0.5407089085714285,-0.8229421342857143,-1.5482796285714286
105,1.050000715,1.116681,0.03652652,-1.1096684,-0.8529390771428572,-0.9390031342857142,-1.6140766142857144
106,1.060000715,1.0618505666666669,0.0619954866666666,-1.006522156666667,-0.9845330666666668,-0.9717562,-1.5883046666666667
107,1.070000715,1.0366371,0.1265187114285714,-0.5130743657142858,-1.1583627857142855,-1.0669319571428573,-1.437628957142857
108,1.080000715,1.1937891,0.0802181,-0.20278622,-0.8843541,-1.1334271,-1.4021999
109,1.090000715,1.1371701,0.039209604,-0.14909407,-0.3981197,-1.0723424,-1.4596195
110,1.100000715,0.9497113714285714,0.0689674377142857,-0.4120841528571429,0.115013812,-1.0672811,-1.4060395
111,1.110000715,0.69376,0.1656499,-0.9722823000000002,0.29839888,-1.0149227,-1.3044643
112,1.120000715,0.4368286142857142,0.2793847542857143,-1.1953310857142856,-0.0474933745714285,-0.8721589714285714,-1.1749647
113,1.130000715,0.3441751285714285,0.3347538485714286,-0.9950580857142856,-0.4698506285714285,-0.8278289714285715,-0.9805407
114,1.140000715,0.36122535,0.3662053283333333,-0.7470456166666667,-0.6471417783333333,-0.7984792000000001,-0.83574085
115,1.150000715,0.5613916285714285,0.41578645,-0.4929337714285715,-0.6092983314285715,-0.6372446142857143,-0.7108953285714286
116,1.160000715,0.8582208,0.39237043,-0.2848032,-0.3516953,-0.4456131,-0.7192727
117,1.170000715,0.8582208000000001,0.39237043,-0.2848032,-0.3516953,-0.4456130999999999,-0.7192727
118,1.180000715,0.8582208,0.39237043,-0.2848032,-0.3516953,-0.4456131,-0.7192727
119,1.190000715,0.8582208,0.39237043,-0.2848032,-0.3516953,-0.4456131,-0.7192727
120,1.200000715,0.8582208,0.39237043,-0.2848032,-0.3516953,-0.4456131,-0.7192727
121,1.210000715,0.8582208000000001,0.39237043,-0.2848032,-0.3516953,-0.4456130999999999,-0.7192727
122,1.220000715,0.8582208,0.39237043,-0.2848032,-0.3516953,-0.4456131,-0.7192727
123,1.230000715,0.8887626571428572,0.37563601,-0.3049524571428571,-0.1998561285714285,-0.4026792571428571,-0.7740744142857142
124,1.240000715,0.8212848542857143,0.2763314614285714,-0.6161378742857143,0.5976922428571428,-0.37074065,-1.1341251857142858
125,1.250000715,0.69449174,0.23666015,-0.8014491999999999,0.66735065,-0.38330665,-1.1712996
126,1.260000715,0.69449174,0.2366601499999999,-0.8014492,0.66735065,-0.38330665,-1.1712996
127,1.270000715,0.69449174,0.23666015,-0.8014491999999999,0.66735065,-0.38330665,-1.1712996
128,1.280000715,0.69449174,0.23666015,-0.8014491999999999,0.66735065,-0.38330665,-1.1712996
129,1.290000715,0.69449174,0.2366601499999999,-0.8014492,0.66735065,-0.38330665,-1.1712996
130,1.300000715,0.69449174,0.23666015,-0.8014491999999999,0.66735065,-0.38330665,-1.1712996
131,1.310000715,0.69449174,0.2366601499999999,-0.8014492,0.66735065,-0.38330665,-1.1712996
132,1.320000715,0.69449174,0.23666015,-0.8014491999999999,0.66735065,-0.38330665,-1.1712996
133,1.330000715,0.69449174,0.2366601499999999,-0.8014492,0.66735065,-0.38330665,-1.1712996
134,1.340000715,0.69449174,0.23666015,-0.8014491999999999,0.66735065,-0.38330665,-1.1712996
135,1.350000715,0.69449174,0.23666015,-0.8014491999999999,0.66735065,-0.38330665,-1.1712996
136,1.360000715,0.69449174,0.2366601499999999,-0.8014492,0.66735065,-0.38330665,-1.1712996
137,1.370000715,0.69449174,0.23666015,-0.8014491999999999,0.66735065,-0.38330665,-1.1712996
138,1.380000715,0.69449174,0.2366601499999999,-0.8014492,0.66735065,-0.38330665,-1.1712996
139,1.390000715,0.69449174,0.23666015,-0.8014491999999999,0.66735065,-0.38330665,-1.1712996
140,1.400000715,0.69449174,0.23666015,-0.8014491999999999,0.66735065,-0.38330665,-1.1712996
141,1.410000715,0.69449174,0.2366601499999999,-0.8014492,0.66735065,-0.38330665,-1.1712996
142,1.420000715,0.69449174,0.23666015,-0.8014491999999999,0.66735065,-0.38330665,-1.1712996
143,1.430000715,0.69449174,0.2366601499999999,-0.8014492,0.66735065,-0.38330665,-1.1712996
144,1.440000715,0.69449174,0.23666015,-0.8014491999999999,0.66735065,-0.38330665,-1.1712996
145,1.450000715,-0.1406687766666667,0.1647250583333333,-0.4477852516666666,0.0714182366666666,-0.3382057633333333,-0.49784051
146,1.460000715,-0.483408,0.2346739657142857,-0.4571564442857143,-0.2680964885714285,-0.6208389885714286,-0.3257124842857143
147,1.470000715,-0.5537213357142857,0.20664097,-0.7856425442857143,0.0991754228571428,-0.5344477271428572,-0.1668921985714286
148,1.480000715,-0.4689806333333333,0.1939848916666666,-1.4751724666666668,-0.2726923933333333,-0.1825415233333333,0.5667644666666667
149,1.490000715,-0.4029938928571428,0.1666125085714285,-0.7849804714285715,-0.3686245048571429,-0.2878399571428571,0.2446443371428571
150,1.500000715,-0.507367,0.18345583,-0.7175622,0.044540948,-0.4500926166666666,0.2605263499999999
151,1.510000715,-0.5064494228571429,0.2049989042857143,-0.8801907142857143,0.1970418785714285,-0.5419524,0.3374931028571428
152,1.520000715,-0.4789354666666667,0.2216948533333333,-1.006969316666667,0.2438044099999999,-0.5720584433333333,0.4030573833333333
153,1.530000715,-0.4459450071428571,0.1986091585714285,-1.0773276571428572,0.17852011,-0.58122116,0.4010212
154,1.540000715,-0.5203352416666666,0.1500494083333333,-1.0471088166666669,0.00503949,-0.45049986,0.3607053199999999
155,1.550000715,-0.6361303257142857,0.1483013342857142,-0.9684058,-0.0792574314285714,-0.4573064285714285,0.4196957085714285
156,1.560000715,-0.7104639571428571,0.1508101942857143,-0.9080582328571428,-0.0923470157142857,-0.5374146785714286,0.5376764757142858
157,1.570000715,-0.6974797266666667,0.1561066733333333,-0.8067238733333334,-0.047493373,-0.60606228,0.7255847266666667
158,1.580000715,-0.6334429,0.1427957914285714,-0.7083993428571428,0.094964935,-0.5978012971428571,0.9083735
159,1.590000715,-0.53949288,0.12114528,-0.6770618666666667,0.4242334133333333,-0.4533504933333334,1.1071606333333337
160,1.600000715,-0.4765652571428571,0.12021607,-0.8210017571428573,0.7739870857142858,-0.2810333742857143,1.2467828714285714
161,1.610000715,-0.4478767333333333,0.1263894808333333,-1.0288100083333334,1.0082034,-0.2348707716666666,1.30690775
162,1.620000715,-0.4159389,0.15464316,-1.2285168,1.1059389,-0.33566058,1.297745
163,1.630000715,-0.3356728971428571,0.2012312542857142,-1.4525629714285715,0.9862129142857142,-0.5990230071428572,1.1342124285714286
164,1.640000715,-0.3425504683333333,0.2644717483333333,-1.5889087166666669,0.5525113333333334,-0.9910996416666666,0.7382089333333334
165,1.650000715,-0.4359836285714285,0.2900038571428571,-1.4879483,0.17653486,-1.018587737142857,0.5347094914285714
166,1.660000715,-0.5325361383333332,0.3045401333333333,-1.25305076,-0.1440072416666666,-0.8422565416666666,0.4217900283333333
167,1.670000715,-0.6770690928571429,0.3514185828571428,-0.8020981714285715,-0.2166108042857142,-0.5103628800000001,0.4453512928571428
168,1.680000715,-0.76809359,0.4197805933333333,-0.5665778,-0.02916796,-0.3095977566666666,0.5736873833333334
169,1.690000715,-0.7873978642857142,0.4785122571428571,-0.4759162685714285,0.2455824171428571,-0.19778361,0.7186617928571428
170,1.700000715,-0.7314799571428571,0.5238677,-0.5221123657142857,0.5647282842857143,-0.1066801078571428,0.8453689714285714
171,1.710000715,-0.6449614,0.5359357416666667,-0.5960002449999999,0.7247702583333333,0.0021379674999999,0.8892917833333334
172,1.720000715,-0.4759729,0.54609895,-0.68650347,0.8408313,0.20066333,0.8750387
173,1.730000715,-0.3572595142857143,0.5611041642857143,-0.7760992985714286,0.8853358714285715,0.3350497371428571,0.7554872
174,1.740000715,-0.321131555,0.607474435,-1.00374755,0.8558988,0.4295274333333334,0.3651848566666666
175,1.750000715,-0.3477162914285714,0.6016726857142858,-1.052356657142857,0.7965011857142857,0.4219645542857143,0.1743096271428571
176,1.760000715,-0.393712,0.5895466,-1.0833254,0.7211052000000001,0.3619269916666667,-0.0848059583333333
177,1.770000715,-0.4978643985714285,0.5435204185714285,-1.1615225,0.5724075285714285,0.24604055,-0.4372357428571428
178,1.780000715,-0.5500625542857143,0.4881382514285714,-1.2426074142857144,0.4169032571428571,0.3092196071428571,-0.6691832057142857
179,1.790000715,-0.63793355,0.4414993333333333,-1.2682142,0.1940967089999999,0.5130098900000001,-0.8789074133333333
180,1.800000715,-0.7725494528571428,0.38936504,-1.214988057142857,-0.002290675,0.7471098500000001,-0.9859511171428572
181,1.810000715,-0.8967851000000001,0.35473107,-1.1204566833333334,-0.1212022733333333,0.9397885333333336,-0.9566886066666668
182,1.820000715,-0.9374633,0.32279322,-0.9876491,-0.13912046,1.00576,-0.8719845
183,1.830000715,-0.88889337,0.28937665,-0.8368170999999999,-0.026724568,0.9116895,-0.74859333
184,1.840000715,-0.7853071242857143,0.2581596757142857,-0.7505620642857143,0.1912824617142857,0.7083646628571428,-0.6707539371428571
185,1.850000715,-0.6287358333333334,0.1783234066666666,-0.79647939,0.5187111333333333,0.4751373733333333,-0.6801784033333332
186,1.860000715,-0.5302138285714285,0.1358615902857143,-0.901738167142857,0.5865442657142858,0.3729222457142857,-0.7630791228571427
187,1.870000715,-0.4329215985714286,0.1126894985714285,-0.9615631285714284,0.5907329285714286,0.2057246342857142,-0.9662294571428572
188,1.880000715,-0.4066598899999999,0.1142343066666666,-1.0553258666666665,0.5675789116666666,0.1265471941666666,-1.1963443333333332
189,1.890000715,-0.4989184785714285,0.1360706628571428,-1.1624633714285717,0.4189975785714285,0.0996117321428571,-1.5229731285714283
190,1.900000715,-0.6174394666666666,0.1455369466666666,-1.2255085,0.2315874616666666,0.1776547416666666,-1.7544551833333333
191,1.910000715,-0.79148785,0.0945961072714285,-1.2431866571428571,-0.0028142614285714,0.3526770357142857,-1.9219436857142855
192,1.920000715,-0.95234215,-0.0037197291,-1.2199796,-0.21120045,0.55373305,-1.9250852
193,1.930000715,-1.1509033642857145,-0.0821389441571428,-1.0881993714285714,-0.2839785242857143,0.8027842028571428,-1.6549161571428572
194,1.940000715,-1.3250817285714285,-0.0955630707142857,-0.9207809957142856,-0.1881627679999999,1.1066370285714286,-0.8800127057142858
195,1.950000715,-1.1403409333333334,-0.02594664,-0.84407368,0.0132095733333333,1.0477048233333333,-0.4114056476666666
196,1.960000715,-0.6855321428571429,0.0895696871428571,-0.8754518271428572,0.3786816771428571,0.7530437799999999,0.129979568
197,1.970000715,-0.3373519949999999,0.15941479,-0.991063965,0.5240051466666666,0.5924200333333333,0.2413864733333333
198,1.980000715,-0.0876270637142857,0.2159098071428571,-1.0870495,0.5889876414285714,0.4556484,0.1652341828571428
199,1.990000715,0.0469234688571428,0.2591004885714286,-1.2202323142857143,0.54867172,0.3448232842857143,-0.0431519985714285
200,2.000000715,0.0721688433333333,0.2689384666666667,-1.3394887333333332,0.4087586199999999,0.2918831866666667,-0.2582865833333334
201,2.010000715,0.0429511111428571,0.2510512342857142,-1.3738345714285711,0.1784546574285714,0.3179459942857142,-0.4574809642857143
202,2.020000715,-0.010579886,0.23031832,-1.3319985,-0.008399149,0.37903073,-0.58488625
203,2.030000715,-0.1127330651428571,0.1981648714285714,-1.1728776571428572,-0.1623326555714286,0.4167287214285714,-0.6655181071428571
204,2.040000715,-0.21922012,0.16150333,-1.0637816,-0.18798824,0.42301172,-0.6789567499999999
205,2.050000715,-0.21922012,0.16150333,-1.0637816,-0.18798824,0.42301172,-0.67895675
206,2.060000715,-0.21922012,0.16150333,-1.0637816,-0.2078844085714286,0.4282475542857143,-0.6768624128571429
207,2.070000715,-0.21922012,0.16150333,-1.0637816,-0.25762483,0.44133714,-0.67162657
208,2.080000715,-0.2966244457142857,0.1172542285714285,-0.952398782857143,-0.17472413,0.7753833057142857,0.1025787028571428
209,2.090000715,-0.3805405,0.08631601,-0.8919728399999999,0.06490252,0.7553126,0.57205844
210,2.100000715,-0.3805405,0.08631601,-0.89197284,0.06490252,0.7553126,0.57205844
211,2.110000715,-0.3805405,0.08631601,-0.8919728399999999,0.244949755,0.534389515,0.5533257933333333
212,2.120000715,-0.1337055385714285,0.1028892814285714,-0.7251511685714286,0.98010445,-0.40651885,0.39979953
213,2.130000715,0.0061080799999999,0.1023586183333333,-0.7381476833333332,0.229984,0.59160554,0.63192147
214,2.140000715,0.2006258214285714,0.0592325497142857,-1.1797203428571428,0.9052319671428573,-0.4667309528571429,0.2256207971428571
215,2.150000715,0.0788809091428571,0.0152622154285714,-1.0521171028571428,0.4033991628571428,-0.0731707771428571,0.1076400111428571
216,2.160000715,-0.0388843825,-0.0399769266666666,-0.8543587666666667,-0.071927267,0.3932838166666667,0.0585395273333333
217,2.170000715,-0.1932212014285714,-0.13658898,-0.6962993500000001,0.082595278,0.2579084342857142,0.1956020085714285
218,2.180000715,-0.2631657616666666,-0.1778101683333333,-0.6500531916666666,0.2931048766666667,0.1070000793333333,0.3904331933333333
219,2.190000715,-0.3596682057142857,-0.1875719214285714,-0.7600966142857143,0.51673315,-0.0440246357142857,0.6509450142857143
220,2.200000715,-0.38737017,-0.13772145,-0.91419965,0.6135961,-0.12430742,0.8725953
221,2.210000715,-0.3268483300000001,0.005793021,-1.1616532,0.50975204,0.00030542363,1.2281084
222,2.220000715,-0.0154451514285714,0.0943391314285714,-1.2909551,0.0310659499999999,0.4537286176614286,1.5569187285714283
223,2.230000715,0.2658895083333333,0.1208149833333333,-1.2163666833333333,-0.2869455,0.741874,1.681357
224,2.240000715,0.6303939428571429,0.0667199234285714,-0.9035501028571428,-0.5841663142857143,0.99354308,1.4408577142857144
225,2.250000715,0.7691607500000001,0.0297781603333333,-0.71886306,-0.5125517333333334,0.9739959833333331,1.2224071
226,2.260000715,0.81476445,0.0360735335714285,-0.6222749857142856,-0.2108513882857143,0.7624682871428571,0.8616000285714286
227,2.270000715,0.6671861442857142,0.0470628502857142,-0.7240405357142857,0.0415594328571428,0.5366293357142857,0.5746763571428571
228,2.280000715,0.4459711333333333,0.0476044026666666,-0.8986398333333333,0.1851376333333333,0.3586691433333333,0.3651848533333333
229,2.290000715,0.2378056885714286,0.0520065171428571,-1.021248542857143,0.1530390601428571,0.30817243,0.3139318657142857
230,2.300000715,0.08997476,0.06875401,-1.0467074,0.029473381,0.30817243,0.3631487
231,2.310000715,-0.021068303,0.08363292,-1.0076503,-0.14645062,0.37414396,0.5757234999999999
232,2.320000715,0.10704893,0.022379354,-0.85270226,-0.2673984,0.43767205,0.83472276
233,2.330000715,0.3355901442857142,-0.047528906,-0.6973795742857144,-0.1084035737142857,0.3149790285714285,0.9474677428571427
234,2.340000715,0.6762328257142858,-0.1444073742857143,-0.6505127,0.1675903037142857,0.017583674,0.8207605571428571
235,2.350000715,0.8481389,-0.1618691933333333,-0.7652377333333332,0.3273123133333333,-0.1788764393333333,0.6453601533333333
236,2.360000715,0.8839627057142857,-0.1095142314285714,-1.0468424285714286,0.2933375771428571,-0.2897597642857143,0.3182950542857142
237,2.370000715,0.7446674400000001,-0.0697906593333333,-1.2117678333333333,0.09473223,-0.229780382,0.1424292213333333
238,2.380000715,0.42801278,0.0013850982857142,-1.293725257142857,-0.3899168885714286,-0.0286661891428571,0.0472533965714285
239,2.390000715,0.2508784466666666,0.049296574,-1.214415316666667,-0.7542436499999999,0.1122940883333333,0.0872493466666666
240,2.400000715,0.1590380185714285,0.0590975240285714,-0.9403379428571428,-1.1218864857142858,0.2285877657142857,0.2388849085714285
241,2.410000715,0.2521140071428571,-0.0266958078285714,-0.6240085114285714,-1.216480542857143,0.2947338071428572,0.4502380585714285
242,2.420000715,0.41373349,-0.1896045566666666,-0.28064647,-0.8163464433333334,0.41731048,0.7732308200000001
243,2.430000715,0.4769920828571428,-0.2161537285714286,-0.1734247528571428,-0.3407000545714286,0.4533795571428571,0.9888307714285716
244,2.440000715,0.6808527166666667,-0.2031978316666667,-0.3093523916666666,0.1368043283333333,0.37638372,1.1389246833333333
245,2.450000715,0.7692652714285714,-0.1037909028571428,-0.7171324585714285,0.5458792571428571,0.168201152,1.161438842857143
246,2.460000715,0.7741436,-0.0480733625714285,-1.0364193971428572,0.5638556499999999,0.0289279814285714,1.1335144142857143
247,2.470000715,0.7816004800000002,-0.0438745115,-1.22278475,0.286716435,0.113312162,1.13220545
248,2.480000715,0.8124907714285714,-0.0549465864285714,-1.2371366285714287,-0.1000262371428571,0.32824313,1.1441606
249,2.490000715,0.8765450666666667,-0.08907024,-1.1054405533333334,-0.2977371333333333,0.4507034666666666,1.14035005
250,2.500000715,0.9014246,-0.1074453,-0.97838026,-0.49829865,0.5891622,1.1108258
251,2.510000715,0.99954,-0.115006715,-0.80535185,-0.5703786,0.61603945,1.0631796
252,2.520000715,1.1675898999999998,-0.0873613664285714,-0.78097765,-0.4173177657142857,0.4390682885714286,0.7359400228571429
253,2.530000715,1.0909565285714284,-0.0377243255714285,-0.8196384428571429,-0.3419217628571429,0.3884552271428571,0.5626339657142857
254,2.540000715,0.9868868266666664,-0.0131003578333333,-0.8055907000000001,-0.28205873,0.33199549,0.4452058416666666
255,2.550000715,0.9113902657142856,-0.0173050165714285,-0.76409946,-0.1382478251428571,0.1392295397142857,0.3936910714285714
256,2.560000715,0.9383575933333334,-0.0274914423333333,-0.7741915266666667,-0.0051412979999999,0.0336984081666666,0.3802524333333333
257,2.570000715,1.0186832,-0.0574467331428571,-0.8625938742857143,0.1191806628571428,0.0472534,0.3359223585714285
258,2.580000715,1.03473015,-0.0567207901666666,-0.9666976166666666,0.1125486083333333,0.1660486466666666,0.2739649866666666
259,2.590000715,1.0408752142857145,-0.031905173,-1.0833863285714285,-0.0235830678571428,0.2908941885714285,0.1964746514285714
260,2.600000715,1.077136,-0.036435053,-1.0481709,-0.1317903,0.30572906,0.13102673
261,2.610000715,1.138960185714286,-0.0721035108571428,-0.9116124457142856,-0.1630307708571428,0.1736115214285714,-0.0820716935714285
262,2.620000715,1.1429369428571428,-0.1274943742857142,-0.8310807428571428,0.0132422959999999,-0.1258781642857142,-0.4855799371428571
263,2.630000715,1.0616168666666668,-0.1370252716666666,-0.8821398883333335,0.116620924,-0.2489202466666666,-0.6903591866666666
264,2.640000715,0.8394653985714287,-0.0990475899999999,-0.9923488314285714,0.1577513028571428,-0.2267552257142857,-0.7508621571428572
265,2.650000715,0.72498132,-0.0496268753333333,-1.0687514,0.1524572933333333,-0.1631980283333333,-0.699929125
266,2.660000715,0.7146061285714287,-0.0054140794285714,-1.144496257142857,0.0572233011428571,-0.1812034757142857,-0.5601033042857143
267,2.670000715,0.7854726283333333,0.0130292148333333,-1.1907453,-0.1055238616666666,-0.258693825,-0.4981459399999999
268,2.680000715,0.9407212357142856,-0.0010802025714285,-1.1806786428571427,-0.4140017285714285,-0.3246653285714286,-0.5190892714285714
269,2.690000715,1.0429571714285717,-0.0161551234285714,-1.1841631857142858,-0.5614777228571428,-0.2965663442857143,-0.5871551
270,2.700000715,1.0998508,-0.02911755,-1.1758003,-0.71331686,-0.23792501,-0.6814001
271,2.710000715,1.221207942857143,-0.0360517545714285,-0.8478020828571429,-0.99186325,-0.22448637,-0.95628136
272,2.720000715,1.177294216666667,-0.0219982331666666,-0.6777529666666666,-0.8955529950000001,-0.5775560816666666,-1.2596688333333337
273,2.730000715,0.9641459457142856,0.0329853735714285,-0.5969599214285715,-0.5808502942857142,-0.9266116228571428,-1.3919027714285714
274,2.740000715,0.8763011199999999,0.0423957645,-0.659398225,-0.332759045,-1.0411891,-1.36799245
275,2.750000715,0.8451364,0.0345054954285714,-0.7738996971428572,-0.2134693042857142,-1.0468612857142856,-1.3433840714285714
276,2.760000715,0.7921411714285714,0.0514881957142857,-0.9440707485714286,-0.1780401585714285,-0.9421445714285716,-1.3308180142857142
277,2.770000715,0.6945730666666666,0.0868140066666666,-1.075581,-0.36350502,-0.6891375066666666,-1.3321561
278,2.780000715,0.5300962571428571,0.1321679857142857,-1.0433187285714287,-0.66479816,-0.4630658542857143,-1.3086529857142857
279,2.790000715,0.4519673933333333,0.1547244766666666,-0.8631448883333334,-0.7255338400000001,-0.4407262999999999,-1.2946907
280,2.800000715,0.40724936,0.14415476,-0.54933083,-0.7145386,-0.5702259,-1.2372710999999998
281,2.810000715,0.4534410885714285,0.0641413764285714,-0.31190408,-0.3131246714285715,-0.8634326142857143,-1.0697244571428572
282,2.820000715,0.47191778,0.032136023,-0.21693338,-0.1525591,-0.9807153,-1.0027058
283,2.830000715,0.5476277685714285,0.0501423032857142,-0.5008001342857142,0.6947297,-1.0707716142857144,-0.7492914285714285
284,2.840000715,0.5602461,0.05314335,-0.54811126,0.8359445,-1.085781,-0.7070557000000001
285,2.850000715,0.5725595285714286,0.0822129828571428,-0.8261936457142857,0.8905716714285715,-0.9983426142857142,-0.6875085785714286
286,2.860000715,0.5590265,0.11317733,-1.033048,0.8787037999999999,-0.8878665,-0.69361705
287,2.870000715,0.5590265,0.11317733,-1.033048,0.8787038,-0.8878665,-0.69361705
288,2.880000715,0.5590265,0.11317733,-1.033048,0.8787038,-0.8878665,-0.69361705
289,2.890000715,0.5590265,0.11317733,-1.033048,0.8787037999999999,-0.8878665,-0.69361705
290,2.900000715,0.4718001657142857,0.0666240944285714,-0.8437033742857143,0.3145645342857143,-0.4897686129999999,-0.7363763499999999
291,2.910000715,0.1446070083333333,0.1039237443333333,-1.15543841,-0.3009949833333333,-0.37414395,-0.8172118116666667
292,2.920000715,-0.12823483,0.2571186671428571,-1.4610216428571428,-0.7091282142857143,-0.9072390714285714,-0.6124616585714285
293,2.930000715,-0.16834824,0.32707702,-1.3008838,-1.042359933333333,-0.7742488666666666,-0.4541649566666666
294,2.940000715,-0.0723169471428571,0.3478077571428571,-0.9926449942857144,-1.331319742857143,-0.6161267114285714,-0.2454297
295,2.950000715,0.1621392428571428,0.3067078028571428,-0.52135011,-1.2110700714285714,-0.5538202914285714,-0.2293731385714285
296,2.960000715,0.2944074066666666,0.2014345133333333,-0.182693596,-0.8228621466666667,-0.49855315,-0.3315882466666667
297,2.970000715,0.2482200571428571,0.1307741857142857,-0.0290609295428571,-0.1759021999999999,-0.3475284642857143,-0.4058207428571428
298,2.980000715,0.1764940308333333,0.1508269016666666,-0.0291226361666666,0.4743229,-0.193944,-0.3735331
299,2.990000715,0.1051672921428571,0.2182008857142857,-0.2901955142857143,1.091976657142857,-0.1234347737142857,-0.1916751414285714
300,3.000000715,0.1234828166666666,0.2587752666666666,-0.9974057666666668,1.5498212166666667,0.1051675366666666,0.1088326233333333
301,3.010000715,0.17391258,0.25373432,-1.2165649,1.4724473,0.3423799,0.18722469
302,3.020000715,0.17391258,0.25373432,-1.2165649,1.4724473,0.3423799,0.18722469
303,3.030000715,0.17391258,0.25373432,-1.2165649,1.4724473,0.3423799,0.18722469
304,3.040000715,0.0009538851428571,0.1945714578571428,-1.1057265571428572,1.1445096,0.4088749814285714,0.1510974373714285
305,3.050000715,-0.2849759733333333,0.1213891933333333,-0.92858062,0.80132981,0.30898691,0.23202016
306,3.060000715,-0.27084332,0.1029589714285714,-1.0681851285714286,0.9212885785714284,-0.0454208557142857,0.4532050428571428
307,3.070000715,-0.23217817,0.07876331,-1.3288493285714285,0.8174445342857143,-0.4103584657142857,0.6259875314285714
308,3.080000715,-0.243032465,0.1204999158333333,-1.4021956666666666,0.5806103133333332,-0.4509070916666666,0.6775314
309,3.090000715,-0.25065052,0.1924154028571428,-1.3417942857142855,0.3575419882857143,-0.41053301,0.6532138714285713
310,3.100000715,-0.3000175,0.2505634,-1.033048,-0.027946262,-0.33932567,0.5317425
311,3.110000715,-0.3639280257142857,0.2549843757142857,-0.7535239471428571,-0.0834460991428571,-0.2948210614285714,0.4179504285714285
312,3.120000715,-0.4520487099999999,0.1663613333333333,-0.4616428033333333,0.095088562,-0.2077898799999999,0.4918338666666666
313,3.130000715,-0.2966636414285714,0.0787545915714285,-0.2282450257142857,0.600681017142857,-0.0419303042857142,0.7207561571428572
314,3.140000715,-0.1546431713333333,0.0397177639999999,-0.2513459666666666,1.101052183333333,0.0434719621666666,0.8420529666666666
315,3.150000715,-0.1135170814285714,0.0042859645714285,-0.5961541200000001,1.7550078714285713,-0.0588594945714285,0.8778311357142857
316,3.160000715,-0.1433750899999999,-0.0049959361428571,-1.1875998071428573,2.0513559857142853,-0.3691698857142857,0.8907461928571428
317,3.170000715,-0.1855596066666666,0.0122974654999999,-1.7378555333333334,1.781536,-0.6300889333333334,0.8257636566666666
318,3.180000715,-0.1905032742857142,0.0260381045714285,-1.899252714285714,1.4406832357142858,-0.7389943142857144,0.7570578985714286
319,3.190000715,-0.14272174,0.0485241716666666,-2.00120915,0.3356351316666666,-0.8670976499999999,0.526652145
320,3.200000715,-0.12137904,0.06582701,-1.8415709,-0.31504446,-0.8060129,0.31183752
321,3.210000715,-0.2808308542857143,0.09796739,-1.3336362285714285,-1.0487593,-0.6543482857142857,0.0947249557142857
322,3.220000715,-0.4084435666666667,0.1344031683333333,-1.0344659,-1.3522631333333333,-0.5999538,0.0748287899999999
323,3.230000715,-0.5714532142857143,0.1876372571428571,-0.5924039085714287,-1.3234660142857142,-0.6203154,0.2711725542857143
324,3.240000715,-0.5941708,0.18435019,-0.247382312,-1.0248489666666667,-0.6215370866666666,0.5288919133333333
325,3.250000715,-0.5355277142857143,0.17620801,-0.0606960517142857,-0.3654393485714285,-0.6927444142857143,0.7954540057142856
326,3.260000715,-0.3231896,0.18979765,-0.074912906,0.42179003,-0.8646543000000001,0.94467527
327,3.270000715,-0.26925352,0.197603,-0.30334088,0.7162184,-0.997819,0.8848122399999999
328,3.280000715,-0.3488487542857142,0.2634953371428571,-1.2082324714285717,0.7748597214285714,-1.04511598,0.4493654257142857
329,3.290000715,-0.535762995,0.262042725,-1.5195399,0.1346409133333333,-0.7872803233333333,0.1293978056666666
330,3.300000715,-0.669599212857143,0.2059092328571428,-1.4463039571428573,-0.4236007514285714,-0.5361930185714286,-0.0085954935714285
331,3.310000715,-0.8096712466666668,0.0594038756666666,-1.1135710333333335,-0.7206470366666666,-0.2407756343333333,0.1285833466666666
332,3.320000715,-0.8210496428571429,-0.0485307068571428,-0.8779257485714286,-0.6105200085714285,-0.0171473548571428,0.4057334685714285
333,3.330000715,-0.6885244885714286,-0.1046925192857142,-0.9477948657142856,-0.0959684628571428,0.0495222622857142,0.8602038285714286
334,3.340000715,-0.47043396,-0.1096405383333333,-1.2625229333333332,0.2841457866666666,-0.1353026713333333,1.0151263666666666
335,3.350000715,-0.2674197914285714,-0.0674603786285714,-1.734321628571429,0.1910206571428571,-0.5042544285714285,0.6739826782857143
336,3.360000715,-0.1997880766666666,-0.0003048958999999,-2.110671866666667,-0.3804051333333333,-0.9611681916666668,-0.02107423
337,3.370000715,-0.2513082199999999,0.0102183663142857,-2.0363382142857143,-0.9538161571428572,-1.1726958714285711,-0.5740655428571427
338,3.380000715,-0.6383038142857143,0.0467797325714285,-1.5525383,-1.6271443,-1.3789877,-1.2348278
339,3.390000715,-1.1163456,0.1492871633333333,-0.90856925,-1.8985642,-1.5819925333333331,-1.4559543999999998
340,3.400000715,-1.3767092,0.2320387957142857,-0.4853331928571429,-1.7592619571428572,-1.6776047285714288,-1.2960869785714286
341,3.410000715,-1.4760617,0.27056456,-0.2508683,-1.4304515,-1.6221049,-0.95994645
342,3.420000715,-1.4986197285714289,0.3401069657142857,-0.0730922454285714,-0.8435145914285714,-1.1198139,-0.3649812442857142
343,3.430000715,-1.325250066666667,0.3371233333333334,-0.0056913893333333,-0.2038702733333333,-0.32751595,0.2356852266666666
344,3.440000715,-1.0609895857142857,0.29686838,-0.0583570628571428,0.2596973571428571,0.1879227857142857,0.5474500185714285
345,3.450000715,-0.7964706642857143,0.28693748,-0.2717449485714285,0.9212885571428572,0.5394217485714285,0.7327985328571429
346,3.460000715,-0.6463995133333333,0.2862057333333334,-0.5002019466666666,1.0863918,0.444595,0.63680826
347,3.470000715,-0.5599499271428571,0.2931791399999999,-0.7051413142857142,1.0551513642857144,0.3195167557142856,0.4989313085714285
348,3.480000715,-0.5878290333333333,0.3468495,-1.0032242333333334,0.763457285,0.1403930566666666,0.2375177699999999
349,3.490000715,-0.60165095,0.3620943,-1.0262184,0.46210596,0.18722469,0.13469182
350,3.500000715,-0.5939675883333333,0.36428956,-0.8475189666666667,0.127819791,0.513620725,0.0734034803333333
351,3.510000715,-0.5818849814285715,0.3678089142857143,-0.6141778114285714,0.026506408,0.7872512071428571,0.0519656488571428
352,3.520000715,-0.5526628714285714,0.36212915,-0.5051949828571428,0.1668703857142857,0.9938921214285716,0.0198525371428571
353,3.530000715,-0.5283641,0.36746048,-0.5931850266666666,0.3676282466666666,1.0908713666666665,-0.06037207
354,3.540000715,-0.5457025285714285,0.3783321857142857,-0.8081220857142857,0.3710024371428571,1.1110002714285714,-0.1852176142857143
355,3.550000715,-0.6063361733333333,0.3843313699999999,-1.0273465666666668,0.17498228,1.15501035,-0.375772875
356,3.560000715,-0.69481843,0.3555738885714286,-1.178574871428571,-0.2738559171428571,1.2481791285714283,-0.5726693057142856
357,3.570000715,-0.7151331833333333,0.2972175533333333,-1.0578106833333334,-0.6204681,1.3246223,-0.69728214
358,3.580000715,-0.69440025,0.25227082,-0.8473056,-0.8510193057142857,1.3439947857142855,-0.8082818285714286
359,3.590000715,-0.6731969571428571,0.1588768628571428,-0.6001482771428571,-0.7319913714285714,1.3502778428571427,-0.8616873314285715
360,3.600000715,-0.7627172999999999,0.1364307233333333,-0.5987239766666667,-0.40341371,1.4374253999999995,-0.7803573733333334
361,3.610000715,-0.8320999742857144,0.1704716128571428,-0.7170671042857143,0.0136567971428571,1.6028195428571428,-0.5239760428571428
362,3.620000715,-0.80596165,0.2154546383333333,-0.90984475,0.2776300766666666,1.6591629166666666,-0.3279231616666667
363,3.630000715,-0.6251105285714286,0.2919377628571428,-1.251906642857143,0.5181293428571428,1.4225323571428572,-0.10580747
364,3.640000715,-0.46310632,0.32849478,-1.3883635666666667,0.4910193533333333,1.1566393333333334,-0.109036235
365,3.650000715,-0.3490317,0.3513968228571428,-1.4513390142857143,0.3622542457142857,0.8846377214285714,-0.2555523085714286
366,3.660000715,-0.23461734,0.3530694,-1.4835621,0.114992,0.55373305,-0.5665608
367,3.670000715,-0.16577187,0.2769369,-1.4718237,-0.0504603442857142,0.48776155,-0.7707583714285714
368,3.680000715,-0.1733245757142857,0.1834296942857143,-1.4348180142857143,-0.2832804221428571,0.5877659571428572,-1.028884957142857
369,3.690000715,-0.42504512,0.0727379806666666,-1.2434059,-0.4868961866666667,1.0986088,-1.1603044
370,3.700000715,-0.5735177857142857,0.0826659699999999,-1.1556858714285716,-0.3883461471428572,1.2230471142857142,-0.9618663285714286
371,3.710000715,-0.6358196,0.1117138366666666,-1.1169858666666668,-0.24540788,1.1690599,-0.6932098566666666
372,3.720000715,-0.6063507142857143,0.1241884314285714,-1.118449342857143,-0.1171299621999999,1.04188732,-0.4250188
373,3.730000715,-0.48036338,0.1464313066666666,-1.0886814,0.0142021988333333,0.8530481883333333,-0.1161627866666666
374,3.740000715,-0.2713268028571428,0.1558714628571428,-1.0155383314285715,0.1808326042857143,0.6156904157142857,0.0863476257142857
375,3.750000715,-0.0343922505714285,0.1679148457142857,-0.9715636428571428,0.3940401142857143,0.3132337385714286,0.052489236
376,3.760000715,0.044575773,0.17662616,-1.0198461,0.55373305,0.04795151,-0.088878274
377,3.770000715,0.010427438,0.21589674,-1.2553781,0.6087093,-0.16706672,-0.2990097400000001
378,3.780000715,-0.0376546363333333,0.2356794033333333,-1.4078616000000002,0.291628658,0.0304405633333333,-0.4285093483333333
379,3.790000715,-0.0949358514285714,0.2389163828571428,-1.3635594714285717,-0.1466251599999999,0.3668137857142857,-0.48854691
380,3.800000715,-0.09354204,0.20979884,-1.2063204,-0.33947837,0.5317425,-0.46760356
381,3.810000715,-0.113621612,0.1709071885714286,-0.9553911228571428,-0.3665301771428571,0.6155158571428572,-0.4361885742857143
382,3.820000715,-0.1872060428571428,0.1133080028571428,-0.625929377142857,-0.0750687699999999,0.6008555557142857,-0.2803352457142857
383,3.830000715,-0.2213188099999999,0.06289492845,-0.5266821416666666,0.3013258666666666,0.5062905483333333,-0.128583345
384,3.840000715,-0.15938212,-0.0008362857857142,-0.5097248571428572,0.9115150142857144,0.3134082728571429,0.0830315928571428
385,3.850000715,-0.1130771438571428,-0.0117254225457142,-0.5749246642857143,1.2113537,0.1280597642857142,0.1298050442857143
386,3.860000715,-0.041313387,0.0004268541799999,-0.78410065,1.4687822,-0.0839915,0.14202198
387,3.870000715,-0.04643564,0.04899676,-1.1801908,1.5096218,-0.2787645028571428,0.1252673228571428
388,3.880000715,0.0235125516666666,0.0321004516666666,-1.4580017166666668,1.0389494,-0.2114549616666666,0.1611618716666666
389,3.890000715,0.0780184835714285,0.0183721515285714,-1.399589542857143,0.3964616822857142,0.1521446057142857,0.1430691485714285
390,3.900000715,0.0858281791666666,-0.0072209497499999,-1.156373441666667,0.0480024166666666,0.4433733166666667,0.1147374716666666
391,3.910000715,0.0368531988571428,-0.0440400257142857,-0.9011414071428572,-0.0862385457142857,0.6279073428571429,0.0900127071428571
392,3.920000715,-0.0592412614285714,-0.0789070431428571,-0.7576095428571429,-0.0410358471428571,0.6795675642857143,0.1198569571428571
393,3.930000715,-0.13820928,-0.091102876,-0.6999189,0.039246935,0.6734591,0.1835596
394,3.940000715,-0.24148622,-0.0263255785714285,-0.7557801485714286,0.1663249757142857,0.5554783357142857,0.4018938514285715
395,3.950000715,-0.30026144,0.04018527,-0.8683128400000001,0.19577655,0.48531815,0.66368556
396,3.960000715,-0.18360828,0.06143651,-0.9183462,0.112548605,0.5244124,1.0631796
397,3.970000715,0.1160085071428571,0.042088692,-0.756259242857143,0.0664732704285714,0.6615912571428572,1.4056031999999998
398,3.980000715,0.5486295866666667,-0.0269223039999999,-0.5734989333333333,0.2172580066666666,0.7622355733333332,1.4867004333333331
399,3.990000715,0.8416867571428571,-0.0624688048571428,-0.5014840042857143,0.4486672971428571,0.7282608,1.276452597142857
400,4.000000715,1.009753991666667,-0.0777281125,-0.526478875,0.7591813,0.55719449,0.8699483266666667
401,4.010000715,0.7260266728571428,-0.073819635,-0.8858052142857142,1.0352551285714289,0.27815366,0.3324318085714285
402,4.020000715,0.3669624883333333,-0.0831298511666666,-1.2080634,0.9670730166666668,0.1462979183333333,0.1300086566666666
403,4.030000715,-0.0404161214285714,-0.0586314731428571,-1.4631167571428574,0.5121954528571429,0.1409748214285714,0.1919369342857143
404,4.040000715,-0.1701710728571428,-0.0523593277142857,-1.458037957142857,0.1585584899999999,0.1971727671428571,0.3996250142857143
405,4.050000715,-0.18604743,-0.043996472,-1.3930081,-0.19409671,0.28007346,0.6465818
406,4.060000715,-0.025214886,-0.04643564,-1.2202237,-0.6265766,0.48409647,1.0375241
407,4.070000715,0.4001453,-0.13284312,-0.86880064,-1.0382876,0.8359445,1.4199145
408,4.080000715,0.5459639142857143,-0.1838086357142857,-0.5941461328571428,-0.9916886571428573,0.9434535857142856,1.4659897999999998
409,4.090000715,0.6432388,-0.1911697,-0.35191077,-0.6725937233333333,0.9363270166666666,1.4964739
410,4.100000715,0.9413789714285716,-0.1200157135714285,-0.2303096071428571,-0.27961534,0.7785248000000001,1.4638954
411,4.110000715,1.1726990857142856,-0.0802964982857142,-0.2810007228571428,0.4100966757142857,0.1566823171428571,1.0094251714285716
412,4.120000715,1.046189095,-0.0283858015,-0.6202394433333334,0.7223269,-0.20310671,0.6549300833333334
413,4.130000715,0.80632755,-0.0273056021428571,-0.9060633285714286,0.5873732742857144,-0.2120948902857143,0.5121954000000001
414,4.140000715,0.4788185666666666,-0.0727888066666666,-1.0504474666666666,0.0384324666666666,0.032883946,0.5174894333333333
415,4.150000715,0.4481968785714286,-0.1073146285714285,-0.8969948142857144,-0.1836250457142857,0.1355644642857142,0.6511195285714285
416,4.160000715,0.50655395,-0.2119026,-0.6137553,-0.2600682,0.19944163,0.8029587000000001
417,4.170000715,0.5969555533333333,-0.2678713199999999,-0.3635476333333333,-0.0576487116666666,0.226522525,0.9884526833333332
418,4.180000715,0.6600079857142856,-0.27235474,-0.3243961214285714,0.3072997942857142,0.2516254357142857,1.1694670285714286
419,4.190000715,0.83707625,-0.2897476133333334,-0.468111675,0.5895693916666667,0.2859783166666667,1.2722930166666666
420,4.200000715,1.0418378285714287,-0.2858877571428571,-0.7941926857142858,0.7643880428571429,0.2867055357142857,1.220080085714286
421,4.210000715,1.0554274,-0.2365382,-1.0262184,0.7382089,0.229984,1.1022738
422,4.220000715,0.90118057,-0.17016236,-1.2778184,0.3149571971428572,0.1556351585714285,0.9958119428571428
423,4.230000715,0.8989897285714286,-0.1865439842857142,-1.233342857142857,-0.3487283471428571,0.1634889114285714,1.0071561571428571
424,4.240000715,0.9590193,-0.22043969,-1.1289378,-0.57282203,0.2043284,0.9935431
425,4.250000715,1.0715259,-0.27779058,-0.87977695,-0.6815527999999998,0.2947338,0.93368006
426,4.260000715,1.0023908166666666,-0.3013946133333333,-0.7288789083333334,-0.5935908266666666,0.4788024666666666,0.8204696866666666
427,4.270000715,0.8630033242857144,-0.2916633585714286,-0.6843212799999999,-0.3429689257142857,0.6729355271428571,0.7361145914285715
428,4.280000715,0.8120291133333333,-0.26909091,-0.7300934400000001,-0.0894382233333333,0.6921917333333333,0.779746505
429,4.290000715,0.8948474857142857,-0.2413686157142857,-0.7886479428571428,0.1012261214285714,0.6041715628571429,0.8183171685714286
430,4.300000715,0.9709843285714284,-0.2199867057142857,-0.9002092685714286,0.2413282985714285,0.4139362857142857,0.7670060142857144
431,4.310000715,1.0160908333333334,-0.2304453533333333,-0.9558331666666668,0.2625625066666666,0.2584901866666667,0.6793639333333333
432,4.320000715,1.0847714571428573,-0.2761572171428571,-0.9717247628571428,0.2352198285714286,0.1308522037142857,0.5368038242857143
433,4.330000715,1.1884229666666668,-0.31595339,-0.9746401933333332,0.1676266713333333,-0.021277846,0.23935032
434,4.340000715,1.289151885714286,-0.3125574371428571,-0.9970965571428572,0.1095816377142857,-0.1724770885714285,0.0030978685714285
435,4.350000715,1.293189542857143,-0.2797027514285714,-1.069931857142857,0.0128932428571428,-0.25258534,-0.1817270628571428
436,4.360000715,1.2233336,-0.19312102,-1.2546464,-0.3284831,-0.36253786,-0.5555656
437,4.370000715,1.1084140571428571,-0.1894971228571428,-1.194817142857143,-0.7550290357142858,-0.31471724,-0.7814045642857143
438,4.380000715,0.9883373285714286,-0.2067803628571428,-0.9232942857142856,-1.1562684714285714,-0.2054628342857143,-0.9817624285714286
439,4.390000715,0.91581565,-0.22141537,-0.6586665,-1.2129899,-0.19150062,-1.057682
440,4.400000715,0.7711033828571429,-0.2340772442857142,-0.4436016771428571,-0.9114059114285714,-0.2679437785714286,-1.0030548571428572
441,4.410000715,0.6310531,-0.2142553966666666,-0.3032189066666667,-0.442304289,-0.3452305,-0.8233203250000001
442,4.420000715,0.7575006142857142,-0.1423819971428571,-0.4213442571428571,0.0354291422857142,-0.4215282571428571,-0.5346222285714285
443,4.430000715,1.1358153714285717,-0.1147627928571428,-0.6861070928571429,0.4577427614285714,-0.5710985714285715,-0.2651513428571428
444,4.440000715,1.3001978,-0.11110405,-0.7736122,0.49020493,-0.6642964,-0.281906
445,4.450000715,1.6706767,-0.036435053,-1.1399446,0.23120569,-1.0760075,-0.89641833
446,4.460000715,1.4824746833333335,-0.0812191705,-1.2518769666666667,-0.458771755,-0.94060295,-1.5420839383333331
447,4.470000715,1.1781872285714283,-0.1265491928571428,-1.091897422857143,-0.8630617485714287,-0.7438810285714286,-1.8474202714285717
448,4.480000715,0.8722257,-0.1707416666666666,-0.6641343000000001,-1.1038518666666668,-0.4712686766666666,-1.97741435
449,4.490000715,0.6605002142857143,-0.1928771,-0.3238124514285714,-0.9344436142857144,-0.3963962514285714,-1.8699343714285712
450,4.500000715,0.6069430714285714,-0.2221906557142857,-0.1482926257142857,-0.3326718,-0.5265939714285715,-1.4877184857142858
451,4.510000715,0.7167643716666666,-0.249496255,-0.2359334816666666,0.2377977583333333,-0.7487969666666666,-1.1472729333333334
452,4.520000715,0.9624777357142856,-0.2208709,-0.7457011428571428,0.7865531257142857,-1.0266161142857144,-0.8334138285714285
453,4.530000715,1.014419,-0.15235645,-1.0291454,0.77608144,-1.0161444,-0.8683194
454,4.540000715,0.9621903000000002,-0.10427438,-1.1870205000000005,0.6221479,-0.9587248,-0.94895124
455,4.550000715,0.8240725000000001,0.0075004376,-1.2775745,-0.21120045,-0.7986828,-1.1664128
456,4.560000715,0.76104181,0.0620898607428571,-1.0033642857142857,-0.5745672985714286,-0.8007771428571429,-1.3255821714285714
457,4.570000715,0.5857528128571429,0.0463006118571428,-0.5626634728571428,-0.6798075599999999,-1.03761135,-1.532921171428571
458,4.580000715,0.5097451749999999,0.0034707306666666,-0.4599811016666666,-0.5200855466666666,-1.1706888,-1.5378079666666666
459,4.590000715,0.4510498314285714,-0.0395406365714285,-0.4437976657142857,-0.2197523062857143,-1.219294757142857,-1.4391997714285714
460,4.600000715,0.3910949733333333,-0.0917939775,-0.531474105,-0.010435305,-1.2189457166666668,-1.3331740833333334
461,4.610000715,0.2135054942857142,-0.0542627525714285,-0.7333790114285714,0.1160391671428571,-1.1681580714285715,-1.1857854285714284
462,4.620000715,0.04969802,0.037990022,-0.8331583,0.0504458,-1.01777341,-1.0753966666666666
463,4.630000715,-0.0344488742857142,0.1856162414285714,-0.8071899428571429,-0.17838921,-0.6553954685714286,-0.7999044971428572
464,4.640000715,0.0276671197142857,0.1975638,-0.6706880285714286,-0.1831014684285714,-0.5398580957142858,-0.7327112971428572
465,4.650000715,0.24983165,0.15635058,-0.3299278,0.029473381,-0.36498123,-0.65940964
466,4.660000715,0.5016494642857143,0.0179191621428571,-0.2148601042857142,0.5449848258571428,-0.5232779185714286,-0.8377770271428572
467,4.670000715,0.4131033733333333,-0.13071901,-0.4303299866666667,1.2651664666666669,-0.8561024333333332,-1.2042853333333332
468,4.680000715,0.1455180814285714,-0.1849977257142857,-0.7458013571428571,1.5241075285714285,-0.95436159,-1.3119689857142858
469,4.690000715,-0.1647403033333333,-0.1445866966666666,-1.1127122333333332,1.5147993833333333,-0.7467607666666667,-1.2034709
470,4.700000715,-0.4948023928571428,-0.0596637625714285,-1.380485642857143,1.1178068457142858,-0.3628868957142857,-0.8840268885714285
471,4.710000715,-0.694426402857143,-0.0077487098571428,-1.368464057142857,0.6376809028571427,-0.20005248,-0.40896224
472,4.720000715,-0.6399661666666667,0.019777577,-1.1158984916666663,0.4109984,-0.196794625,-0.0510057449999999
473,4.730000715,-0.5350312,0.033599522,-0.91639495,0.3814741,-0.2415901,0.12003148
474,4.740000715,-0.18043736,-0.006890646,-0.72016394,0.5989357,-0.4395046,0.49142662
475,4.750000715,0.0754138034285714,-0.0464312802857142,-0.6287474771428572,0.8958075,-0.6691832,0.4107948
476,4.760000715,0.23373315,-0.06570505,-0.7111391,1.2281084,-0.9965973,0.11270132
477,4.770000715,0.035063022,-0.03427465,-1.1113715,1.2898912714285713,-1.225752257142857,-0.2267552271428571
478,4.780000715,-0.1205601685714285,-0.0168476737,-1.4300965,1.0188495857142856,-1.06850278,-0.34438695
479,4.790000715,-0.2609654216666666,-0.00844053325,-1.5395664333333334,0.6274164916666667,-0.760810275,-0.3484883566666667
480,4.800000715,-0.3019949785714285,-0.0550511228571428,-1.4440127857142857,0.0671713842857143,-0.2717833871428571,-0.2031939714285714
481,4.810000715,-0.3038287066666666,-0.1254239866666666,-1.2507234,-0.23278372,0.0035632766666666,-0.12919419
482,4.820000715,-0.4080595314285714,-0.1658415571428571,-1.1109271714285711,-0.3115539285714286,0.0484750942857142,-0.0695056905714285
483,4.830000715,-0.51649356,-0.1721137,-1.0139921,-0.308936,0.01007898,0.036956258
484,4.840000715,-0.5274698,-0.11232363,-0.85782444,-0.17454961,-0.24647687,0.25686127
485,4.850000715,-0.5130177714285714,-0.0378680639999999,-0.7998594,0.0296479099999999,-0.6517304385714285,0.3699552957142857
486,4.860000715,-0.5106091,-0.025458803,-0.79019856,0.06368083,-0.7192727,0.3888043
487,4.870000715,-0.3701217702857143,0.0609312535714285,-0.9352418685714284,0.3441251671428572,-1.1095167714285714,0.6144687257142857
488,4.880000715,-0.0956915606666666,0.0200621454333333,-0.9772420166666668,0.4075369266666666,-0.7506294666666667,0.6665361666666666
489,4.890000715,-0.0725869842857142,-0.0172135488571428,-1.0878030571428572,0.4076532885714285,-0.4342687885714286,0.5015492285714286
490,4.900000715,-0.1726625116666666,-0.0756700691666666,-1.2886473333333333,0.30997954,-0.1967946273333333,0.3238508499999999
491,4.910000715,-0.4324947571428571,-0.1287792978571428,-1.4444353285714284,0.0085300457142857,0.05737601,0.1917624071428571
492,4.920000715,-0.6160855785714286,-0.1428437114285714,-1.466980242857143,-0.3068416714285714,0.1811162114285714,0.2053755771428571
493,4.930000715,-0.74129327,-0.1362528691666666,-1.4018755166666663,-0.4909685,0.18722469,0.25686127
494,4.940000715,-0.96356237,-0.110616215,-1.1631166,-0.7792883999999999,-0.086434886,0.4963134
495,4.950000715,-0.98960039,-0.0826470983333333,-0.9273712,-0.7629991500000001,-0.419346631,0.7650861833333332
496,4.960000715,-0.9421411857142856,-0.0384996328571428,-0.6292397142857142,-0.538091,-0.7372489942857143,1.0631797114285717
497,4.970000715,-0.7578490683333333,0.0295342453333333,-0.6022861833333333,0.107381855,-0.8886809333333333,1.4708184
498,4.980000715,-0.5825818928571429,0.0706051635714285,-0.8768151285714286,0.3043328357142857,-0.7243339514285714,1.5581404142857145
499,4.990000715,-0.4646002714285714,0.1135954785714285,-1.3034384,0.0969283735714285,-0.3883679714285714,1.4829189857142857
500,5.000000715,-0.42537034,0.1190313353333333,-1.3703137,-0.26536223,-0.2933084933333333,1.3584224666666664
501,5.010000715,-0.4018614085714286,0.10696617,-1.2839119857142856,-0.7021471,-0.3346134,1.181684057142857
502,5.020000715,-0.3920299683333333,0.0659794604999999,-1.0594724166666667,-1.0519298666666668,-0.4682144333333333,1.01268299
503,5.030000715,-0.36029541,-0.036922887,-0.7609285,-1.2300937,-0.5995466,0.8701519400000001
504,5.040000715,-0.3978890799999999,-0.14040454,-0.5022244,-1.1152544,-0.61176354,0.72599196
505,5.050000715,-0.5259366257142857,-0.1455572707142857,-0.4408793642857143,-0.8377552057142857,-0.5374146771428572,0.6788694857142856
506,5.060000715,-0.6268048,-0.117933705,-0.5376228,-0.43354884,-0.4407263,0.66612893
507,5.070000715,-0.70117405,-0.04012429,-0.8328738083333334,-0.1747532249999999,-0.341769045,0.6337540333333332
508,5.080000715,-0.8270561,0.1055897785714285,-1.1441085285714288,-0.2052664957142857,-0.32745776,0.5183038942857142
509,5.090000715,-0.9353137583333332,0.1663562433333333,-1.2682193,-0.4272367533333333,-0.3552076833333333,0.3721077916666666
510,5.100000715,-0.98920405,0.19199291,-1.2214433,-0.6522321700000001,-0.3735331,0.26419145
511,5.110000715,-0.9568952533333334,0.144154762,-0.98072795,-0.821844095,-0.4065188416666667,0.0915252791666666
512,5.120000715,-1.0222068285714283,0.1295894471428571,-0.8623151214285715,-0.7332130585714286,-0.2667220977142857,-0.0433265228571428
513,5.130000715,-1.195649,0.1419595,-0.7338233,-0.54472303,-0.024128467,-0.05467083
514,5.140000715,-1.4184669,0.19174899,-0.74629354,-0.20997874,0.30695075,0.13835691
515,5.150000715,-1.4842982857142857,0.2163889314285714,-0.8047943414285715,0.1445090014285714,0.4088749814285714,0.5151623799999999
516,5.160000715,-1.3411606,0.2469453,-0.90015415,0.596695945,0.2462732549999999,1.0454649833333334
517,5.170000715,-0.9637496571428572,0.2814798414285714,-1.0852245142857144,0.6860251128571428,0.07064012,1.1340378714285717
518,5.180000715,-0.49182748,0.3154757333333333,-1.2900346333333337,0.6359938,-0.33036656,1.100237666666667
519,5.190000715,-0.1989793728571428,0.3343008742857142,-1.3832514714285715,0.3973125028571428,-0.3808632571428571,0.8570623314285715
520,5.200000715,-0.0754922057142857,0.3651955342857143,-1.3715652142857144,0.0057375985714285,-0.3101795114285714,0.4903794771428572
521,5.210000715,-0.06866254,0.3842907,-1.3088263,-0.3826449166666667,-0.1813198333333333,0.1568859383333333
522,5.220000715,-0.1722008142857143,0.3560922057142857,-1.0098977857142857,-0.7829534857142857,0.0086827599999999,-0.1984817257142857
523,5.230000715,-0.24925235,0.31913447,-0.8153525,-0.9539907,0.12736166,-0.38697174
524,5.240000715,-0.3904539757142857,0.2902826128571428,-0.5986499342857143,-0.9969245571428572,0.2331254942857143,-0.5450939057142857
525,5.250000715,-0.5599310599999999,0.3175286766666667,-0.4640921333333334,-0.9462533066666668,0.2947338,-0.6341612666666667
526,5.260000715,-0.7912395142857144,0.3849222714285714,-0.3920916971428571,-0.7518875285714286,0.5102756214285714,-0.600768267142857
527,5.270000715,-0.8577532666666667,0.4171686466666666,-0.4043833666666667,-0.6758516,0.7830043999999999,-0.5176930333333333
528,5.280000715,-0.85163504,0.4203511857142857,-0.3932241771428571,-0.6243077142857143,0.9888308,-0.4852308714285714
529,5.290000715,-0.8260717,0.38351106,-0.3658837271428571,-0.5433268314285714,1.1373539285714285,-0.4922119857142857
530,5.300000715,-0.8163382866666667,0.3428960233333333,-0.3920960533333333,-0.4046354066666667,1.2350313666666668,-0.52828105
531,5.310000715,-0.82788366,0.3230371499999999,-0.45392892,-0.2935775414285714,1.2923346714285715,-0.5635938371428572
532,5.320000715,-0.7695571,0.28937665,-0.59155893,-0.2234173899999999,1.3331741,-0.60443336
533,5.330000715,-0.6816861,0.27275982,-0.7013824,-0.17821468,1.3820418999999995,-0.71316415
534,5.340000715,-0.7190308,0.28225222,-0.8268978266666668,-0.1507265633333333,1.4217469833333334,-0.7823935250000001
535,5.350000715,-0.7233871528571428,0.2628985857142857,-0.9376549085714286,-0.1211441022857142,1.5309141000000002,-0.7588904285714285
536,5.360000715,-0.6638453642857142,0.2512603028571428,-0.9943481428571428,0.0132422959999999,1.624111957142857,-0.7051359142857143
537,5.370000715,-0.6518012333333333,0.2342972033333333,-1.09400185,0.1023678216666666,1.5964492833333337,-0.6809929
538,5.380000715,-0.5555594285714286,0.1848844814285714,-1.2283773857142857,0.1080108842857142,1.5455744571428571,-0.6117634857142856
539,5.390000715,-0.414638,0.17386176,-1.250886,0.08078455,1.4687822666666666,-0.6170575
540,5.400000715,-0.2853389342857143,0.1763473914285714,-1.282461657142857,0.0594921571428571,1.2897168,-0.7218905428571428
541,5.410000715,-0.2382761033333333,0.1683329866666666,-1.3461100666666663,0.030695075,1.1108258,-0.83533365
542,5.420000715,-0.2305056128571428,0.1826195357142857,-1.412660857142857,-0.0982809571428571,0.960731842857143,-0.97251246
543,5.430000715,-0.25705767,0.19516383,-1.4032526,-0.22708246,0.9471187,-1.0405782
544,5.440000715,-0.30270058,0.19028549,-1.2975757,-0.3907895399999999,0.97521764,-1.101663
545,5.450000715,-0.3696339385714285,0.1557451442857143,-1.0866879857142857,-0.3712424214285714,0.9630006714285716,-1.0304556571428571
546,5.460000715,-0.4049423299999999,0.1228526953333333,-0.9798335333333332,-0.2507018916666667,0.947118625,-0.937141455
547,5.470000715,-0.4402260457142857,0.1073930322857143,-0.9406863628571428,-0.0480169585714285,0.9244300571428572,-0.7814045342857143
548,5.480000715,-0.3680295866666667,0.1392001966666667,-0.9828978,0.1423019616666666,0.8772784749999999,-0.57429823
549,5.490000715,-0.0847697528571428,0.2147250657142857,-1.108026328571429,0.2826913742857143,0.7162183928571428,-0.4134999657142857
550,5.500000715,0.067112655,0.2352372866666666,-1.2018689166666667,0.3120411266666666,0.5470136866666667,-0.401021225
551,5.510000715,0.20174958,0.24641682,-1.288307,0.2409574214285714,0.3842665628571428,-0.4829620285714285
552,5.520000715,0.2720281,0.24007498,-1.2912339,0.13820419,0.26907822,-0.589773
553,5.530000715,0.2242508983333333,0.1965815949999999,-1.1706526166666666,0.0467807186666666,0.1792836616666666,-0.7074629416666668
554,5.540000715,0.1041611319999999,0.1370811714285714,-0.9904280142857144,0.082878885,0.1292814585714285,-0.7599376285714285
555,5.550000715,-0.0313128013333333,0.1148847533333333,-0.8912410199999999,0.2306966533333333,0.0841951133333333,-0.7644753666666667
556,5.560000715,-0.1682633,0.12812594,-0.9134897,0.3251016485714286,0.0889655371428571,-0.7157821142857144
557,5.570000715,-0.2753158633333333,0.1402520883333333,-1.0013947666666667,0.3348461066666666,0.2165453566666666,-0.5551583616666668
558,5.580000715,-0.2952001571428572,0.0889773131428571,-0.9734017028571428,0.2299839942857142,0.5860207,-0.248047612
559,5.590000715,-0.2653856857142857,0.0013241198571428,-0.7961135314285714,0.2392339642857142,0.9554960285714286,0.0500458392857142
560,5.600000715,-0.2636434,-0.057411883,-0.66012996,0.3387148,1.1352596,0.26296973
561,5.610000715,-0.2456545614285714,-0.1402695114285714,-0.5539653142857144,0.6769496514285713,1.1471275285714284,0.6219733857142857
562,5.620000715,-0.13186745,-0.18482786,-0.5378668,0.97643936,1.0350807,0.8774821
563,5.630000715,0.21963825,-0.1682458765714285,-0.5935755914285714,1.4101409714285715,0.5985866991428572,0.9431045485714286
564,5.640000715,0.4014258583333334,-0.0909707541666666,-0.9563362666666668,1.6223085333333334,-0.0652588473333333,0.5830536933333333
565,5.650000715,0.3039985828571429,0.0413133885714285,-1.5839512714285713,1.3644146428571429,-0.2190760024285714,0.4025919571428571
566,5.660000715,0.27471116,0.0811124616666666,-1.6927410166666668,0.6284345833333332,0.0404177241666666,0.2668384433333333
567,5.670000715,0.2806392042857143,0.0814376852857142,-1.4764668285714286,-0.2314456714285714,0.6046951399999999,0.23731416
568,5.680000715,0.32527595,0.0253891115714285,-1.033226705714286,-0.5832936999999999,0.9910996571428572,0.2093897142857142
569,5.690000715,0.2966941533333333,-0.071325298,-0.5708259800000001,-0.5455375166666666,1.1580645333333333,0.1249182649999999
570,5.700000715,0.1593254971428571,-0.1096056957142857,-0.4478222971428571,-0.2864219214285714,1.1097785142857144,0.1029277621428571
571,5.710000715,0.0404393466666666,-0.1213129716666666,-0.439111,-0.0435992249999999,1.004538295,0.1711390416666666
572,5.720000715,-0.11820812,-0.17113803,-0.5054258,0.4462239,0.67468077,0.42056835
573,5.730000715,-0.0811886783333333,-0.1441039383333333,-0.6107673333333333,0.7302679,0.2857747033333333,0.6068767749999999
574,5.740000715,-0.089356255,-0.038634659,-0.9142867914285716,0.88236887,-0.0873075228571428,0.8727698314285713
575,5.750000715,0.0818122628571428,0.0217172941428571,-1.2926755714285714,0.7261664885714286,-0.1072036985714285,1.2012310857142856
576,5.760000715,0.2778820666666666,0.0159562148616666,-1.2845667833333334,0.3515171399999999,0.28455301,1.3787840166666667
577,5.770000715,0.5715795142857143,-0.0070038930214285,-0.9385347571428572,-0.0902526857142857,0.8010389428571428,1.397051342857143
578,5.780000715,0.6383807,-0.0335537866666666,-0.8189807416666667,-0.1185552796666666,0.8556952333333333,1.320957266666667
579,5.790000715,0.7259264714285715,-0.0900270257142857,-0.6661581714285715,0.0286007397142857,0.7506003714285715,1.0434580142857144
580,5.800000715,0.7546869314285714,-0.1352125842857142,-0.6892736428571429,0.1543043785714286,0.5994592914285715,0.9020905
581,5.810000715,0.6844708716666666,-0.1339813866666666,-0.7625851833333334,0.2106150516666667,0.47269398,0.7828007333333334
582,5.820000715,0.4422514171428571,-0.1260482828571428,-0.9211339571428572,0.1512937804285714,0.3814741114285714,0.6985910714285714
583,5.830000715,0.32132974,-0.13211136,-0.9071261,0.046577103,0.4694361,0.7614211000000001
584,5.840000715,0.3319575257142856,-0.2030432028571428,-0.7805508142857143,-0.0223613728571428,0.5490207928571429,0.9266989371428572
585,5.850000715,0.38527654,-0.2929185299999999,-0.6820672333333334,-0.0299824201666666,0.5973068183333333,1.163155
586,5.860000715,0.46703944,-0.32953143,-0.6501294,0.020921519,0.6013791599999999,1.369825
587,5.870000715,0.8065002733333334,-0.3017046,-0.7419640333333333,0.0581831981666666,0.4120164766666667,1.5481923333333334
588,5.880000715,1.0008379714285716,-0.18296363,-0.8931662428571429,-0.0803046007142857,0.2315547485714285,1.468258642857143
589,5.890000715,1.0572045428571428,-0.120730035,-0.9159593428571428,-0.3419217571428571,0.3308610571428571,1.2610941142857144
590,5.900000715,1.0512809,-0.12772086,-0.8465737,-0.5312844,0.48531815,1.0900569
591,5.910000715,0.9198750514285716,-0.1632978642857143,-0.6726219714285715,-0.6407133571428572,0.8226803314285716,0.9095952
592,5.920000715,0.7443422066666666,-0.1979790366666667,-0.48442869,-0.5447230783333333,1.0379312,0.8711700266666668
593,5.930000715,0.6111550142857143,-0.26454506,-0.4283002485714285,-0.2330164097142857,1.0247835,0.9774864857142856
594,5.940000715,0.5693980566666667,-0.3107091933333333,-0.4820759,0.0899727091666666,0.78707671,1.1495126833333331
595,5.950000715,0.6428424,-0.3236425657142857,-0.6888076028571428,0.4350541428571429,0.234521704,1.3778532285714284
596,5.960000715,0.7757857142857142,-0.3057930985714286,-0.9356774142857144,0.4936954957142857,-0.0199397994285714,1.4371927142857144
597,5.970000715,0.9704224666666666,-0.2948749266666666,-1.1736152000000002,0.3435761266666666,-0.202088636,1.4327422499999998
598,5.980000715,1.045775342857143,-0.2921032671428571,-1.2287998714285713,0.0629827142857143,-0.0736943594285714,1.3111836857142858
599,5.990000715,1.0726642,-0.25095468,-1.2511857833333335,-0.2879635733333333,0.1306195,1.1655983833333332
600,6.000000715,1.0649402,-0.21678093,-1.2448592,-0.6459491685714286,0.3186441,1.0439816285714287
601,6.010000715,1.0568908,-0.1960480199999999,-1.1921732000000005,-0.96742934,0.4694360999999999,0.9434536
602,6.020000715,1.08943855,-0.16024817,-1.060991783333333,-1.22907564,0.6221479333333333,0.8528445666666666
603,6.030000715,1.2252848714285716,-0.1184955885714285,-0.7803155857142857,-1.3702395,0.6556572828571429,0.6600204628571429
604,6.040000715,1.2846633666666667,-0.123874095,-0.56443332,-1.3217207,0.50730866,0.33504972
605,6.050000715,1.1826213142857145,-0.1376561171428571,-0.4834123514285714,-0.9169908428571428,0.1254418457142857,0.0224704528571428
606,6.060000715,1.036402,-0.1884865999999999,-0.55494094,-0.4673490633333332,-0.306136275,-0.1332665116666666
607,6.070000715,0.97237815,-0.1450955728571428,-0.8371394357142857,-0.2579738857142857,-0.5515514214285714,-0.1548497857142857
608,6.080000715,0.9854277142857144,-0.1027063414285714,-0.9348977542857144,-0.3518698428571428,-0.5635938285714286,-0.1930713657142857
609,6.090000715,0.996857,-0.07817529,-0.94103056,-0.5080722,-0.5042544,-0.24281178
610,6.100000715,1.0014217142857142,-0.0763589828571428,-0.9309210842857142,-0.5361711714285714,-0.44439137,-0.2684673685714286
611,6.110000715,1.1506159,-0.1245194599999999,-0.7128465,-0.704765,-0.08521319,-0.4224009
612,6.120000715,1.1985281142857145,-0.1639250685714285,-0.6383125085714285,-0.6082511428571429,0.0826825414285714,-0.6021645142857144
613,6.130000715,1.1689453,-0.1769513783333333,-0.5813957166666667,-0.4526887233333332,0.034920101,-0.7689549000000001
614,6.140000715,1.1015843428571428,-0.1819487728571428,-0.5619665857142857,-0.2640823568571428,-0.1363498292857143,-0.9049702
615,6.150000715,1.037264357142857,-0.1874761014285714,-0.5907443857142857,-0.0391160428571428,-0.3316464142857143,-1.0119557142857143
616,6.160000715,0.9807482833333332,-0.19214536,-0.6974695666666667,0.0958521166666666,-0.2770192233333333,-0.99985515
617,6.170000715,0.9803272642857144,-0.1818921457142857,-0.74524816,0.1707099957142857,-0.1611327871428571,-0.9421446214285716
618,6.180000715,1.073812633333333,-0.1457707066666666,-0.7409274066666667,0.2354816166666666,-0.1460943,-0.910264225
619,6.190000715,1.1277966714285717,-0.1355261999999999,-0.7720180857142858,0.3525024857142857,-0.3855755142857143,-0.9915359857142858
620,6.200000715,1.1089061714285715,-0.1557407942857142,-0.8597235228571429,0.449889,-0.7754706,-1.1121346571428572
621,6.210000715,1.0555799,-0.1853055266666666,-1.0069286733333334,0.4278984999999999,-1.0747858,-1.19043945
622,6.220000715,0.9962254285714286,-0.1740998742857142,-1.0618999142857144,0.2851129594285714,-1.1779316857142856,-1.2301155285714285
623,6.230000715,0.948531,-0.15381996,-1.0462196,0.088114716,-1.173743,-1.2238325
624,6.240000715,0.9224493142857144,-0.1571041228571428,-0.9381470742857144,-0.1687901857142857,-1.002182157142857,-1.2095212285714283
625,6.250000715,0.8040560833333333,-0.0833737733333333,-0.9148450666666668,-0.2845021199999999,-0.764678945,-1.220371
626,6.260000715,0.6662627428571428,-0.0571374828571428,-0.8463516428571429,-0.3731622214285714,-0.4892450271428571,-1.2339550857142858
627,6.270000715,0.4395247828571428,-0.0712410914285714,-0.6497896714285715,-0.3448887257142857,-0.3326935971428572,-1.1240026
628,6.280000715,0.3616420383333333,-0.0665841733333333,-0.55324875,-0.1900244003333333,-0.3959308333333333,-0.9249245666666668
629,6.290000715,0.3278893342857142,-0.0583962671428571,-0.4206212285714286,0.1057856564285714,-0.5897730142857143,-0.6252021628571428
630,6.300000715,0.38941297,-0.07915096,-0.4002368,0.3851392,-0.7547018,-0.36864632
631,6.310000715,0.8459334714285714,-0.1837955657142857,-0.6647426428571429,0.7638644857142857,-0.8711118242857143,-0.1468215071428571
632,6.320000715,1.0982855333333337,-0.1750508683333333,-0.9274575666666666,0.886441175,-0.7121461116666667,-0.235074385
633,6.330000715,1.1530420428571428,0.0588405442857142,-1.2944571428571428,0.5950961300000001,-0.2110477281428571,-0.7632536514285714
634,6.340000715,0.9378552428571428,0.1988574328571428,-1.505523342857143,0.11822077,0.1168899777142857,-1.1437242085714288
635,6.350000715,0.6541286333333333,0.1972320466666667,-1.514427816666667,-0.3592290816666666,0.3220182966666666,-1.4372217333333337
636,6.360000715,0.1437017585714285,0.1282174085714285,-1.219243557142857,-0.8548589285714286,0.3113139457142857,-1.5912135
637,6.370000715,-0.101774235,0.087977695,-0.9919125,-1.0942820166666667,0.1120904799999999,-1.4911799666666667
638,6.380000715,-0.31245726,0.02555027,-0.6557395,-1.1482401,-0.19027892,-1.1786298
639,6.390000715,-0.28465074,-0.0115555525,-0.26794246,-0.8281561999999999,-0.589773,-0.56411743
640,6.400000715,-0.13528228,0.05314335,-0.098816745,-0.2845021166666666,-0.9145401333333334,-0.1324520441666666
641,6.410000715,-0.1053719988571428,0.0769905557142857,-0.1350122314285714,0.12692534,-1.1637948914285714,0.091059876
642,6.420000715,0.0355508553333333,0.1510860566666666,-0.3501931733333334,0.96218622,-1.5724226,0.4425588466666666
643,6.430000715,0.3214124771428571,0.1751975014285714,-1.0550397628571428,1.3087402428571429,-1.3521104285714285,0.3500591128571428
644,6.440000715,0.3633138866666667,0.16409494,-1.2377246333333332,1.1399427666666666,-1.1594898500000002,0.1717498833333333
645,6.450000715,0.3230763485714286,0.1096144085714285,-1.3263187,0.7015580885714287,-0.8501684885714286,-0.1867883642857142
646,6.460000715,0.1024144966666666,0.0284162936666666,-1.2569941333333332,0.250701898,-0.5624885233333333,-0.4354322866666666
647,6.470000715,-0.1364757328571428,-0.0117080001428571,-1.0822277828571427,-0.0398141528571428,-0.3372313157142858,-0.3976179428571428
648,6.480000715,-0.1642909442857142,-0.0246225174285714,-0.9374806371428572,-0.1565732471428571,-0.2045902,-0.1574677014285714
649,6.490000715,-0.15674695,-0.03228847,-0.8985585,-0.1336228416666667,-0.1703245749999999,-0.0196489216666666
650,6.500000715,-0.20921952,-0.02716622,-0.8968511,-0.07559235,-0.2171562,0.04550812
651,6.510000715,-0.3003224066666667,-0.0203721223333333,-0.9764137,-0.00839915,-0.2874036166666666,0.0740143241666666
652,6.520000715,-0.4185043914285714,0.0016856387142857,-1.0916229714285717,-0.0619791781142857,-0.4588771857142856,0.0894891207142857
653,6.530000715,-0.5948212666666667,0.05850951,-1.06444222,-0.2372632466666666,-0.6594095999999999,0.1721571199999999
654,6.540000715,-0.5825470285714286,0.0790681988571428,-0.8467175428571428,-0.2764738257142857,-0.9157909142857142,0.3209129742857142
655,6.550000715,-0.5242902,0.0712977142857142,-0.6987951499999999,-0.0565688257142857,-1.1747901714285711,0.5631575285714285
656,6.560000715,-0.4485424133333333,0.0723314546666666,-0.6851009500000002,0.2168507733333333,-1.2437868,0.8477542000000001
657,6.570000715,-0.29891988,0.0922440577142857,-0.7238314228571429,0.4397663857142856,-1.0959036285714283,1.1171087714285712
658,6.580000715,-0.10500612,0.10732334,-0.80876666,0.5854971,-0.8829797,1.2488772
659,6.590000715,0.0709013528571428,0.1188222585714285,-0.9487138657142856,0.6430912714285714,-0.6201408714285714,1.227933857142857
660,6.600000715,0.1531440966666666,0.1409075983333333,-1.0862422,0.5028290999999999,-0.3187604633333333,0.9000834166666666
661,6.610000715,0.12634884,0.1993104,-1.2370539,0.3387148,-0.17561859,0.61603945
662,6.620000715,-0.0394535166666666,0.0898578812666666,-1.1895155666666666,-0.0662005666666666,-0.1137193999999999,0.1196242543333333
663,6.630000715,-0.3608572742857143,-0.0135199525714285,-1.060819757142857,-0.2628606542857143,-0.12570364,-0.1644488085714285
664,6.640000715,-0.5903872371428571,-0.0529168505714285,-1.0233263142857143,-0.2546578442857143,-0.2075571742857143,-0.09393958
665,6.650000715,-0.8533425333333334,-0.0429750681833333,-1.0276005666666668,-0.19287503,-0.3845283399999999,0.19088978
666,6.660000715,-0.8823468142857143,0.0139903640714285,-1.06271,-0.1331865142857143,-0.5772070185714285,0.7329730571428572
667,6.670000715,-0.6899183166666667,0.0796591193333333,-1.0642897,-0.1411566233333333,-0.65289392,1.2370675666666668
668,6.680000715,-0.4641908728571429,0.1479615885714285,-1.0004155285714285,-0.1797854414285714,-0.6231078428571427,1.4567398142857144
669,6.690000715,-0.33465368,0.21175015,-0.9261516,-0.20509197,-0.5628958,1.5274236
670,6.700000715,-0.1125152771428571,0.2429279328571428,-0.8307627428571429,-0.2113749642857142,-0.4403772571428571,1.4907727714285712
671,6.710000715,0.0794819899999999,0.2301789299999999,-0.680645142857143,-0.14522893,-0.3894151428571428,1.2656318714285717
672,6.720000715,0.0438948366666666,0.2314515116666666,-0.5011776,0.2718270266666667,-0.67121931,0.6807892733333333
673,6.730000715,-0.2067193671428571,0.1845229485714286,-0.7232347142857144,0.5593179428571429,-0.88891365,0.4825257285714285
674,6.740000715,-0.3914456,0.1478135033333333,-0.9728413333333332,0.7162184466666667,-0.9522090666666668,0.4625131833333333
675,6.750000715,-0.5479022,0.1666778428571428,-1.2097656857142858,0.6809638028571429,-0.8515646857142857,0.6176102214285715
676,6.760000715,-0.5015231733333333,0.1922368166666666,-1.334274966666667,0.4156306566666667,-0.6667397666666667,0.8803327
677,6.770000715,-0.3372801428571428,0.2220730442857143,-1.4338075571428572,0.1017278814285714,-0.536193,0.9766138771428572
678,6.780000715,-0.2460306316666666,0.2359283949999999,-1.4254287666666663,-0.27045262,-0.4177177233333333,0.8345191416666666
679,6.790000715,-0.13235529,0.21885422,-1.3312666,-0.78051007,-0.29656634,0.48531815
680,6.800000715,-0.2423791328571428,0.2207358628571428,-1.1034572285714286,-1.1482401,-0.1939439999999999,0.079715565
681,6.810000715,-0.3347553233333333,0.230806145,-0.8474884999999999,-1.29850855,-0.2175634266666667,-0.2717252358333333
682,6.820000715,-0.40301132,0.2608079,-0.6340309,-1.3266076000000002,-0.31611344,-0.6655181
683,6.830000715,-0.6789013833333334,0.3169849433333333,-0.589450035,-1.2349805,-0.44316968,-0.99904066
684,6.840000715,-0.9085286457142858,0.3235815771428571,-0.6650170142857144,-1.1360232285714285,-0.2935993828571428,-1.097997942857143
685,6.850000715,-1.039877706666667,0.2729427433333333,-0.7309064799999999,-1.075956583333333,0.24708771,-0.9943574833333332
686,6.860000715,-1.1507117142857142,0.2331059414285714,-0.7505098285714286,-0.8998871,0.9979062428571428,-0.7484187457142858
687,6.870000715,-1.1806655714285714,0.2435595085714285,-0.7763040171428572,-0.7168074314285714,1.2947780142857144,-0.5852353
688,6.880000715,-1.187112,0.25836873,-0.79461956,-0.62779826,1.3148488,-0.53724015
689,6.890000715,-1.2715681999999997,0.3606308,-1.1094245,-0.3126011,0.7235486,-0.27579755
690,6.900000715,-1.12261635,0.3592841883333333,-1.3796739833333334,-0.3802015133333333,0.17174989,-0.072181784
691,6.910000715,-0.89820575,0.3264519685714285,-1.3736558428571428,-0.5579871614285715,-0.2337363428571428,0.1428946314285714
692,6.920000715,-0.6296759916666667,0.293238675,-1.2311949166666667,-0.656915325,-0.2943265783333333,0.249531105
693,6.930000715,-0.4446687771428572,0.2915022,-1.1273523857142858,-0.6785858285714286,-0.2077316997142857,0.2228283528571428
694,6.940000715,-0.4020704857142857,0.29275664,-1.101410042857143,-0.6801565985714285,-0.0483878271428571,0.1420219914285714
695,6.950000715,-0.4230124933333334,0.29653154,-1.1095058333333334,-0.7194253583333333,0.1497593833333333,0.0538563695
696,6.960000715,-0.4628841428571428,0.3228280714285714,-1.0674185285714286,-0.8976182357142858,0.4411626114285714,-0.0518783874285714
697,6.970000715,-0.5040233,0.3296229,-0.9861856,-0.9792390916666666,0.562488525,-0.0986518366666666
698,6.980000715,-0.5155179,0.34331274,-0.89904636,-1.0018113714285712,0.6448365714285714,-0.1401894428571428
699,6.990000715,-0.49280316,0.36599696,-0.5815583,-0.9295568,0.7663079,-0.24281178
700,7.000000715,-0.49844808,0.3841861657142857,-0.4326210457142857,-0.6918499742857144,0.7757324085714286,-0.3339153
701,7.010000715,-0.5418696,0.3644986128571428,-0.3839074057142856,-0.1982853785714286,0.8120341285714285,-0.4508489042857143
702,7.020000715,-0.60365315,0.3432314133333333,-0.45988965,0.2300603416666666,0.9277751833333332,-0.482671145
703,7.030000715,-0.7081597571428571,0.3680528328571428,-0.62461402,0.6153413142857144,1.1226936714285716,-0.3590472847142857
704,7.040000715,-0.5866805866666667,0.3646147733333333,-0.88962507,1.0096286833333334,1.323196933333333,-0.0222959241666666
705,7.050000715,-0.3237427385714286,0.3616064685714285,-1.0095406171428571,1.2148443285714288,1.1829057142857142,0.0641825955714285
706,7.060000715,-0.1050104771428571,0.3699780285714285,-1.1403583428571429,1.3401552857142858,0.8301850642857144,-0.0939395810714285
707,7.070000715,0.0172215331666666,0.3946063416666667,-1.3341022166666667,1.3348030833333333,0.4525359933333333,-0.39491275
708,7.080000715,0.0610183648571428,0.3903755742857143,-1.528695442857143,1.1596935,0.14813046,-0.7522584
709,7.090000715,0.04927116625,0.312502985,-1.5893915833333334,0.7663079,0.06261184,-1.1993986
710,7.100000715,-0.0115555525,0.23909931,-1.534053,0.2619007754285714,0.2519744942857143,-1.6566613571428572
711,7.110000715,-0.23282716,0.1971804828571428,-1.3697184142857144,-0.0869366545714285,0.5005020571428572,-1.9530313714285712
712,7.120000715,-0.45921375,0.1535048883333333,-1.2014268,-0.307917925,0.6983002166666666,-2.0868832
713,7.130000715,-0.7100588,0.1124020242857142,-1.0210090257142856,-0.3056199714285714,0.87399152,-1.9544057142857143
714,7.140000715,-0.9650461,0.09111304,-0.9231432933333332,-0.086994825,0.9723670083333332,-1.6068336833333332
715,7.150000715,-1.047521842857143,0.10503662,-0.9014376428571428,0.2092806357142857,0.8317557999999999,-1.0974743714285713
716,7.160000715,-0.9836193666666668,0.11439692,-0.862413175,0.42056835,0.6685723,-0.7327113
717,7.170000715,-0.7576444042857143,0.1475390985714285,-0.8572103071428572,0.7650862,0.30695075,-0.2990097400000001
718,7.180000715,-0.47670463,0.17077217,-0.92981035,1.0925003,-0.1047603039999999,-0.040010497
719,7.190000715,-0.1452872171428571,0.2258015,-1.2375547428571427,1.2616177571428568,-0.4845327714285714,-0.0777084982857142
720,7.200000715,-0.0149660291428571,0.25282834,-1.4803128714285714,1.0825522857142855,-0.5859334328571428,-0.3120993099999999
721,7.210000715,0.0368110918333333,0.2610111583333333,-1.7067002999999998,0.4203392656666667,-0.3055254313333333,-0.7640680916666667
722,7.220000715,-0.0230065678571428,0.2109617757142857,-1.6024062428571428,-0.1649505757142857,0.0633099557142857,-1.0733895142857144
723,7.230000715,-0.1827748866666666,0.1301600333333333,-1.3106862,-0.4651092833333333,0.2876072566666667,-1.2366602333333334
724,7.240000715,-0.3903363714285714,0.0784758271428571,-1.009571157142857,-0.6867886785714286,0.5334878228571428,-1.3480962285714286
725,7.250000715,-0.5963980600000001,0.0619243442857142,-0.8724246142857143,-0.6171520599999999,0.5675207142857143,-1.2194693
726,7.260000715,-0.7044059166666666,0.0594445233333333,-0.8756760949999999,-0.5245650666666667,0.5930308666666667,-1.0165517233333332
727,7.270000715,-0.7581931571428572,0.0733187328571428,-0.9302938028571428,-0.43424695,0.6640346428571429,-0.6215371085714285
728,7.280000715,-0.6856193,0.08460859,-0.8761182,-0.38712445,0.6807893000000002,-0.25502872
729,7.290000715,-0.5641183,0.1139003757142857,-0.7661161285714285,-0.2761247757142857,0.5237142542857143,0.0109516194285714
730,7.300000715,-0.3349179266666666,0.10218076,-0.6668071666666666,-0.0295751873333333,0.23446354,0.204328412
731,7.310000715,-0.1262051028571428,0.0214428884285714,-0.6268179228571429,0.2398884454285714,0.0322440107142857,0.30590358
732,7.320000715,-0.0848880883333333,-0.0477009533333333,-0.63621089,0.4692325016666667,0.065869695,0.3218147083333333
733,7.330000715,-0.1947805271428571,-0.1237267385714285,-0.8098076771428572,0.7659588285714286,0.3572147428571428,0.39787972
734,7.340000715,-0.29285245,-0.1234261971428571,-0.9826270214285716,0.773289,0.5786904928571428,0.5437849571428571
735,7.350000715,-0.3368539866666666,-0.0865853338333333,-1.1046376,0.6421022816666667,0.741670355,0.7048159083333333
736,7.360000715,-0.3100224514285714,-0.0166342461428571,-1.2040205285714285,0.3067325814285714,0.9561941214285714,0.9673638785714286
737,7.370000715,-0.22458628,0.0072565209999999,-1.2043691,-0.0248920258333333,1.1399427666666666,1.20876485
738,7.380000715,0.11314684,-0.036435053,-0.9371279,-0.29061058,1.2733110999999997,1.3991456
739,7.390000715,0.6211795416666667,-0.0075664976666666,-0.4703170533333333,-0.1826687816666667,1.035080716666667,1.2885822566666667
740,7.400000715,0.9558136428571428,0.033913128,-0.3302196214285714,0.4326107571428572,0.2584320057142857,0.6746808
741,7.410000715,0.8544313628571428,0.0097915117142857,-0.6895480714285714,1.0518353571428574,-0.5152496742857143,-0.0963829714285714
742,7.420000715,0.50183823,-0.015702137,-1.1188559333333332,1.0656230333333332,-0.5535294266666667,-0.5783705666666666
743,7.430000715,0.1967318614285714,-0.0055229711428571,-1.3383098142857144,0.7343693085714287,-0.2021468114285714,-0.6962350142857143
744,7.440000715,-0.2055709366666666,0.0458868233333333,-1.3847861,0.2022413466666666,0.3464522066666666,-0.5140279600000001
745,7.450000715,-0.3475376942857143,0.0565886691428571,-1.2826009428571428,-0.1996815985714286,0.7458881428571429,-0.1934204142857143
746,7.460000715,-0.2680441108333333,-0.0273898099999999,-0.9897579666666668,-0.5298590983333333,1.0477049,0.30308206
747,7.470000715,-0.106957465,-0.11890938,-0.6489098,-0.58381724,1.0802834,0.64413846
748,7.480000715,0.1291233885714285,-0.17047597,-0.28685038,-0.18430133,0.8156992371428571,0.9797553714285716
749,7.490000715,0.4244759933333333,-0.1563302533333333,-0.2924459199999999,0.29962057,0.48165306,1.1462549
750,7.500000715,0.5883879971428572,-0.0988298057142857,-0.6884417142857142,1.07784,-0.06810947,1.0863918
751,7.510000715,0.55683124,-0.04985047,-1.0386581,1.0925003,-0.105982,0.94467527
752,7.520000715,0.4930993142857142,-0.0144302842857142,-1.2114382142857143,0.9675384028571428,-0.0169728285714285,0.9258262785714286
753,7.530000715,0.3264955271428572,0.0227974987142857,-1.4213590142857144,-0.008399149,0.79685026,0.973996
754,7.540000715,0.2611382033333333,0.0251843951666666,-1.3460744666666666,-0.5673243998333334,1.3221789599999998,1.1827020833333333
755,7.550000715,0.3825136114285714,-0.017230972,-1.0579275785714286,-1.0621979571428573,1.6673948428571428,1.3155468857142856
756,7.560000715,0.6098352285714286,-0.0657616797142857,-0.6141996071428572,-1.2971123714285715,1.7735077857142856,1.2677262857142857
757,7.570000715,0.6751918,-0.051801804,-0.4492945,-1.1252315666666666,1.6084627166666667,1.1181559333333333
758,7.580000715,0.6483610000000001,0.015549688,-0.37800986,-0.8330429,1.2806413000000003,0.9593356
759,7.590000715,0.4555449,0.06777835,-0.49027252,-0.40524625,0.7396342316666668,0.8770748166666666
760,7.600000715,0.3577604214285714,7.142857139097457e-10,-0.5079216271428572,-0.0893800371428571,0.3486629,1.0790616285714287
761,7.610000715,0.4935450666666667,-0.2155613566666666,-0.40103968,0.15042114,0.30572906,1.313627
762,7.620000715,0.62971446,-0.3599774385714286,-0.4471820257142857,0.69161,0.4177759,1.7274324857142855
763,7.630000715,0.7650097942857144,-0.4058903871428571,-0.6752353628571429,1.0907550714285714,0.5760725857142857,2.0513560571428573
764,7.640000715,0.8731098666666667,-0.3646757366666667,-0.9361521333333332,1.2859353333333334,0.6710157,2.2575898
765,7.650000715,1.0048974857142858,-0.2991376642857143,-1.1668015142857142,1.1781934857142855,0.6183083285714286,2.2836526
766,7.660000715,1.2477252,-0.24022745,-1.4115458,0.9190197,0.4743229,2.2470016
767,7.670000715,1.5144786,-0.19775544,-1.5342969,0.4755446,0.3008422999999999,1.9733421
768,7.680000715,1.576423183333333,-0.1308054016666666,-1.5554363333333334,-0.29712629,0.27437222,1.4740762666666667
769,7.690000715,1.5014508285714283,-0.1066090085714285,-1.2032235571428571,-0.7621846642857143,0.35930908,1.0912786
770,7.700000715,1.3681982428571426,-0.0839247608571428,-0.7722009714285714,-0.9494529514285714,0.3744930142857142,0.7359400714285715
771,7.710000715,1.2220326666666668,-0.0967942706666666,-0.6025452866666666,-0.7597412733333334,0.1892608366666666,0.4885760133333334
772,7.720000715,1.0988576571428572,-0.13438938,-0.5467522857142857,-0.5702041142857144,-0.0297133557142857,0.3512808
773,7.730000715,1.0204762333333333,-0.1791517083333333,-0.5028596383333334,-0.3942510033333333,-0.2096224166666666,0.2961591216666666
774,7.740000715,0.9837900142857142,-0.2526889485714286,-0.4747663714285714,-0.1694882961428571,-0.3114012057142857,0.2914177828571428
775,7.750000715,0.9871003000000002,-0.29977357,-0.4914921,0.036803547,-0.34176904,0.2935121
776,7.760000715,1.0284658714285717,-0.33598216,-0.6090598985714285,0.2540688257142857,-0.2527598785714285,0.22858778
777,7.770000715,1.0571349,-0.3541975,-0.72577405,0.3032856599999999,-0.14385453,0.19088978
778,7.780000715,1.1339178166666668,-0.3379008083333333,-0.9076748666666666,0.2140765156666666,0.0774757933333333,0.0442864266666666
779,7.790000715,1.0936699957142857,-0.2963674528571428,-1.024728742857143,-0.051158458,0.16401248,-0.2487457314285714
780,7.800000715,0.9288347133333332,-0.2969177333333333,-1.0497869,-0.33377713,0.0841951181666666,-0.37231141
781,7.810000715,0.8375140571428571,-0.28563078,-0.9757842514285716,-0.5572890642857143,-0.0339020239285714,-0.3991886785714285
782,7.820000715,0.78123465,-0.2774653616666667,-0.8365427316666668,-0.70272889,-0.1153483266666666,-0.3670173866666666
783,7.830000715,0.7577314857142856,-0.2623106042857143,-0.6066164142857142,-0.6703830785714286,-0.1134866954285714,-0.2806843142857143
784,7.840000715,0.7920990333333333,-0.2259684666666666,-0.4471348366666667,-0.4809913383333333,-0.1033349966666666,-0.1772475133333333
785,7.850000715,0.9134548571428572,-0.21103147,-0.41700604,-0.1441817757142857,-0.1356517271428571,-0.0846896071428571
786,7.860000715,1.000794485714286,-0.1905729642857143,-0.5386812514285715,0.1776692914285714,-0.1923732585714285,-0.0726471871428571
787,7.870000715,1.0214926,-0.15186861,-0.6913817999999999,0.35581854,-0.21226943,-0.10720369
788,7.880000715,1.1153656285714286,-0.1507971314285714,-0.8575718214285715,0.3355732942857142,-0.1435054742857142,-0.2574721185714286
789,7.890000715,1.1667957333333334,-0.20768489,-0.8218568999999999,0.2760011533333333,-0.0615937656666666,-0.41832856
790,7.900000715,1.155590042857143,-0.2420045571428571,-0.8069199000000001,0.2713470714285714,-0.0192416880857142,-0.5381127714285715
791,7.910000715,1.0278474142857144,-0.2498098857142857,-0.8578114428571428,0.2675074828571428,0.0030978684285714,-0.6417823257142857
792,7.920000715,0.9467422333333334,-0.2215881333333333,-0.93551191,0.2244609166666666,0.029829709,-0.61379969
793,7.930000715,1.0474391714285711,-0.1803720214285714,-0.984687217142857,0.0886382982857142,0.0385270105714285,-0.5272920914285714
794,7.940000715,1.2408142666666666,-0.2031114433333333,-0.9344549,-0.0417921333333333,-0.1090362358333333,-0.5704295083333333
795,7.950000715,1.3268631285714283,-0.2315074085714285,-0.8674111714285715,-0.10491302,-0.4847073,-0.7730272000000001
796,7.960000715,1.0739651,-0.14406328,-0.930786,-0.15500249,-1.2226108,-1.273922
797,7.970000715,0.9626868114285714,-0.1285919885714285,-0.9322495285714286,-0.2021249899999999,-1.3388463142857143,-1.3713084285714283
798,7.980000715,0.7499784285714286,-0.1860082442857143,-0.8601547085714286,-0.34593588,-1.3524595142857143,-1.3425113857142856
799,7.990000715,0.6562476266666667,-0.27218052,-0.69844522,-0.4598152666666666,-1.09779439,-1.1028847833333333
800,8.000000715,0.6594766171428572,-0.2832613057142857,-0.6449809999999999,-0.3340680057142857,-0.7810554857142857,-0.8077582457142858
801,8.010000715,0.6624675166666666,-0.2629878949999999,-0.7024901816666667,-0.2187342183333333,-0.5435522166666666,-0.56330298
802,8.020000715,0.6720558057142857,-0.2202959514285714,-0.8559602057142858,-0.2256862428571428,-0.2279769102857143,-0.3192549657142857
803,8.030000715,0.6833224000000001,-0.1450338733333333,-1.0425862833333337,-0.39180761,0.073199865,-0.2228574483333333
804,8.040000715,0.6687803428571428,-0.0671946845714285,-1.1451974714285715,-0.7696893371428571,0.4015448171428571,-0.2361797342857143
805,8.050000715,0.6986862657142857,-0.0044297,-0.9402639857142856,-1.2925746285714284,0.5649028314285715,-0.3792925142857143
806,8.060000715,0.6955741316666666,0.0575287646666666,-0.5671926216666666,-1.4060177000000005,0.50730866,-0.5066978
807,8.070000715,0.5111229914285714,0.0018467977142857,-0.1407224942857143,-1.048584757142857,0.0095553985714285,-0.9281824142857144
808,8.080000715,0.3747271416666666,-0.054733885,-0.1115918741666666,-0.6121198466666667,-0.1428364471666666,-0.8644506750000001
809,8.090000715,0.26714975,-0.084029295,-0.17424797,-0.24662958,-0.009468133,-0.65574455
810,8.100000715,0.16732684,-0.0027440626,-0.28846195,0.16141638,0.4120164799999999,-0.23792501
811,8.110000715,0.2811401028571428,0.0701783110571428,-0.5200869642857143,0.4877397257142856,0.9458969828571429,0.1579040171428571
812,8.120000715,0.4551093085714285,0.0968131371428571,-0.74956464,0.7280863142857142,1.4769849714285714,0.3114884628571429
813,8.130000715,0.5629342983333334,0.1452981049999999,-0.8649843833333334,0.7626427833333334,1.5779202,0.1860029876666666
814,8.140000715,0.5888802200000001,0.2194901485714285,-0.9174054428571428,0.7818408214285715,1.294952557142857,-0.1476941348571428
815,8.150000715,0.5321957,0.27178416,-0.9439575,0.82372755,0.6111527,-0.5005893
816,8.160000715,0.1815349764285714,0.1979906542857143,-1.3179079285714284,0.7766050185714286,-0.4138490114285714,-0.7950177142857143
817,8.170000715,-0.0012907253333333,0.1279647833333333,-1.5172226999999998,0.400995765,-0.9440644166666666,-0.5661536033333333
818,8.180000715,0.0284032271428571,0.0941300574285714,-1.4745459857142855,-0.0047340628571428,-0.8044422000000001,-0.0501331114285714
819,8.190000715,0.2529241642857142,0.1368720977142857,-1.2737677428571428,-0.2532616271428571,-0.5285137728571428,0.3839175
820,8.200000715,0.4045052983333333,0.1631446733333333,-1.13704805,-0.3213565533333333,-0.3146881333333333,0.5836645666666667
821,8.210000715,0.4546911542857143,0.2372350942857143,-0.9650955285714284,-0.2824077742857143,-0.2689909571428571,0.5210963857142857
822,8.220000715,0.3967507766666667,0.2660114533333333,-0.8290117666666666,-0.2057028116666666,-0.3798451916666667,0.3482847583333333
823,8.230000715,0.3704266571428571,0.2519876914285714,-0.6909157428571427,-0.0597103185714285,-0.6288672628571429,0.0985645728571428
824,8.240000715,0.4057859,0.21077448,-0.5564044,0.1925950466666666,-0.9780682666666666,-0.2625625166666667
825,8.250000715,0.32986683,0.15757017,-0.53201276,0.46454933,-1.1480874,-0.47126865
826,8.260000715,0.1767176368571428,0.1014562727142857,-0.7103724742857143,0.6827090857142857,-1.189974105714286,-0.5656882071428572
827,8.270000715,-0.0138524333333333,-0.0105341503333333,-1.0782641666666668,0.7239558,-0.7435029166666668,-0.4063152433333333
828,8.280000715,-0.1119838814285714,0.0615976738571428,-1.1718366571428571,0.5860206785714286,-0.1635761771428571,-0.1639252314285714
829,8.290000715,-0.1169783666666666,0.1004022073333333,-1.2313726,0.4912230216666666,0.2440334816666667,0.0102825949999999
830,8.300000715,-0.1216447314285714,0.0898353871428571,-1.3043443714285714,0.3701298199999999,0.4729266771428571,0.0683712586571428
831,8.310000715,-0.24372358,0.0948632566666666,-1.3485034333333334,0.2036921045,0.4759517833333333,-0.00193435
832,8.320000715,-0.3693943957142857,0.1174937814285714,-1.3420295285714283,0.0134168245714285,0.2577338935714285,-0.047340664
833,8.330000715,-0.3825528033333333,0.0893192343333333,-1.2671573,-0.15622419,-0.074217945,-0.03268033
834,8.340000715,-0.29977357,0.031160356,-1.1845813,-0.26128992,-0.5702259,-0.086434886
835,8.350000715,-0.4864612999999999,0.019452354,-1.182386,-0.30736524,-1.069724442857143,-0.1241328894285714
836,8.360000715,-0.6203715666666666,0.0698821246666666,-1.193301333333333,-0.3934365433333333,-1.4064757833333337,0.153628085
837,8.370000715,-0.5203787514285715,0.1931515128571428,-0.8593881657142857,-0.4220300085714285,-1.4721855571428573,0.9924959428571428
838,8.380000715,-0.3738835866666667,0.2533735133333333,-0.6687687250000001,-0.31382278,-1.4669497,1.2647593
839,8.390000715,-0.0388176042857142,0.27030323,-0.5847641142857143,0.0518347536857142,-1.3435585571428572,1.528819757142857
840,8.400000715,0.1770174416666666,0.2468233416666666,-0.6151070383333334,0.3981706133333333,-1.2193529,1.3820419333333334
841,8.410000715,0.3167301571428571,0.2307625971428571,-0.7851154928571429,0.5617613285714286,-1.0791489285714284,0.9649205257142858
842,8.420000715,0.2464908571428571,0.1959304314285714,-0.99213975,0.5943980142857143,-0.8822816057142857,0.4666436942857143
843,8.430000715,0.09433477,0.1521430241666666,-1.1208580833333337,0.5231907,-0.71682924,0.1786728199999999
844,8.440000715,-0.1388277885714285,0.0646379177142857,-1.237720271428571,0.28862533,-0.4834856,-0.102316916
845,8.450000715,-0.37249124,0.032623854,-1.2885509,0.008704574,-0.33321717,-0.1927223
846,8.460000715,-0.6730836971428571,0.0556478477142857,-1.2931504142857142,-0.3661811122857142,-0.30075501,0.0188053702857142
847,8.470000715,-0.79126567,0.04384402,-1.1867765,-0.660784,-0.32588702,0.3839175000000001
848,8.480000715,-0.7026542342857143,0.0355160085714285,-1.0674142114285714,-0.6911518557142857,-0.2942974857142856,0.7561852857142857
849,8.490000715,-0.4695874842857143,0.0629522794285714,-0.9482608728571428,-0.6246567571428571,-0.3330426428571428,1.1249625714285714
850,8.500000715,-0.26723104,0.1097421766666666,-0.93566432,-0.5039998666666666,-0.5130098766666666,1.1833129999999998
851,8.510000715,-0.0161943257142857,0.1490069528571428,-0.9934639285714286,-0.39113859,-0.8499939799999999,1.0439816042857142
852,8.520000715,0.1064391356666666,0.1966324083333333,-1.1316769,-0.3916040083333333,-1.2908220666666663,0.6142069083333334
853,8.530000715,0.048848671,0.2452320771428571,-1.3168190142857144,-0.6660198714285714,-1.6753359428571428,0.0842532971428571
854,8.540000715,-0.0222878869999999,0.22202514,-1.4088627,-1.0419527,-1.7528262,-0.25502872
855,8.550000715,-0.3910288999999999,0.13976426,-1.1919293,-1.5171919,-1.4339639,-0.5445703
856,8.560000715,-0.7158649566666666,0.1786587966666666,-0.8764434333333333,-1.5945658500000002,-1.0678627933333331,-0.4946844733333333
857,8.570000715,-0.8876694014285714,0.2179264814285714,-0.7806596857142857,-1.4051450285714286,-0.6789567285714286,-0.3000569085714285
858,8.580000715,-1.0051413742857145,0.26503724,-0.9218569285714286,-1.161329742857143,-0.47824978,-0.07927925
859,8.590000715,-1.0149169,0.2923036433333333,-1.1320376,-1.0537624,-0.2676529033333333,0.147316
860,8.600000715,-0.9631659571428572,0.2994120642857142,-1.2902626142857143,-1.116127,-0.0766613314285714,0.2931630685714285
861,8.610000715,-0.864201825,0.2897882416666666,-1.2992576333333334,-1.3255894166666666,0.170324575,0.3763837083333333
862,8.620000715,-0.6531086642857142,0.3590976142857142,-1.09812154,-1.4243430285714285,0.1825124385714285,0.3025875457142857
863,8.630000715,-0.4796664714285714,0.4125328,-0.845916037142857,-1.3510413714285714,0.05388546,0.1195079105714285
864,8.640000715,-0.5023159,0.49167505,-0.7008945299999999,-1.1311364,-0.2403684,-0.1181989459999999
865,8.650000715,-0.613359,0.5944249,-0.6291526,-0.7897600571428571,-0.6142068857142856,-0.2093024522857142
866,8.660000715,-0.5552109857142857,0.5971428142857143,-0.6600951142857142,-0.3715914857142857,-0.6733718714285714,-0.0789301928571428
867,8.670000715,-0.3723642133333333,0.53954873,-0.6683113466666667,-0.0495295366666666,-0.3541896133333333,0.0141512953333333
868,8.680000715,-0.2596013714285714,0.4769354942857143,-0.7545126757142857,0.1673721457142857,-0.0206379171428571,0.0191544255714285
869,8.690000715,-0.2600761433333333,0.4357266533333333,-0.9629931933333332,0.3028784383333333,0.3747547833333333,-0.0459153525
870,8.700000715,-0.3180063685714285,0.40344688,-1.1223956428571429,0.2669620685714285,0.6652563185714285,-0.1412366128571428
871,8.710000715,-0.4798973514285714,0.3984814285714285,-1.2078187571428571,0.0811336068571428,0.8750387157142857,-0.2086043385714286
872,8.720000715,-0.56446892,0.4357926833333334,-1.2165191666666668,-0.0890309883333333,0.9357162016666668,-0.2126766533333333
873,8.730000715,-0.6293224314285715,0.4756113614285714,-1.1488562428571427,-0.2417428,0.93368006,-0.20249587
874,8.740000715,-0.6621728,0.49484593,-1.0515857,-0.3932328999999999,0.8066238,-0.1792836599999999
875,8.750000715,-0.6391706,0.4976335628571428,-0.8422355285714286,-0.3770018285714285,0.7073175071428571,-0.1723025528571428
876,8.760000715,-0.5615310285714286,0.4474825742857143,-0.6666677999999999,-0.0757668857142856,0.5683934071428572,-0.2353070828571428
877,8.770000715,-0.4408184,0.36233822,-0.5871684,0.2070517633333333,0.5374438,-0.32792317
878,8.780000715,-0.3908024114285714,0.3324018142857143,-0.6662802085714284,0.3959599185714286,0.5563509628571428,-0.4520706228571428
879,8.790000715,-0.29659249,0.3221529433333334,-0.9507160733333334,0.71010995,0.57205844,-0.65940964
880,8.800000715,-0.3896089457142856,0.3602475142857143,-1.1543227,0.6748553271428571,0.4214409714285714,-1.046512242857143
881,8.810000715,-0.4967058,0.38282722,-1.3373647,0.56106323,0.3362714,-1.1749647
882,8.820000715,-0.55929222,0.4064827742857143,-1.379588357142857,0.4046863,0.28251687,-1.2714785
883,8.830000715,-0.65363574,0.42090872,-1.3107777000000005,-0.1480213757142857,0.2519744914285714,-1.5467089
884,8.840000715,-0.6743685999999999,0.33306822,-1.1011313,-0.32603973,0.30328566,-1.6294351
885,8.850000715,-0.7598918714285714,0.2648325228571428,-0.9675303428571428,-0.3190586228571428,0.4280730242857142,-1.594529457142857
886,8.860000715,-0.8973948066666667,0.243001985,-0.9002303916666667,0.0156275073333333,0.8282070533333333,-1.0967762666666667
887,8.870000715,-0.9105104714285714,0.2919421314285714,-0.9395321714285716,0.1914787957142857,0.8535717685714286,-0.7393433542857143
888,8.880000715,-0.7885114999999999,0.3455537116666666,-0.94131509,0.3321991,0.6925989616666667,-0.4425588366666666
889,8.890000715,-0.5643404571428572,0.4148892071428571,-0.9353856142857142,0.5280774714285714,0.3053800048571428,-0.2859201542857143
890,8.900000715,-0.378489,0.46080217,-0.9752311285714284,0.687421342857143,-0.0520529057142857,-0.3464813
891,8.910000715,-0.2508682833333333,0.4619121366666667,-1.0665611833333333,0.7512403333333334,-0.2794626066666666,-0.5453848099999999
892,8.920000715,-0.1176375285714285,0.3810675371428571,-1.2505869,0.6809638285714286,-0.2742267942857143,-0.7728526928571429
893,8.930000715,-0.1015913,0.33672696,-1.2985513,0.5745019,-0.14507623,-0.94039935
894,8.940000715,-0.18043736,0.26471058,-1.3039175,0.3863608800000001,0.13224843,-1.1114366
895,8.950000715,-0.3604021433333333,0.1963884883333333,-1.273224666666667,0.1661250028666666,0.4566083333333333,-1.1151017166666666
896,8.960000715,-0.5538563742857142,0.20324792,-1.2500728428571428,-0.0590122077142857,0.6252894357142856,-0.9215503571428572
897,8.970000715,-0.5815365714285715,0.2264984199999999,-1.1994732857142856,-0.2600682214285714,0.6746808142857142,-0.6505087142857143
898,8.980000715,-0.4990637066666666,0.27829878,-1.0558136666666669,-0.4197029833333333,0.7235485766666666,-0.39633807
899,8.990000715,-0.28529104,0.3187163571428572,-0.8722417142857143,-0.5122608857142857,0.7670060114285714,-0.1215149727428571
900,9.000000715,-0.1265673436666666,0.3245819666666666,-0.7552626,-0.4799732166666666,0.7999044833333334,0.0021379651666666
901,9.010000715,0.0441663385714285,0.3084021342857143,-0.5667316971428571,-0.2715870668571428,0.7834115857142857,0.0277062858857142
902,9.020000715,0.10290234,0.30962172,-0.48027194,-0.056045234,0.7345438,0.0076355906
903,9.030000715,0.07387626,0.27961996,-0.48027194,0.2823205094285714,0.5764216514285714,-0.0227322442
904,9.040000715,0.0163554831428571,0.2438426285714285,-0.5723155914285714,0.630874342857143,0.3113139371428571,-0.0204633834285714
905,9.050000715,-0.0536921599999999,0.1787299366666666,-0.7863161666666666,0.9100605916666668,0.0304405556666666,0.0778830233333333
906,9.060000715,-0.0259117910571428,0.1593124299999999,-0.8692187857142857,0.9064537071428572,0.0736070948571428,0.1568568571428571
907,9.070000715,-0.0017988855833333,0.163429245,-0.9032793016666668,0.7968502649999999,0.2857747166666666,0.1750077483333333
908,9.080000715,-0.0309643499999999,0.1936654757142857,-0.9625387142857142,0.5968413914285715,0.6575770571428572,0.2081680242857143
909,9.090000715,-0.04521605,0.1702792423333333,-0.9772775616666666,0.3971525166666667,1.0145154333333333,0.2760011566666667
910,9.100000715,-0.0415573,0.117811754,-0.92541987,0.21898875,1.3331740999999997,0.35337514
911,9.110000715,-0.006250365,0.0288997695714285,-0.7466724814285713,0.1612854928571428,1.4679095428571427,0.4210919199999999
912,9.120000715,0.08363292,-0.049362637,-0.5356715,0.2495311,1.4089192,0.48531815
913,9.130000715,0.16074108,-0.047411304,-0.3697167,0.6306998,1.049741,0.46210596
914,9.140000715,0.1243931451428571,-0.015074921,-0.4984001214285714,1.1296747142857142,0.4254550977142856,0.3217855971428571
915,9.150000715,0.0615076563333333,-0.0086183893333333,-1.0264623,1.3747118,-0.102316916,0.2348707799999999
916,9.160000715,0.0316830321428571,0.03824265,-1.3219674,0.9706799314285712,0.0718618142857143,0.3975306857142857
917,9.170000715,0.09420265,0.0533059539999999,-1.5099864666666667,0.2604499979999999,0.755923525,0.7375980700000001
918,9.180000715,0.2200955928571428,0.0497197985714285,-1.4636394285714285,-0.2408701714285714,1.2103066285714286,0.9340290857142858
919,9.190000715,0.3557423,0.0449009946666666,-1.1632081666666665,-0.7120952166666666,1.5952275833333334,1.06562305
920,9.200000715,0.4679410714285714,0.0325193183428571,-0.7491073342857142,-0.9410756571428572,1.7745549142857142,1.1048917571428571
921,9.210000715,0.625666575,-0.0044159081666666,-0.3796816933333333,-0.848925,1.6960174,1.0839485
922,9.220000715,0.8233407,-0.03228847,-0.11104306,-0.15622419,1.14992,0.85915667
923,9.230000715,0.9949056,-0.05204572,-0.06198532,0.45844087,0.5781669,0.594049
924,9.240000715,0.6907008533333333,-0.0573712356666666,-0.69723072,1.4907727,-0.5763344,0.035734564
925,9.250000715,0.27442804,-0.0201536134285714,-1.4047858000000002,1.4488861142857143,-0.9142202071428572,-0.0087700221428571
926,9.260000715,0.0831349283333333,-0.014055698,-1.7147342,0.99985517,-0.838998705,0.1318412
927,9.270000715,0.0525988892857142,-0.0641457271428571,-1.6693047142857145,0.2784808928571428,-0.5515514242857142,0.3364459428571428
928,9.280000715,0.087459375,-0.1021655083333333,-1.43873225,-0.391400385,-0.14955577,0.5402943783333333
929,9.290000715,0.1570169971428571,-0.1591207814285714,-1.1132661942857145,-0.78714213,0.2486584685714285,0.6909118557142858
930,9.300000715,0.20345698,-0.21287827,-0.86392236,-0.94421715,0.5366293,0.78829837
931,9.310000715,0.2810747628571429,-0.27520771,-0.7335924514285714,-0.9320002071428573,0.6766005999999999,0.9230338714285714
932,9.320000715,0.67665535,-0.2790102,-0.56079495,-0.79272705,0.5635066,1.0204203
933,9.330000715,0.7752891416666667,-0.2684404666666666,-0.5567296166666666,-0.7173892166666667,0.43217445,0.9868237583333334
934,9.340000715,0.8740187357142857,-0.1413366488571428,-0.7202162428571428,-0.5387890857142857,-0.2127930057142857,0.7116806714285714
935,9.350000715,0.7101837333333333,-0.0971194873333333,-0.8156776666666666,-0.6611912433333335,-0.3291448533333333,0.6693868
936,9.360000715,0.5989199714285715,-0.0939688928571428,-0.7858472571428571,-0.8274580357142858,-0.149963,0.8067983428571429
937,9.370000715,0.6028451116666667,-0.134428575,-0.6302298666666667,-0.916321775,0.1593293283333333,1.00596365
938,9.380000715,0.6963951642857144,-0.1725666871428571,-0.3833804,-0.8075618714285715,0.5074831942857143,1.2127499857142858
939,9.390000715,0.7804200942857143,-0.1673747457142857,-0.2669668142857143,-0.4319780857142857,0.6156904142857142,1.3607495571428572
940,9.400000715,0.850095295,-0.1367407066666666,-0.2571339066666667,-0.061313795,0.5103628666666666,1.3969059
941,9.410000715,0.91840726,-0.1189790637142857,-0.3768904485714285,0.3518043971428571,0.3849646714285714,1.4122352714285715
942,9.420000715,1.089088,-0.122324206,-0.6440315,0.7162184000000001,0.3839175000000001,1.3881505
943,9.430000715,1.1240986857142856,-0.106234422,-0.7574701571428571,0.8300105371428571,0.4226626628571429,1.273660157142857
944,9.440000715,1.0992359,-0.0485444970833333,-0.9158512,0.95322716,0.4276949016666667,1.08598465
945,9.450000715,1.033749385714286,0.0011586041428571,-1.0853943,0.9092461542857144,0.3500591142857143,0.95497244
946,9.460000715,1.015882457142857,0.0120303182857142,-1.1777865,0.7392560857142857,0.2907196714285714,0.8165718857142857
947,9.470000715,0.982379465,0.0137609653333333,-1.181735633333333,0.5529185933333333,0.2841458,0.6846579999999999
948,9.480000715,0.9299932914285716,0.0109806065714285,-1.147675842857143,0.37170056,0.3167243,0.5879405
949,9.490000715,0.9042905666666666,-0.0392909106666666,-1.0637104666666668,0.0852640933333333,0.3647776233333333,0.41079478
950,9.500000715,0.8516916714285714,-0.1162350057142857,-0.9420105514285714,-0.0666914314285714,0.4116674185714286,0.2973517142857143
951,9.510000715,0.8343562200000001,-0.1658764057142857,-0.8037358971428572,-0.1326629321428571,0.4306909457142857,0.2422009428571428
952,9.520000715,0.87995994,-0.17089412,-0.6550077,-0.093917765,0.36681378,0.1835596
953,9.530000715,0.9675433571428572,-0.2292206928571428,-0.6970223885714285,0.21626174,0.1106069862857142,-0.0344256057142857
954,9.540000715,0.8937919666666666,-0.2223097166666666,-0.8697763733333334,0.2959554866666666,0.0202597663333333,-0.12512188
955,9.550000715,0.7787214,-0.2038098071428571,-1.0240101428571429,0.2281950885714285,-0.0124351048857142,-0.1330338085714285
956,9.560000715,0.6963617683333334,-0.1639424916666666,-1.1162948166666666,0.062866365,0.0070247438333333,-0.0691275466666666
957,9.570000715,0.7025105328571428,-0.1432269985714285,-1.1013708714285717,-0.1583185257142857,0.0737816237142857,0.0385270085714285
958,9.580000715,0.85366915,-0.1391152642857142,-0.9773392257142858,-0.3541386828571428,0.1209041185714285,0.1338191799999999
959,9.590000715,1.0726794666666668,-0.1641914916666666,-0.83187274,-0.3628941583333333,0.0976337503333333,0.103335
960,9.600000715,1.2272363,-0.20507295,-0.70333374,-0.21120045,0.016187452,-0.0839915
961,9.610000715,1.2819041,-0.22995245,-0.6852839,-0.035276428,-0.0131332159999999,-0.25747213
962,9.620000715,1.2167478,-0.23800169,-0.70943165,0.18951537,-0.02779355,-0.46882528
963,9.630000715,1.0053941,-0.20360945,-0.83023137,0.44744563,-0.108425386,-0.633754
964,9.640000715,0.9451161428571428,-0.1784076185714285,-1.0558325714285717,0.4561720157142857,-0.067236828,-0.5510278514285715
965,9.650000715,0.9464577166666668,-0.1492210973333333,-1.1900796166666667,0.274321322,-0.0273863191666666,-0.43828291
966,9.660000715,0.9209248171428572,-0.1188135585714285,-1.2326067571428572,-0.0366726528571428,0.0477769803571428,-0.3712642471428571
967,9.670000715,0.9645205714285716,-0.1740476114285714,-1.04344068,-0.3714169428571429,0.2165453514285714,-0.3358351028571428
968,9.680000715,1.1936266,-0.2708084766666667,-0.6989432366666666,-0.48852508,0.3436015866666667,-0.35317152
969,9.690000715,1.4595973428571427,-0.32799823,-0.4462455671428572,-0.2968935792857143,0.2500546868571429,-0.5320043257142857
970,9.700000715,1.5737808666666666,-0.3270465283333333,-0.4209239449999999,0.04823148375,0.0282007849999999,-0.8499939666666666
971,9.710000715,1.5493892,-0.27437577,-0.62817687,0.35581854,-0.24769856,-1.1615261
972,9.720000715,1.4307543,-0.24925235,-1.1338161,0.3497100499999999,-0.53724015,-1.4987137
973,9.730000715,1.2153148142857142,-0.2272040185714285,-1.3214665,-0.1706663685714285,-0.3686463199999999,-1.6692274142857144
974,9.740000715,0.912000082857143,-0.2097770471428571,-1.1458595571428571,-0.8489250142857143,-0.07421794,-1.8353778857142855
975,9.750000715,0.6913461999999999,-0.2473975649999999,-0.7558825833333334,-1.1299148,0.04795151,-1.8310146000000005
976,9.760000715,0.5002600071428571,-0.2936800342857142,-0.3688194142857143,-1.0742403857142857,0.0631354285714285,-1.6105860285714286
977,9.770000715,0.34084305,-0.2894986,-0.1232389,-0.7951704,0.05650337,-1.2592616
978,9.780000715,0.4135476457142857,-0.2622147614285714,0.055717535,0.0316113464285714,-0.10982161,-0.5433486442857143
979,9.790000715,0.6860257666666666,-0.25421197,0.0580572501666666,0.5091411833333334,-0.3281267833333333,-0.292494015
980,9.800000715,0.8951219571428571,-0.2402579114285714,-0.155923732,1.1685943857142858,-0.768314957142857,-0.1092980242857143
981,9.810000715,0.9304723942857144,-0.1562373414285714,-0.6484873142857143,1.3773296571428573,-0.9979935285714286,-0.1386186971428571
982,9.820000715,0.8520619166666666,-0.0808532963333333,-1.0943727833333334,1.1220246116666666,-0.96707305,-0.2639878216666667
983,9.830000715,0.7365369071428571,-0.0395362791428571,-1.3024191857142855,0.589489430142857,-0.6958859085714286,-0.3972688757142857
984,9.840000715,0.6632907333333333,-0.0196861083333333,-1.2359562333333332,-0.0580813941666666,-0.1713426533333333,-0.4629204183333333
985,9.850000715,0.7773493642857143,-0.0077487105714285,-0.8068414771428571,-0.4895722571428571,0.2254462657142857,-0.5670844285714286
986,9.860000715,0.7326799450000001,0.0434832275,-0.4602555066666666,-0.4528923199999999,0.2259116656666666,-0.6763097333333333
987,9.870000715,0.61125517,0.084364675,-0.31626844,-0.19531842,0.040621344,-0.6203154
988,9.880000715,0.7054201000000001,0.0845476185714285,-0.4388148,0.3633232157142857,-0.2412410357142857,-0.2389721571428571
989,9.890000715,0.7901376,0.11976309,-0.61156005,0.75164753,-0.3747548,-0.0827698
990,9.900000715,0.7445338971428571,0.1591556242857143,-0.6969831785714286,0.7855059328571429,-0.3688208571428571,-0.1134866914285714
991,9.910000715,0.4854602183333333,0.2840917866666667,-1.0464685833333334,0.7555162333333333,-0.3348461,-0.2983988666666666
992,9.920000715,0.24202631,0.29059622,-1.1269865,0.4083514,-0.3735331,-0.5091412
993,9.930000715,0.03018469,0.2354304,-0.9400548333333332,0.1094943721666666,-0.4120164883333333,-0.6188900766666666
994,9.940000715,-0.08780129,0.1481401742857142,-0.7575877742857143,-0.0094463166285714,-0.48941955,-0.5789522942857143
995,9.950000715,-0.1379653585714285,0.0688237014285714,-0.6422805,0.0432610744999999,-0.52257985,-0.3798161
996,9.960000715,-0.1203068133333333,0.0542003183333333,-0.5918028483333334,0.1657177666666666,-0.5317425583333333,-0.097837375
997,9.970000715,0.0771778499999999,0.1062213528571428,-0.6051703342857143,0.3601817142857143,-0.5632448214285715,0.23853586
998,9.980000715,0.3119476642857143,0.2297128785714285,-0.9676740142857144,0.61953002,-0.4885469357142857,0.2158472388571428
999,9.990000715,0.2440488066666667,0.2978730616666666,-1.25763945,0.59771407,-0.5164714,0.030847786
