id,timestamp,acc_x,acc_y,acc_z,gyro_x,gyro_y,gyro_z
0,2.38e-07,-0.2189762,0.43383628,0.82611525,0.5512897,0.5132644,0.7589777
1,0.010000238,-0.1779982057142857,0.4637596171428572,0.7750757271428571,0.4107948,-0.036498122,0.6685723
2,0.020000238,-0.2016276157142857,0.3955413657142856,0.75728722,0.35808738,-0.5586852228571428,0.5961432814285714
3,0.030000238,-0.2161972842857142,0.40052423,1.0741654971428571,0.5109737142857143,-0.8754532042857142,0.7191853542857143
4,0.040000238,-0.1351733963714285,0.4042875128571428,1.0802285714285715,0.6645581514285714,-0.9585284214285714,0.7453645257142857
5,0.050000238,0.0189993660714285,0.4332439157142857,0.9232637971428572,0.7657843214285716,-0.7368781385714286,0.5957942285714285
6,0.060000238,0.0520326525714285,0.4206647871428571,0.7491203514285714,0.6293036085714286,-0.1672194328571428,0.36733736
7,0.070000238,-0.0205804699999999,0.386257295,0.6169566999999999,0.32710871,0.3465031,0.29412295
8,0.080000238,-0.1569995757142857,0.3902623257142857,0.5727903714285715,0.0289279771428571,0.7870985028571429,0.3661156628571428
9,0.090000238,-0.2545829333333333,0.4064363333333333,0.645845605,-0.1794872883333333,1.1328671666666663,0.4834856
10,0.100000238,-0.2963500442857142,0.4438107142857143,1.0432403357142856,-0.2798116814285714,1.3855543714285716,0.6706666571428571
11,0.110000238,-0.2116383783333333,0.4696412,1.4333356666666666,-0.0811408816666666,1.2306027383333331,0.7121461
12,0.120000238,-0.0845650411428571,0.5142111885714286,1.625813542857143,0.2046992728571428,0.7064666628571429,0.6427422328571428
13,0.130000238,0.0686320492857142,0.6253544285714286,1.7727908142857145,1.0010259214285715,-1.6095606714285715,0.4141108071428571
14,0.140000238,0.161564296,0.5638438866666667,1.3767571666666667,1.4876675666666668,-3.733905666666667,0.4507034666666666
15,0.150000238,0.0085937071428571,0.4770008428571429,1.0852419,1.9408580142857144,-4.580831085714286,0.5263321742857142
16,0.160000238,0.06222924,0.2813070566666666,0.6735759099999999,2.0553483,-4.72979015,0.2495311
17,0.170000238,0.1621436028571428,0.2257013271428571,0.3830275814285714,1.8127547142857143,-4.271916442857143,-0.0321567457142857
18,0.180000238,0.1914949093333333,0.2816322966666666,0.2659403233333333,1.4330986,-3.3437778,-0.1617727133333333
19,0.190000238,0.0244178028571428,0.3290043785714286,0.1763909614285714,0.9048175142857142,-1.7195785485714288,-0.1878355285714285
20,0.200000238,-0.0599425214285714,0.3725565642857143,0.2775031157142857,0.3778090457142857,-0.2049174442857143,-0.23687783
21,0.210000238,-0.0503383,0.43651935,0.36901543,0.17989452,0.13331741,-0.23792501
22,0.220000238,-0.1236309042857142,0.50552166,0.3510178714285714,-0.3672500971428571,-0.1085781,-0.1190715814285714
23,0.230000238,-0.1436567466666666,0.4931385333333333,0.3136158666666666,-0.66673976,-0.29509013,-0.029015242
24,0.240000238,-0.1582452885714285,0.4640688857142857,0.30566244,-0.8936258857142858,-0.4464638928571429,0.0868712099999999
25,0.250000238,-0.1743191233333333,0.4319662466666666,0.28130706,-1.1208029,-0.5805594,0.2096224266666666
26,0.260000238,-0.2277397757142857,0.4273202371428571,0.3083411485714286,-1.325931214285714,-0.4784024771428571,0.3364459514285714
27,0.270000238,-0.2988719671428571,0.4148412999999999,0.40854736,-1.4782940714285713,-0.2522144725985714,0.5315898328571429
28,0.280000238,-0.4041292533333333,0.3454876333333334,0.7519951333333333,-1.5492104666666666,-0.08332974546,1.1374484666666669
29,0.290000238,-0.4365324228571429,0.2592398485714285,1.0452265714285711,-1.4498459714285714,-0.3253416142857143,1.8431225
30,0.300000238,-0.349227688,0.2264918766666666,1.0897689,-1.2486735266666666,-0.5280265666666667,2.1852551666666664
31,0.310000238,0.1193667231428571,0.20582647,1.0688211285714284,-0.6904755435714287,-0.5838172828571428,2.4604271428571427
32,0.320000238,0.65153193,0.19662733,1.2702875,0.105371155,-0.46653458,1.936844
33,0.330000238,0.7188877371428573,0.2873773857142857,1.2608269857142855,0.7459317571428572,-1.0695717285714286,0.9650295571428572
34,0.340000238,0.4796142171428571,0.3549858714285714,1.1218641857142857,1.2708459428571428,-1.5307832285714285,0.4217900314285714
35,0.350000238,0.229571325,0.411502665,0.9414269,1.5772585666666668,-1.8643058,0.2483094166666666
36,0.360000238,0.1083904685714285,0.4761993914285715,0.7619957142857142,1.7481793714285716,-2.1243521571428574,0.2575593828571428
37,0.370000238,0.128909955,0.568676505,0.5640115849999999,1.7014641,-2.1518112666666664,0.3753656333333333
38,0.380000238,0.2410462928571428,0.6469280142857142,0.4015826614285714,1.3455437714285716,-1.8859473142857144,0.5631575428571429
39,0.390000238,0.3187686083333333,0.6940039116666666,0.3417628416666666,0.96821835,-1.6602828333333337,0.6797966500000001
40,0.400000238,0.3399240242857143,0.7245370742857143,0.5060530857142856,0.6453601000000001,-1.7396930000000002,0.8092198999999999
41,0.410000238,0.6494063671428572,0.8204442285714286,0.5472967142857144,0.35215345,-1.7189242,0.84587073
42,0.420000238,0.9905151,0.7285791333333332,0.9002964666666666,-0.0762540986666666,-0.9307785,0.3374931066666666
43,0.430000238,0.9860374657142856,0.7311924857142857,1.2119784285714286,-0.0117369971428571,-0.8449108457142857,-0.0579868542857142
44,0.440000238,0.8068611149999999,0.78111263,1.43293415,0.3399365199999999,-1.00782162,-0.33016294
45,0.450000238,0.6178496571428571,0.8161495514285715,1.3923024714285714,0.8075837342857143,-1.222392657142857,-0.4361885914285714
46,0.460000238,0.5091717,0.8715926757142858,1.1874124785714284,1.1238935342857144,-1.281033957142857,-0.34508508
47,0.470000238,0.5016364142857143,0.9569460785714284,0.8218249414285715,1.162595071428571,-1.0753965485714283,-0.1443781068571428
48,0.480000238,0.6307772257142857,1.0646004714285715,0.3530040357142857,0.581832,-0.3544877442857143,0.0353855105714285
49,0.490000238,0.67324555,1.0930210666666669,0.2539070883333333,0.1717498933333333,0.0504458,0.0503949003333333
50,0.500000238,0.6964431000000001,1.1052169,0.26041153,-0.11942064,0.27747735,0.038177952
51,0.510000238,0.7139963485714286,1.1268906571428572,0.6242612,-0.965356842857143,0.4031373677142857,-0.2098260342857142
52,0.520000238,0.5529199157142857,1.071369142857143,0.9841514857142856,-1.145120414285714,-0.0433047042857142,-0.4597498142857143
53,0.530000238,0.367323265,1.01540985,1.19485625,-1.05462775,-0.7237012500000001,-0.578166925
54,0.540000238,0.21711633,0.9901492,1.3178513,-0.78829835,-1.19351915,-0.5335750850000001
55,0.550000238,0.16229605,0.9643245133333332,1.3880586666666666,-0.530724445,-1.425310283333333,-0.4517215566666666
56,0.560000238,0.2352619771428571,0.8946471228571429,1.3663906714285716,0.1442908442857143,-1.6384669285714286,-0.2393212342857143
57,0.570000238,0.3057647766666667,0.83669516,1.2536351,0.6170829750000001,-1.5939041333333333,-0.1572931716666666
58,0.580000238,0.3384212985714286,0.7652929057142857,0.9388222142857144,1.3982511714285717,-1.3585243142857144,-0.1707318142857143
59,0.590000238,0.3112834033333333,0.7518020083333333,0.8115056833333333,1.5943623,-1.2923492166666666,-0.2059573366666666
60,0.600000238,0.24397767,0.73452455,0.6860156,1.6778448,-1.2546803,-0.21104772
61,0.610000238,0.13342242,0.6376287,0.45027018,1.8427734,-1.2143644,-0.18783553
62,0.620000238,0.0519106954285714,0.5219424428571429,0.4357658628571428,1.8710469714285711,-1.3770242,-0.2492693042857143
63,0.630000238,-0.1117051248571428,0.3840162971428572,0.5376489742857142,1.9797778285714287,-1.7690136142857142,-0.3035474428571428
64,0.640000238,-0.23395674,0.3081480533333333,0.6262458999999999,2.2182410000000004,-2.070772266666667,-0.2737613633333333
65,0.650000238,-0.2980923014285714,0.2624804528571428,0.6629916385714286,2.559559085714286,-2.239017142857143,-0.1942930561428571
66,0.660000238,-0.12370931,0.2477061128571428,0.3661537757142857,3.087854628571429,-1.9562819714285715,-0.0256992177142857
67,0.670000238,0.0642763988571428,0.2204788971428571,0.19807776,3.152429942857143,-1.5677830857142858,-0.0096426608571428
68,0.680000238,0.0857824433333333,0.2242763033333333,0.1908241483333333,3.0628390833333334,-1.430604233333333,-0.0658696975
69,0.690000238,0.0437394865714285,0.2682386542857143,0.21588367,2.931128857142857,-1.4175147285714285,-0.1656705028571428
70,0.700000238,0.042868353,0.30084074,0.2089146199999999,2.812799,-1.4489297,-0.281906
71,0.710000238,0.0343617591428571,0.2903131085714285,0.1482490585714286,2.6267523285714285,-0.998080822857143,-0.5231034285714286
72,0.720000238,-0.0290217285714285,0.2468001142857142,0.0825657945714285,2.522559128571429,-0.6190718999999999,-0.63061255
73,0.730000238,-0.1622503175,0.2941330299999999,-0.109564327,2.20806015,0.1382041899999999,-0.751647525
74,0.740000238,-0.3027092914285714,0.3855930657142857,-0.33988047,1.7495755714285717,0.8583058571428571,-0.6758152142857143
75,0.750000238,-0.3867298742857142,0.4585546128571428,-0.4166575928571429,1.0444397285714286,1.6360017142857142,-0.41123111
76,0.760000238,-0.0569393049999999,0.63017395,-0.110661941,0.0666841533333333,2.551865333333333,-0.0025451966666666
77,0.770000238,0.2306624042857143,0.6617154357142857,0.1249724485714285,-0.3899387157142857,3.0613701142857144,0.0055412571428571
78,0.780000238,0.3561313985714286,0.725896,0.5775729,-0.5346222371428572,3.2126858,-0.1449016942857142
79,0.790000238,0.3273819,0.8382348566666665,0.8863474833333332,-0.51891476,3.165563,-0.29778802
80,0.800000238,0.25275865,0.97002614,1.1155529,-0.28068432,2.9334412,-0.60932016
81,0.810000238,0.08338901,1.2052838,0.8739534000000001,0.014965758,2.9578753,-0.87809294
82,0.820000238,-0.2384387066666666,1.7700016333333333,0.5783264333333333,-0.040010497,3.4245625,-0.7950177000000002
83,0.830000238,-0.3210335428571428,1.9621701857142857,0.4737123314285714,-0.7840224428571428,3.998409800000001,-0.2009251228571428
84,0.840000238,-0.0233332414285714,1.957779728571429,0.8863147914285714,-1.577425771428571,4.206097971428571,0.3500591071428571
85,0.850000238,0.5552051466666666,1.9578479666666668,1.5644307333333334,-1.7723733,3.98776365,0.485929
86,0.860000238,1.2094303,1.9947809,2.2303436,-1.6941849,3.7825189,0.43767205
87,0.870000238,1.4613526714285714,1.9593129142857144,2.6226399285714286,-0.7990318571428572,3.338345728571429,-0.0876565928571428
88,0.880000238,1.5022827166666666,1.90055815,2.7089690999999996,0.2702999083333333,2.8752071166666666,-0.7249739100000001
89,0.890000238,1.0521476714285714,1.755490142857143,2.1063380285714284,0.8176626857142857,2.8428612857142856,-1.0002623857142858
90,0.900000238,0.5364468099999999,1.6095539142857145,1.4761139428571428,1.2392564,2.985974,-1.1590827
91,0.910000238,0.1424371683333333,1.4507859,1.2453673333333333,1.2997303,3.3139992,-0.675291645
92,0.920000238,-0.0001524469999999,1.2843389,1.2054143714285712,1.3616004142857143,3.3105958285714285,-0.237750482
93,0.930000238,0.1009597217142857,1.0503313428571428,1.2277981142857144,1.5249583857142857,3.2795297999999997,0.2362669871428571
94,0.940000238,0.17906532,0.9612146,1.2639152,1.7780235999999998,3.3170533,0.6917845
95,0.950000238,0.17906532,0.9612146,1.2639152,1.7780235999999998,3.3170533,0.6917845
96,0.960000238,0.5746807171428571,0.6061024257142857,1.0594564142857144,2.9763314428571426,2.389089057142858,1.0382003357142855
97,0.970000238,0.62813116,0.4429983883333333,0.7662692999999999,3.2898705666666666,2.03569935,0.9857547416666668
98,0.980000238,0.6484306857142856,0.2815538742857143,0.5515652714285714,3.4297546999999997,1.845784,0.8992544085714286
99,0.990000238,0.65177584,0.08534034,0.3187381,3.5543675,1.6531054,0.65513366
100,1.000000238,0.4112231866666667,0.0279182933333333,0.2851284266666666,3.6384608333333337,0.8590039583333334,0.5178966666666667
101,1.010000238,-0.0189122545714285,-0.1684201042857142,0.2606162528571428,3.841291228571429,0.4068024902857142,0.6275583100000001
102,1.020000238,0.0991129234285714,-0.2077168257142857,0.0490620958571428,3.8814325571428574,-0.3092850717142857,0.8274798800000001
103,1.030000238,0.1940662,-0.3272497833333333,-0.0806093775,3.8500175,-0.5825956,0.8825215700000001
104,1.040000238,0.2059658542857143,-0.5297913542857142,-0.4063695271428571,3.3358587428571433,-0.9866274,1.1062662
105,1.050000238,0.2056522499999999,-0.476094855,-0.393879685,2.9651035333333335,-1.0346734333333334,1.1545522
106,1.060000238,0.2335415,-0.4967885785714285,-0.3346841657142856,2.5443751857142862,-1.1661947,1.184978257142857
107,1.070000238,0.2822812657142857,-0.54398645,-0.2747939142857142,2.2885175,-1.2761472142857144,1.1689217428571428
108,1.080000238,0.3292621,-0.5883320833333333,-0.23790005,2.088944816666667,-1.40820655,1.1181050166666666
109,1.090000238,0.3506302,-0.627994,-0.2303793,1.9331789,-1.5405567999999998,1.0560021
110,1.100000238,0.3893084114285714,-0.6012328,-0.2673849342857143,1.7891934,-1.6618535857142855,0.9809552428571428
111,1.110000238,0.2704687457142857,-0.566013,-0.3699867342857142,1.4719018857142856,-1.7993815285714283,0.8786819714285715
112,1.120000238,0.2417344814285714,-0.5354711285714286,-0.5529895785714285,0.8076055057142858,-1.6777356857142858,0.9455261071428572
113,1.130000238,0.2866020857142857,-0.5223170428571429,-0.6105103571428572,0.0561543114285714,-1.4587032714285717,1.0519880857142858
114,1.140000238,0.3870086314285714,-0.4989010999999999,-0.5159708857142857,-0.9088098571428572,-1.063855897142857,1.1629877857142858
115,1.150000238,0.3892387285714285,-0.4636202771428572,-0.4297986,-1.386666971428571,-0.7565997771428571,1.2221526285714286
116,1.160000238,0.38819337,-0.4547216599999999,-0.4065786,-1.62353025,-0.5752654333333334,1.2653191
117,1.170000238,0.3533742771428571,-0.4289623285714286,-0.3769645085714286,-1.8818022428571428,-0.3715914848571428,1.3420531857142854
118,1.180000238,0.2945947128571428,-0.3909897142857143,-0.3694422885714286,-2.3991027,-0.065818794,1.5336847
119,1.190000238,0.20443267,-0.348313,-0.39121184,-2.6471066,-0.15622419,1.6558542
120,1.200000238,-0.1785164966666666,-0.1266537333333333,-0.3283525066666666,-3.1406712999999997,-0.8733588500000001,2.124985
121,1.210000238,-0.3011935342857143,0.13485543,-0.42654494,-3.648023428571429,-1.641390185714286,2.939855228571429
122,1.220000238,0.0389090571428571,0.3588144857142857,-0.4772796,-4.612529485714285,-2.643921471428572,4.1976768714285715
123,1.230000238,1.05859835,0.66567908,-0.20766455,-5.357792333333333,-3.0925160666666667,4.898638533333333
124,1.240000238,2.1681012857142856,0.9109590771428572,0.128984,-6.2100696,-3.2870564000000004,5.261423700000001
125,1.250000238,3.420561,1.0553055,0.6024262800000001,-6.854949657142858,-3.0936796285714285,4.859660571428571
126,1.260000238,3.7210488,1.1251615285714285,1.0145060657142857,-7.259505142857143,-2.643747,3.938851971428571
127,1.270000238,3.3653283000000003,1.2169816333333332,1.471844,-7.463586500000001,-2.0567228833333333,2.7590444166666668
128,1.280000238,2.596575642857143,1.2694207857142856,1.8692946571428573,-7.318321142857143,-1.7416128714285717,2.156400042857143
129,1.290000238,1.9888965,1.236993,2.1039338,-6.947624,-1.5185663,1.8391083
130,1.300000238,1.1519226142857144,1.2767687285714284,2.698877,-5.154285585714286,-1.5950094714285714,1.9705277999999995
131,1.310000238,1.1525571166666666,1.28604555,2.696066833333333,-3.6692578333333334,-1.8003705,2.0227697666666664
132,1.320000238,1.2949056714285714,1.1447880142857143,2.344914742857142,-2.152320242857143,-1.9468574857142855,1.885358257142857
133,1.330000238,1.1896033857142856,1.0725364142857143,2.0149651428571427,-0.7958903342857143,-2.000612057142857,1.7115285999999998
134,1.340000238,1.1490508,1.0495632666666666,1.6874257,-0.0013235066666666,-1.9600052666666663,1.6033213666666668
135,1.350000238,1.2139558428571429,0.98018785,0.9903234571428572,0.7066193857142858,-1.7149100428571429,1.3994729142857143
136,1.360000238,1.2806387499999998,0.9418587916666666,0.4570388516666666,0.7634572616666667,-1.4297643616666666,1.2199128833333333
137,1.370000238,1.2392187285714285,0.8817021785714285,-0.2515216485714285,0.4373229842857143,-0.7785902757142857,0.8680139285714287
138,1.380000238,1.1823251,0.8672762500000001,-0.5029562,-0.18783553,-0.08536591,0.5830537
139,1.390000238,1.229601414285714,0.8593315471428572,-0.5995994,-1.4098790757142858,0.97855547,0.1024041794285714
140,1.400000238,1.2398197285714283,0.63024584,-0.5244818142857143,-2.625465114285714,1.9450904142857144,-0.6098436962857142
141,1.410000238,1.0398015,0.4782748699999999,-0.198761592,-3.5438303999999996,2.72941825,-1.3447802
142,1.420000238,0.8923691428571429,0.3957765942857142,0.1502396034285714,-3.8258673,2.9837051999999997,-1.7296139714285714
143,1.430000238,0.740363325,0.2861904799999999,0.51153901,-3.77778495,2.9456582,-2.0692451000000003
144,1.440000238,0.6568545285714286,0.2369693928571428,0.6948489285714287,-3.571056785714286,2.800974657142857,-2.2146268142857144
145,1.450000238,0.5455247333333333,0.1665391891666666,0.9639434166666666,-2.9097710333333335,2.371258033333333,-2.3174526833333333
146,1.460000238,0.4860911057142857,0.1127243475714285,1.244894,-2.131900614285714,1.7190768571428572,-2.375715857142857
147,1.470000238,0.4151069728571429,0.1137697042857142,1.4108095857142855,-1.267289917142857,0.8560369657142857,-2.4228382999999996
148,1.480000238,0.3484502133333333,0.1138277758333333,1.377199216666667,0.1848321866666666,-0.62418406,-2.3518636666666666
149,1.490000238,0.39258388,0.109762505,1.1333588,1.2062706,-1.5845377,-2.2622728
150,1.500000238,0.442251415,0.0707053425,0.5320280000000001,2.0584025,-1.9705933,-2.2225676
151,1.510000238,0.4191316057142857,0.1116267185714285,0.2316075828571428,2.211725128571429,-1.861687914285714,-2.1936832857142856
152,1.520000238,0.4285158666666667,0.1672912583333333,0.0649682183333333,2.1748707166666668,-1.5800581666666669,-2.1352165833333334
153,1.530000238,0.6688848357142857,0.2842326014285714,-0.0539578514285714,1.928990142857143,-1.109080474285714,-2.0804149428571432
154,1.540000238,0.97500025,0.4013822928571429,-0.0001219585714285,1.5226895142857142,-0.7850478228571428,-2.268381185714286
155,1.550000238,1.1910349333333332,0.5112086666666666,0.0956864766666666,1.088987975,-0.9002361200000001,-2.63672205
156,1.560000238,1.072113902857143,0.6480865571428571,0.1838913914285714,0.8406130942857144,-1.099568642857143,-2.757931657142857
157,1.570000238,0.9362436,0.8176543883333333,0.4505191833333333,0.4914266033333334,-1.5305796166666663,-2.5322674166666665
158,1.580000238,1.1880483714285714,0.8656689328571429,1.1315121,0.2226538199999999,-2.2503612,-1.9275285
159,1.590000238,1.9652583714285712,0.7803155857142857,1.5134724428571429,0.6344085,-2.7985531,-1.6076190857142856
160,1.600000238,2.563869066666667,0.6662584333333333,1.4456534,1.15373775,-2.5301293,-1.99227835
161,1.610000238,2.8874157714285715,0.6846915257142857,1.0683070642857142,1.3054023714285716,-1.7111795285714284,-2.604347371428571
162,1.620000238,2.724955733333333,0.91657784,0.7293921333333334,1.1141853333333334,-0.7043578073333333,-3.092618
163,1.630000238,2.3620237714285715,1.2166780714285714,0.5493308571428572,0.6907373457142857,0.0329639354285714,-3.2144965428571424
164,1.640000238,2.0353524666666667,1.6348717666666666,0.8020996333333333,0.0247393133333333,0.1072545933333333,-2.7900447666666666
165,1.650000238,2.0867768,1.7127872,1.4801473,0.1074654928571428,-0.9233393028571428,-2.5369795285714285
166,1.660000238,2.1779625,1.6269953666666666,1.9142274666666663,0.5885768016666667,-1.8248044666666663,-2.6780561499999997
167,1.670000238,2.1088294142857142,1.5383257999999995,1.7420788571428572,1.1115020514285714,-2.3465261714285712,-3.017803614285714
168,1.680000238,1.7484512571428572,1.3038782999999998,0.824873957142857,1.9082214571428573,-2.7646946285714287,-3.8825889142857144
169,1.690000238,1.471275,1.2086985,0.2303792999999999,1.8317782,-2.471488,-4.390465
170,1.700000238,1.194568857142857,1.0449738528571428,-0.0987949628571428,1.2694060571428571,-1.7852011257142857,-4.766485
171,1.710000238,0.406380435,0.597229975,-0.234022815,0.172564357,-0.5526640700000001,-5.2500795
172,1.720000238,0.0361780785714285,0.4243279,0.1206516357142857,-0.1265762757142857,-0.3262142514285714,-5.211770571428572
173,1.730000238,-0.32472712,0.2246341942857143,0.6646293571428572,-0.0372180514285714,-0.6219079571428571,-4.905299857142857
174,1.740000238,-0.49838275,0.034214395,1.0074419083333332,0.4289420416666666,-1.2591598,-4.499119233333333
175,1.750000238,-0.6187338000000001,-0.2304577085714285,1.0185480885714286,1.3802749142857142,-2.340592214285714,-3.8133014
176,1.760000238,-0.6649016166666667,-0.341244525,0.7929070666666665,2.200526416666667,-3.2285314166666663,-3.117866333333333
177,1.770000238,-0.7004982,-0.4010295,0.4256346,2.492715,-3.5930034999999996,-2.625116
178,1.780000238,-0.7015144750000001,-0.4075339333333334,0.1602227583333333,2.484163,-3.7127297,-2.0032735
179,1.790000238,-0.61428239,-0.4210568114285714,-0.0771473614285714,2.028296542857143,-3.361230757142857,-1.075483842857143
180,1.800000238,-0.52177844,-0.4210611666666666,-0.08378538,1.6515783,-2.8966378,-0.4272876599999999
181,1.810000238,-0.3042773342857143,-0.4629364142857143,0.0239648107142857,1.390048414285714,-2.3700873714285713,0.0284043871428571
182,1.820000238,-0.1220106015714285,-0.5582860571428572,0.1224984314285714,1.2266904142857142,-1.8287021142857145,0.35826191
183,1.830000238,-0.0480820746666666,-0.6022200866666667,0.1809353533333333,1.1708415,-1.4709202,0.5358148666666667
184,1.840000238,-0.0455383728571428,-0.6205806542857143,0.1096884618571428,1.1481529,-1.3012792285714287,0.65426106
185,1.850000238,-0.0835871966666666,-0.6546520333333333,-0.03005256625,1.0529225666666668,-1.3137288833333334,0.71072075
186,1.860000238,-0.1474084228571428,-0.6584094714285715,-0.1489241928571428,0.8368171428571428,-1.3649818285714286,0.7825607428571429
187,1.870000238,-0.1583730566666666,-0.6631078083333334,-0.20860973,0.6954496,-1.403727,0.828767
188,1.880000238,-0.13479444,-0.68973535,-0.27797353,0.065055236,-1.5564388,1.0279032
189,1.890000238,-0.0687932117142857,-0.69109432,-0.2283844042857143,-0.3410709297142857,-1.536891714285714,1.2198837714285713
190,1.900000238,-0.03765464,-0.6885157999999999,-0.1703453,-0.70216894,-1.4770287,1.4396143
191,1.910000238,0.0516275767142857,-0.6227497542857143,-0.1217057071428571,-0.8864702685714285,-1.1984386885714289,1.7987925
192,1.920000238,0.1260439391666666,-0.5646416783333333,-0.15243776,-0.995986425,-0.8481105050000001,2.1300753833333332
193,1.930000238,0.22345816,-0.45886827,-0.22037871,-1.0967762,-0.50196373,2.3754323
194,1.940000238,0.7482448333333332,-0.1111243716666666,-0.2240272833333333,-1.2975413333333334,-0.2690273133333333,2.447105066666667
195,1.950000238,1.0027806285714287,0.1256083714285714,-0.2495746614285714,-1.3578698,-0.7447973485714287,2.1563999285714286
196,1.960000238,0.9135246028571428,0.3445235771428571,-0.3544849742857143,-1.4196526857142855,-1.3881940285714285,1.8811695428571429
197,1.970000238,0.77964914,0.4724055999999999,-0.43243378,-1.4657279999999997,-1.6883818,1.8036792
198,1.980000238,0.5468394014285715,0.6568284142857143,-0.5710568028571429,-2.0870469714285713,-3.075528714285714,2.1230650285714288
199,1.990000238,0.63470167,0.6398239,-0.5466477,-2.594981066666667,-3.584044616666666,2.5660165833333335
200,2.000000238,1.0021577642857142,0.7183650857142857,-0.5028385714285715,-3.2300294571428574,-3.2507545428571425,3.048062271428571
201,2.010000238,1.3643071666666666,0.9848948666666668,-0.4089364566666666,-3.793056,-2.5089533,3.324688866666667
202,2.020000238,1.758221,1.2157939714285713,-0.22218631,-4.345458171428572,-1.5503085214285712,3.4541885428571426
203,2.030000238,1.9036579,1.4511924333333333,0.2888075,-4.5812016,-0.96376425,3.2489438000000006
204,2.040000238,1.7788495714285717,1.5582093714285714,0.6189254999999999,-4.4762669285714285,-0.711048,2.8953504857142858
205,2.050000238,1.611736142857143,1.599283142857143,0.9064728142857142,-4.2780685,-0.836708,2.7871432
206,2.060000238,1.3709642000000002,1.642352,1.3315411,-3.858620333333333,-1.0485957499999998,2.777980533333333
207,2.070000238,1.0783208,1.5955897,1.7217729285714287,-2.0181085000000003,-2.163620942857143,2.8967467142857144
208,2.080000238,1.0400606,1.6062523000000002,1.6851592999999998,-0.9709417,-2.6694026,3.055916
209,2.090000238,0.9886204142857142,1.609214157142857,1.4118202285714287,-0.1925477785714286,-2.822114314285714,3.230443857142857
210,2.100000238,0.941122025,1.63443485,1.1698040833333334,0.252407175,-2.8166166666666665,3.4043026666666667
211,2.110000238,0.8319126142857142,1.6849066285714287,0.1291843542857143,0.9161618028571428,-2.1091683142857143,4.275690985714286
212,2.120000238,0.8315162971428572,1.5026399714285716,-0.2546403,0.4568701308571428,-1.4349019857142855,4.714802685714285
213,2.130000238,0.78973104,1.3038769,-0.2494149666666666,-0.087656582,-0.9250772566666666,4.997188666666667
214,2.140000238,0.8082396571428571,1.154022014285714,0.0055795942857142,-0.3513680742857142,-0.7168074314285714,5.140999471428572
215,2.150000238,1.0244297,1.0783658,0.2887058866666667,-0.48389286,-0.5874823333333333,5.243156533333333
216,2.160000238,1.3810736142857143,0.9405122,0.5275264571428572,-0.2410665171428571,-0.5749163628571429,4.991254714285715
217,2.170000238,1.5369189,0.7545257,0.5413121,0.15423894,-0.56182677,4.499959
218,2.180000238,1.2274017285714287,0.8085532371428572,0.4513852271428571,0.5779924285714285,-0.4070206142857143,3.6861360142857142
219,2.190000238,1.0921586,0.8243511942857144,0.4029590557142857,0.7941014714285715,-0.2824077771428571,3.2355051857142856
220,2.200000238,1.0045707333333331,0.80090038,0.34735768,1.000618708333333,-0.1040985583333333,2.753343166666667
221,2.210000238,1.0149372714285714,0.8049424457142856,0.3688586299999999,1.2429215,0.1809635,2.144532
222,2.220000238,1.0217408,0.8095768271428572,0.3943130657142856,1.7399766,0.0053885485714285,1.167983542857143
223,2.230000238,0.88496015,0.8628857249999999,0.22527228,2.0840581,-0.3895678199999999,0.3478774975
224,2.240000238,0.7986615685714286,0.9228152,0.0031534914285714,2.185546057142857,-0.6037134114285714,-0.1279725035714286
225,2.250000238,0.7583420166666667,0.935115525,-0.2806515416666666,2.0186976,-0.5443158133333333,-0.485521775
226,2.260000238,0.7188834,0.91560215,-0.8236456,1.4506096,-0.09025268,-0.8683194
227,2.270000238,0.7479400000000002,0.93023723,-0.8734351,0.63802993,0.53036815,-1.0760075
228,2.280000238,0.7815656400000001,0.9303417585714284,-0.4004676,0.0423666164285714,0.8703482785714286,-1.2707805142857145
229,2.290000238,0.7609590214285714,0.90534464,0.3490273114285714,-0.0448972699999999,0.5516605271428572,-1.7175716142857145
230,2.300000238,0.7595463366666667,0.8539319233333332,0.7160376999999999,0.3875825799999999,0.0815990113333333,-2.0444039333333333
231,2.310000238,0.79940635,0.81553537,0.8024249,0.7345438,-0.058488626,-2.2121832
232,2.320000238,0.7471065833333334,0.86263162,0.625006,1.0184859666666666,0.145127128,-2.4013422833333333
233,2.330000238,0.63905732,0.9694860257142858,0.4333353942857142,1.2134262714285715,0.6754007,-2.5282531285714285
234,2.340000238,0.63592124,1.1083878,0.42685416,1.0804361,1.1351069,-2.2989237
235,2.350000238,1.0331831214285716,1.2454733142857144,0.9545679142857144,1.09404925,1.5094690285714285,-1.9814576285714287
236,2.360000238,1.8224583714285711,1.4556424,1.9940014571428573,1.5411893857142858,1.700402457142857,-1.8069298
237,2.370000238,2.5648448,1.6121062000000002,2.6318,2.5171487,1.2804886,-2.1682024
238,2.380000238,3.1224034571428567,1.7367127999999998,1.7825256285714286,4.165040328571428,0.5649246285714286,-3.6241133142857143
239,2.390000238,3.2191513,1.8344363,1.2280595,4.7394114,0.34589225,-4.2634087
240,2.400000238,3.1035739,1.6782729714285711,0.4118184714285714,3.8304704571428574,1.4119079642857142,-4.7960236428571426
241,2.410000238,2.8154844000000003,1.543276,0.222086125,2.8608523333333338,2.4362114666666668,-5.108159400000001
242,2.420000238,2.5300213,1.4031263428571428,0.4892184457142857,2.0947916571428573,3.0885962857142855,-5.136200057142857
243,2.430000238,2.2952711333333333,1.241154766666667,0.9727448,1.7818924,3.2435479,-4.974383633333333
244,2.440000238,2.2797978,1.0971676,1.3874285,1.8928628999999997,3.1325774,-4.8634133
245,2.450000238,2.0077956714285716,0.7140877985714286,1.449296257142857,2.3785737142857144,2.818078314285714,-4.704221771428572
246,2.460000238,1.8180635,0.55341643,1.29785,2.800582,2.6976542,-4.504082
247,2.470000238,1.6557455857142855,0.42332173,1.0430705428571427,3.0553925,2.5589047,-4.312101714285714
248,2.480000238,1.579553533333333,0.3519311033333333,0.8719107233333333,3.1935603500000003,2.348860466666667,-4.039838433333333
249,2.490000238,1.1851606,0.0709448987142857,0.0585182165714285,2.9862795,2.1955378,-3.7551835
250,2.500000238,1.0131994,-0.005183229,-0.083937824,2.5623515,2.1857643,-3.6305707
251,2.510000238,0.8396831457142857,-0.1504748112857143,-0.1491027748571428,1.919914742857143,2.1663915857142855,-3.4682598142857146
252,2.520000238,0.7097365114285715,-0.2834529528571428,-0.1187612871428571,1.448340642857143,2.178957514285714,-3.3349205714285715
253,2.530000238,0.60425276,-0.4260106266666666,0.0227147399999999,1.0942819566666666,2.1951305333333333,-3.1875026999999996
254,2.540000238,0.5512212,-0.51207256,0.13205038,0.9563468457142856,2.1690094285714285,-3.0853457428571427
255,2.550000238,0.4474753083333333,-0.67344375,0.33045627,1.0156863166666663,2.0503597,-2.977778616666667
256,2.560000238,0.3641414571428571,-0.7765304957142858,0.4718088928571428,1.3382136857142857,1.7374023142857145,-2.8602049857142857
257,2.570000238,0.2472959325,-0.8637038916666667,0.4879755966666667,1.8256698,1.2356931,-2.7065624666666666
258,2.580000238,0.0193391057142857,-0.9102534571428572,0.2680861971428571,2.2881684285714283,0.6804619942857143,-2.476069342857143
259,2.590000238,-0.15773133,-0.8784963857142857,0.0733318042857142,2.447512271428572,0.296500892,-2.1898437714285715
260,2.600000238,-0.255838095,-0.85105575,-0.10407619,2.4120831333333332,-0.042199362,-1.7874408333333334
261,2.610000238,-0.2664310471428571,-0.8417171999999999,-0.2224999228571428,2.2078856857142855,-0.2797898514285714,-1.3084785142857145
262,2.620000238,-0.2443638466666666,-0.8319489333333333,-0.3100181033333333,1.9543549666666664,-0.3618760933333333,-0.9249246
263,2.630000238,-0.2017539228571428,-0.8240506942857142,-0.36902849,1.685698442857143,-0.3651339485714286,-0.6119380571428571
264,2.640000238,-0.16235703,-0.83154243,-0.39413884,1.5556753,-0.34680852,-0.4871507
265,2.650000238,-0.10329871,-0.8918203,-0.38044903,0.99491745,-0.21608722,-0.09132166
266,2.660000238,-0.10329871,-0.8918203,-0.38044903,0.99491745,-0.21608722,-0.09132166
267,2.670000238,-0.10329871,-0.8918203,-0.38044903,0.99491745,-0.21608722,-0.09132166
268,2.680000238,-0.1040304614285714,-0.8950260714285714,-0.37117584,0.9472495571428572,-0.2134693028571428,-0.0649679642857142
269,2.690000238,-0.1966984666666666,-0.8098236833333333,-0.2757681133333333,-0.3796415733333333,-0.4807876933333333,0.8083036333333333
270,2.700000238,-0.2141675571428571,-0.7804288142857142,-0.2385897071428571,-0.6471926928571429,-0.45902989,1.167176357142857
271,2.710000238,-0.2062228414285714,-0.7553272,-0.2101385657142857,-0.8175318214285714,-0.3672282785714286,1.4708547571428572
272,2.720000238,-0.1874194766666666,-0.7006506666666666,-0.2279198066666666,-0.9953756666666664,-0.1826942426666666,1.8415517666666668
273,2.730000238,-0.1507187257142857,-0.6429643142857143,-0.2807742228571429,-1.1559412571428571,0.0149875742857142,2.140692385714286
274,2.740000238,-0.0971804656266666,-0.60392241,-0.3272955283333333,-1.3246223,0.1834068866666666,2.3902963
275,2.750000238,-0.01550177608,-0.5164499871428572,-0.3902666785714285,-1.6339727714285712,0.4024392528571428,2.7644546571428568
276,2.760000238,-0.1217499916666666,-0.3831422723333333,-0.286510636,-1.88314025,0.3428380116666666,3.2391703666666665
277,2.770000238,-0.1778980042857142,-0.0825483762857142,-0.0306942985714285,-1.9708113571428572,-0.4290111185714286,4.300648428571429
278,2.780000238,-0.1445249821428571,0.2056957971428571,0.0621726162857142,-1.8976842428571428,-1.1891451114285714,5.229834342857143
279,2.790000238,0.3037677375,0.3385410849999999,0.010259745,-1.8709233,-1.8976989,6.201015933333333
280,2.800000238,1.0486979485714285,0.4544036971428571,-0.1523912857142857,-1.9776179285714284,-2.534492642857143,7.1478728857142855
281,2.810000238,2.0708932,0.5962136766666667,-0.3269398,-2.3547142666666665,-2.8229287999999997,7.807646066666667
282,2.820000238,3.7758738285714286,0.7961527842857142,-0.4409185885714285,-3.079935457142857,-2.4632853142857143,7.587857285714286
283,2.830000238,4.4973663,0.9094128666666668,-0.44806476,-3.49170475,-2.06242415,7.037342266666666
284,2.840000238,4.714726414285714,1.0249203999999998,-0.35591799,-4.254005814285715,-1.1935737185714286,5.574352228571428
285,2.850000238,4.094542,1.1811882285714286,0.1038301,-4.8939557,-0.48241663,4.280054
286,2.860000238,2.887597316666666,1.3816913833333333,1.0776746666666668,-5.2103744,-0.24296449,3.4028773
287,2.870000238,1.736033357142857,1.7048730428571428,2.8085262571428573,-3.1891899714285716,-2.5540396142857142,4.281101357142857
288,2.880000238,2.0390111666666666,1.6365894666666667,2.8751982333333337,-1.70070061,-3.428482066666667,4.743890933333334
289,2.890000238,2.4916391,1.5493892,2.5498133,-0.27457583,-3.827569,4.9385476
290,2.900000238,2.4916391,1.5493892,2.5498133,-0.27457583,-3.827569,4.9385476
291,2.910000238,2.4916391,1.5493892,2.5498133,-0.27457583,-3.827569,4.9385476
292,2.920000238,2.6348618285714283,1.5567066571428572,1.699410957142857,0.8328684685714286,-2.6681372428571426,4.347247314285714
293,2.930000238,2.9267866999999996,1.5081367000000003,0.5059137,2.3558853,-0.8586985500000001,3.3112502
294,2.940000238,2.8511114,1.4593229,0.3406906,2.4291868,-0.5154024,2.220277
295,2.950000238,2.583169,1.4835012,0.19696271,2.448734,-0.5593834,1.0303466
296,2.960000238,2.0174654,1.4112408,-0.052472573,2.3063192857142853,-0.8504957714285715,-0.14575252
297,2.970000238,1.4437385428571428,1.3557497714285716,-0.2793673541428571,1.9604052142857145,-0.8536372571428572,-0.7255556657142856
298,2.980000238,0.3746916035,1.24453905,-0.6369629666666666,0.8274944733333333,-0.3630978063333333,-1.3488525333333332
299,2.990000238,-0.106125528,1.1879177857142855,-0.6818908571428571,-0.0700292742857142,0.3268687462857143,-1.197827857142857
300,3.000000238,-0.2851182583333333,1.1587414166666667,-0.5985156333333334,-0.5531222,0.7233959,-1.0637906
301,3.010000238,-0.3206241071428571,1.1063320285714286,-0.2050555257142857,-1.3706103571428572,1.439308842857143,-0.7430084257142857
302,3.020000238,-0.2604013666666666,1.0533236666666668,0.0515070766666666,-1.7226910666666668,1.7431035666666668,-0.63131064
303,3.030000238,-0.1916531628571428,0.9694598428571428,0.3816381242857142,-1.7662648857142855,1.8127983428571428,-0.6473671914285715
304,3.040000238,-0.138412555,0.8933346766666667,0.921730575,-1.383467233333333,1.573695216666667,-0.7730271666666667
305,3.050000238,-0.1265709814285714,0.8176304714285715,1.3713038857142856,-0.5180202857142857,0.9911215128571428,-0.9651822571428572
306,3.060000238,-0.12186686,0.73254275,1.5043256,0.8874084,0.2078407899999999,-1.2384928
307,3.070000238,-0.1516247,0.5539043,1.3144364,1.5862176,0.0148130473333333,-1.3484452666666666
308,3.080000238,-0.1773622642857142,0.5019413142857143,1.0099151714285717,2.964288957142857,0.0451808808571428,-1.435185657142857
309,3.090000238,-0.1501612,0.4811866,0.8690751,3.318580466666667,0.2558940916666666,-1.4186927
310,3.100000238,0.0337824601428571,0.3835415285714285,0.7400388114285715,3.719994457142857,0.8617963428571428,-1.3856197428571428
311,3.110000238,0.13594289,0.3414426799999999,0.6559325833333333,3.948974833333333,1.3717083666666667,-1.407493833333333
312,3.120000238,0.2121639342857142,0.3707533371428572,0.5013881585714286,4.086851714285714,1.7857465285714285,-1.4531619428571427
313,3.130000238,0.33401337,0.45581928,0.38145518,4.093135,2.0464911,-1.4730582
314,3.140000238,0.7468677283333333,0.6113923466666666,0.286886655,3.969947166666666,2.1238651833333333,-1.5595948666666668
315,3.150000238,1.3922154,1.0403047,0.18720604,3.4761791,2.2089765,-2.005717
316,3.160000238,1.5444803,1.3473042,0.39121184,3.1597600999999997,2.14890965,-2.1948760333333333
317,3.170000238,1.9832865,1.8302897,0.79925394,2.9459636,1.9707459,-2.3343527
318,3.180000238,1.9832865,1.8302897,0.7992539400000002,2.9459636,1.9707459,-2.3343527
319,3.190000238,1.9832865,1.8302897,0.79925394,2.9459636,1.9707459,-2.3343527
320,3.200000238,2.021045657142857,1.8592940285714288,0.8048335342857144,2.9459636,1.9707459,-2.3343527
321,3.210000238,2.6814267666666662,1.92693155,1.4352158499999998,1.5440692,4.0539385,-3.80934525
322,3.220000238,2.4143090857142857,1.7968382571428572,1.7835665857142855,1.8663347714285712,3.9188251428571426,-3.800386371428571
323,3.230000238,2.1929328,1.6333269,2.1119828,2.2214987,3.670123,-3.696542299999999
324,3.240000238,1.9433800285714289,1.3197721285714283,2.101947542857143,3.6875322,2.6365695,-3.1712136
325,3.250000238,2.0965247,1.1176567,1.7095511,4.540275,1.898666,-2.749729
326,3.260000238,2.4450207,0.9434087,1.1096989,5.039948,1.2756017,-2.6409981
327,3.270000238,2.5572834,0.81724274,0.4444162,4.9544296,0.7893674,-2.9720774
328,3.280000238,2.5572834,0.8172427399999999,0.4444162,4.9544296,0.7893674,-2.9720774
329,3.290000238,2.1195748714285716,0.6542846842857143,-0.4726364928571429,3.941470128571429,0.7754051714285716,-3.5300426000000003
330,3.300000238,1.6876071428571429,0.5096638928571429,-0.7563159571428572,2.6394928285714285,1.0937438,-3.857805757142857
331,3.310000238,1.473714,0.4382268,-0.7858081,1.9038582,1.3220261,-3.9860837
332,3.320000238,1.473714,0.4382268000000001,-0.7858081,1.9038582,1.3220261,-3.9860837
333,3.330000238,1.473714,0.4382268,-0.7858081,1.9038582,1.3220261,-3.9860837
334,3.340000238,0.7938660000000001,-0.06255156,0.0567759542857142,0.6052405714285715,1.8288549285714288,-3.9169708142857145
335,3.350000238,0.6805580000000001,-0.14601462,0.19720663,0.3888043,1.9133264,-3.905452
336,3.360000238,0.4292831733333333,-0.3429925733333333,0.3600616566666666,0.6957041300000001,1.8011340666666669,-3.3359386333333334
337,3.370000238,-0.05941549,-0.6553997571428571,0.2652245371428571,1.7499247,1.4063231,-2.364895
338,3.380000238,-0.12056598,-0.7147266333333334,0.1051179183333333,1.9435633333333333,1.2277520833333333,-1.95175875
339,3.390000238,-0.1019179628571428,-0.7611114800000001,-0.0063374749999999,1.9994994857142856,1.104564542857143,-1.6704490571428572
340,3.400000238,0.0087911626666666,-0.8718903433333334,-0.1922876433333333,1.907116,0.8995234833333333,-1.1688562066666668
341,3.410000238,0.0478207334285714,-0.9017556285714284,-0.2113581528571428,1.764585,0.8272399,-0.94895124
342,3.420000238,0.09948751,-0.9599036,-0.19985923,1.5539299857142856,0.7329949042857143,-0.7637772357142857
343,3.430000238,0.1915050699999999,-1.00701,-0.08515741,1.4554963,0.59267455,-0.69361705
344,3.440000238,0.2028951128571428,-1.016418157142857,-0.050678045,1.4493878714285715,0.4181467642857143,-0.7171782999999999
345,3.450000238,0.12781233,-1.0211571,-0.0614974949999999,1.4518312,0.07834116,-0.80845636
346,3.460000238,0.12781233,-1.0211571,-0.061497495,1.4518311999999998,0.07834116,-0.80845636
347,3.470000238,-0.3454876366666666,-0.9005098666666665,-0.3629581766666667,0.906879125,-0.38773531,-0.4291202
348,3.480000238,-0.45008725,-0.8554462,-0.43779993,0.72965705,-0.41766682,-0.25747213
349,3.490000238,-0.45008725,-0.8554462,-0.43779993,0.72965705,-0.41766682,-0.25747213
350,3.500000238,-0.45008725,-0.8554461999999999,-0.43779993,0.72965705,-0.41766682,-0.25747213
351,3.510000238,-0.4599920028571428,-0.8173777957142858,-0.5031042642857143,0.3144554471428571,-0.2501201415714286,0.0458789785714285
352,3.520000238,-0.4712571766666666,-0.6208492566666667,-0.7335082599999999,-1.5654996666666663,0.6126289066666667,1.3565390333333334
353,3.530000238,-0.4512240685714285,-0.5750553528571428,-0.7040567771428571,-2.3593101857142855,0.9359707000000002,1.8836129285714287
354,3.540000238,0.0016072374285714,-0.3773565171428571,-0.32836844,-2.9708557,1.0556967,2.3070173000000005
355,3.550000238,0.25629544,-0.1316082945,-0.04257870675,-3.12417825,0.6769714700000001,2.4316302999999997
356,3.560000238,0.0087417985714285,0.2671540962857143,0.0167736272857142,-3.081331714285714,0.2657840122857143,2.739497371428571
357,3.570000238,-0.2956879733333333,0.7551660133333332,0.0633776833333333,-3.064518933333334,-0.129754132,3.2811151333333335
358,3.580000238,0.0456734142857143,1.1248391285714283,0.1660724142857142,-3.126185371428571,-0.5327242571428571,4.100115742857143
359,3.590000238,1.6101447999999998,1.6356035666666668,0.4336940099999999,-3.243904283333333,-1.12334815,5.362068
360,3.600000238,3.4005033142857144,1.8307906,0.7202336742857144,-3.1788928142857142,-0.9619535714285714,5.299296285714285
361,3.610000238,4.212242766666667,1.9590827666666664,0.9207600666666668,-2.9816473333333335,-0.424182505,4.348265333333334
362,3.620000238,4.2823275857142855,2.1244532714285715,1.0675709928571429,-2.6371585285714287,0.2914395885714285,2.7239642714285712
363,3.630000238,3.5068815,2.3051953,0.99060655,-2.2989237,0.7857023,1.3773079
364,3.640000238,2.3413155499999996,2.35192585,0.848733475,-1.99533255,0.9123513,0.7235740333333333
365,3.650000238,1.1344215785714284,2.289258085714286,0.8959495000000001,-1.4987137428571429,0.3574110828571428,0.7417649142857142
366,3.660000238,0.8248855333333333,2.162677,1.0127319,-0.8591566500000001,-0.5929800199999999,1.31622315
367,3.670000238,0.8768543571428571,1.9449175428571428,1.0219804057142858,-0.286094692,-1.1921120857142855,1.7146701
368,3.680000238,0.99847292,1.7532425333333332,0.9088335133333332,0.164012488,-1.4163511333333334,1.8456241
369,3.690000238,0.97536176,1.6557978,0.8014491999999999,0.45966256,-1.4611466,1.8562121
370,3.700000238,0.6952104,1.5063466285714286,0.5461251,0.7912653714285715,-1.216633214285714,1.949759
371,3.710000238,0.633726,1.4717627999999998,0.4959130999999999,0.8554916,-1.1056335,2.012589
372,3.720000238,0.633726,1.4717628,0.4959131,0.8554916,-1.1056335,2.012589
373,3.730000238,0.633726,1.4717627999999998,0.4959130999999999,0.8554916,-1.1056335,2.012589
374,3.740000238,0.633726,1.4717628,0.4959131,0.8554916,-1.1056335,2.012589
375,3.750000238,0.577508295,1.2022551333333331,0.42103067,1.0005423783333334,-0.84940855,2.143921166666667
376,3.760000238,0.4390326142857143,0.5795329028571429,0.2245078728571428,1.2773034571428572,-0.4119073985714285,2.0576171999999997
377,3.770000238,0.3595375371428572,0.5392344,0.1498955028571428,1.2610723571428573,-0.4255205671428572,1.887801642857143
378,3.780000238,0.31108522,0.48181165,0.031495738,1.148851,-0.43599224,1.7267124333333337
379,3.790000238,0.2960320828571428,0.44531778,-0.0548594737142857,0.9522891142857144,-0.3550113428571428,1.5609110428571429
380,3.800000238,0.29872679,0.4324947266666667,-0.0976022399999999,0.7076665383333333,-0.2065172843333333,1.37058855
381,3.810000238,0.2971427857142857,0.41693197,-0.1163700235714285,0.3997995314285714,0.0153366291428571,1.1038228285714289
382,3.820000238,0.24861206,0.38575423,-0.0971093249999999,0.0833806433333333,0.2412337666666666,0.7851678249999999
383,3.830000238,0.19906649,0.3838029,-0.031221334,-0.14263284,0.3654394,0.50608695
384,3.840000238,0.0513342926666666,0.3690052799999999,0.0267800166666666,-0.436654,0.3988323533333333,-0.0424538766666666
385,3.850000238,-0.03814247,0.36185038,0.039788906,-0.5555656,0.4240806999999999,-0.26968905
386,3.860000238,-0.03814247,0.36185038,0.039788906,-0.5555656,0.4240806999999999,-0.26968905
387,3.870000238,-0.0578430971428571,0.3712281071428571,0.056767248,-0.574065542857143,0.4687598142857143,-0.30860875
388,3.880000238,-0.1681500566666667,0.4250553066666667,0.1447238866666666,-0.6948387566666666,0.8545244,-0.5453848
389,3.890000238,-0.1479659499999999,0.4336359485714285,0.1189964871428571,-0.7321877071428571,1.2057906571428574,-0.5271175571428571
390,3.900000238,-0.1072928446666666,0.4968074566666667,0.15946053,-0.7885020166666666,1.5826543333333334,-0.4183285666666667
391,3.910000238,-0.0016377248571428,0.5762880114285716,0.26221044,-0.8019988357142857,1.7602654285714288,-0.3114011899999999
392,3.920000238,0.27593073,0.6988822999999998,0.4561241999999999,-0.74126315,1.7801616000000002,-0.23181653
393,3.930000238,0.6764114,0.8267556,0.7475131,-0.44805646,1.6445535,-0.25380704
394,3.940000238,1.2437819,1.0638527666666666,0.7186039166666666,0.1617727183333333,1.3971603833333333,-0.56452464
395,3.950000238,1.5178934,1.1972345,0.5974434000000001,0.3973561499999999,1.3696723,-0.7864658
396,3.960000238,1.5178934,1.1972345,0.5974434000000001,0.3973561499999999,1.3696723,-0.7864658
397,3.970000238,1.5178934,1.1972345,0.5974434,0.39735615,1.3696723000000002,-0.7864657999999999
398,3.980000238,1.5178934,1.1972345,0.5974434000000001,0.3973561499999999,1.3696723,-0.7864658
399,3.990000238,2.252107966666667,1.7305075,1.6985747,0.0929505783333333,2.1914655,-1.98393015
400,4.000000238,2.3262463571428573,1.8483787857142857,2.2944588,1.1000486,1.4030070714285716,-2.140277928571429
401,4.010000238,2.578525928571428,1.6812392285714286,1.941324157142857,2.276474942857143,0.4736465817857143,-2.025264057142857
402,4.020000238,2.8943152333333337,1.5551517333333331,1.0795142666666668,3.156095,-0.0132859274999999,-2.1205564
403,4.030000238,2.9562351857142857,1.500601457142857,0.2768366857142856,3.175642142857143,-0.0413849,-2.7654365142857142
404,4.040000238,2.63844655,1.3695311,-0.51199635,2.3237138,0.2322746666666666,-3.470121466666667
405,4.050000238,2.4696867,1.3170586,-0.6554956,1.7071653999999998,0.4008685,-3.7380798
406,4.060000238,2.126628166666667,1.1814409,-0.5730110866666667,0.7777612813333333,0.5918600766666667,-3.8553624
407,4.070000238,1.7338380857142857,0.9917739,-0.2565959892857143,-0.2967408777142857,0.7385797885714286,-3.876305742857143
408,4.080000238,1.6049803142857144,0.8790931285714285,0.0071824721428571,-0.6150795714285715,0.6240895485714286,-3.812079628571429
409,4.090000238,1.5324471333333332,0.7477672333333333,0.1993104133333333,-0.7135713999999999,0.3247162133333333,-3.762106466666667
410,4.100000238,1.5216218857142858,0.6307946257142857,0.2578765485714285,-0.6260747885714285,0.08514774,-3.780489857142857
411,4.110000238,1.5302112333333333,0.4416568633333333,0.2981220633333333,-0.4423552166666666,-0.2197523,-3.8895698
412,4.120000238,1.4991119000000002,0.30742648,0.27797353,-0.34543413,-0.35658208,-3.9873054
413,4.130000238,1.2873791428571428,0.1257738862857143,0.146079956,-0.1775383951428571,-0.6321614571428571,-4.235484142857143
414,4.140000238,0.9387641,-0.1226697673333333,-0.0276540533333333,-0.1112760073333333,-0.8045367466666667,-4.3920938000000005
415,4.150000238,0.7937963,-0.22336671,-0.048813824,-0.11697725,-0.86236364,-4.3953514
416,4.160000238,0.7937963,-0.22336671,-0.048813824,-0.1169772499999999,-0.86236364,-4.3953514
417,4.170000238,0.4273594214285715,-0.4407138628571428,0.0186030014285714,-0.0084209642857142,-1.2567745714285716,-4.094465771428572
418,4.180000238,0.3135142333333333,-0.4549655633333334,0.0164440489,0.0919325133333333,-1.413093333333333,-3.849254033333333
419,4.190000238,0.2695889,-0.44862375,0.0009756667,0.15301724,-1.507571,-3.6782167
420,4.200000238,0.2695889,-0.44862375,0.0009756667,0.15301724,-1.5075709999999998,-3.6782167
421,4.210000238,0.2695889,-0.44862375,0.0009756667,0.15301724,-1.507571,-3.6782167
422,4.220000238,0.2695889,-0.44862375,0.0009756667,0.15301724,-1.507571,-3.6782167
423,4.230000238,0.3469511433333334,-0.4890580183333333,-0.0133391933166666,0.16258718,-1.7144446333333334,-3.45485025
424,4.240000238,0.6455036857142857,-0.6423458200000001,0.3161552114285714,0.2921158871428571,-3.163141757142857,-3.339283714285714
425,4.250000238,0.6365615666666666,-0.6459116333333333,0.3926753633333333,0.5907911066666666,-3.9179742666666666,-3.4880396
426,4.260000238,0.5588653942857142,-0.6518498885714286,0.3533524985714286,0.83878054,-4.480302571428571,-3.582750142857143
427,4.270000238,0.40357539,-0.60541643,0.24124883,0.94849308,-4.9307591,-3.5637847666666667
428,4.280000238,0.32251447,-0.5364816742857144,0.1572826945714285,0.8442345414285715,-5.2695175857142855,-3.3598780857142856
429,4.290000238,0.3112122683333333,-0.4709217966666666,0.0905845561666666,0.5288919033333334,-5.445906966666667,-3.003026933333333
430,4.300000238,0.3944001871428572,-0.3915515928571428,0.0013938098571428,0.13713521,-5.5012903,-2.6202292
431,4.310000238,0.5129349757142857,-0.3960205014285715,-0.013659333,-0.2552032642857143,-5.323795714285715,-2.3018906142857145
432,4.320000238,0.79503112,-0.399337325,0.1741260085,-0.7697694,-4.805738866666666,-2.0370738
433,4.330000238,0.90356756,-0.30133291,0.4687207142857142,-1.0681537142857145,-4.219383742857143,-2.0987404
434,4.340000238,0.7187208433333333,-0.0641805799999999,0.7263838333333332,-0.9298112833333332,-4.137064733333333,-2.2647162
435,4.350000238,0.0280460585714285,0.4334268685714285,0.8928047,-0.5098392914285714,-4.464071785714285,-2.1816409
436,4.360000238,-0.6919567600000001,0.9808238285714284,0.8520444714285713,-0.1021423851428571,-5.233390300000001,-1.3376246142857142
437,4.370000238,-0.9393332866666668,1.3078609333333333,0.8069779666666667,0.080937264,-5.8996138333333334,-0.4843000799999999
438,4.380000238,-0.5197646457142857,1.3876158571428572,0.7681937714285715,0.2778046085714286,-6.750713157142857,0.6433093999999999
439,4.390000238,0.348297745,1.4073382,0.6473395999999999,0.53866547,-7.0086067666666665,1.5296124000000002
440,4.400000238,0.8790930928571429,1.4168944857142858,0.5611303142857142,0.7053976957142857,-6.595186785714286,1.6745286714285716
441,4.410000238,0.9669619166666666,1.4544547833333334,0.4881738216666667,0.830675925,-5.826668333333333,1.45081315
442,4.420000238,0.389251792,1.5848703285714285,0.2602329442857142,0.8608365142857143,-4.682580585714286,1.1375067142857145
443,4.430000238,0.023355022,1.6333269,0.11640923,0.75775605,-4.3064733,1.252695
444,4.440000238,0.023355022,1.6333269,0.1164092299999999,0.7577560499999999,-4.3064733,1.252695
445,4.450000238,0.023355022,1.6333269,0.11640923,0.75775605,-4.3064733,1.252695
446,4.460000238,0.023355022,1.6333269,0.1164092299999999,0.7577560499999999,-4.3064733,1.252695
447,4.470000238,-0.3833019825714285,1.0584982028571428,0.1948632774285714,1.06715015,-4.087964471428571,2.8621902142857145
448,4.480000238,-0.4093887249999999,0.8497091566666667,0.0627729708333333,1.32009175,-4.367965116666666,3.967707533333334
449,4.490000238,-0.3380118985714286,0.7974071657142857,-0.1479485307142857,1.2376856285714286,-4.373317357142857,4.388610414285714
450,4.500000238,-0.1290449885714286,0.7384795071428572,-0.3530998571428571,0.9074353628571428,-4.143464142857143,4.973976471428571
451,4.510000238,0.15196009,0.6434827,-0.5085967,0.52685577,-3.8153519999999994,5.3465934
452,4.520000238,1.0742133428571428,0.370749,-0.6480343142857142,-0.7222395971428571,-2.839392542857143,5.580460528571428
453,4.530000238,1.50167295,0.162219835,-0.39169968,-1.626584466666667,-2.431986633333333,5.103476233333333
454,4.540000238,1.4659871142857142,0.102222866,-0.0627519185714285,-2.2038061,-2.573761328571429,4.464180814285714
455,4.550000238,1.2778286666666665,0.082332036,0.2319342666666667,-2.4361607,-2.9630164000000003,3.9949919
456,4.560000238,1.053188657142857,0.0155191969999999,0.42457182,-2.4743240714285712,-3.4193484285714284,3.648263414285714
457,4.570000238,0.8772027628571427,-0.0478730021428571,0.4356613114285714,-2.4156827,-3.756187,3.4506979714285713
458,4.580000238,0.69034517,-0.07524829,0.39121184,-2.4003243,-3.794583,3.444415
459,4.590000238,0.4689733528571428,-0.1077196982857142,0.2445787228571428,-2.6048708,-3.4078296285714287,3.914941857142857
460,4.600000238,0.5010353333333334,-0.1856205866666666,0.1957329633333333,-2.7892303999999997,-3.0363180666666665,4.191277666666667
461,4.610000238,0.5601851,-0.2670190771428571,0.2019325214285714,-2.9890065142857147,-2.659105314285714,4.360337
462,4.620000238,0.6730779,-0.4080319633333333,0.34005035,-3.3259616,-2.0740301000000003,4.622128333333333
463,4.630000238,0.9466841714285714,-0.4347901857142857,0.6296447714285714,-3.3706988142857144,-1.9746074142857144,4.703284000000001
464,4.640000238,1.2657967857142858,-0.3855277142857143,0.8563696571428572,-3.168246614285714,-2.069376071428571,4.494723285714286
465,4.650000238,1.4092894500000002,-0.274375775,0.90102815,-2.82241975,-2.1929417,4.0137245
466,4.660000238,1.3643129714285716,-0.1578663605714285,0.7674619685714286,-2.628083057142857,-2.182470042857143,3.6479142857142857
467,4.670000238,1.2469934,-0.047167387,0.54399514,-2.5530362,-2.0585554,3.36867
468,4.680000238,1.2469933999999998,-0.047167387,0.54399514,-2.5530362,-2.0585554,3.3686699999999994
469,4.690000238,1.2469933999999998,-0.047167387,0.54399514,-2.5530362,-2.0585554,3.3686699999999994
470,4.700000238,1.2469934,-0.047167387,0.54399514,-2.5530362,-2.0585554,3.36867
471,4.710000238,1.0676320142857143,0.1155424571428571,0.40670491,-4.531439528571428,-0.3388020674285714,3.3126465
472,4.720000238,1.2801966666666666,0.1829578166666666,0.68839381,-4.882960166666667,-0.102062394,3.0567306666666667
473,4.730000238,1.6284747142857143,0.28546089,0.9051486528571429,-4.820304814285714,-0.2876436042857143,2.578408142857143
474,4.740000238,1.8721721666666664,0.41204641,0.9352679866666668,-4.6172419,-0.563048455,1.8000142000000003
475,4.750000238,1.909336142857143,0.5516872742857143,0.7438979200000001,-4.539489742857143,-0.64542558,1.1446623742857145
476,4.760000238,1.817824516666667,0.59763651,0.56286822,-4.607468166666666,-0.5473700583333333,0.7544218333333333
477,4.770000238,1.5701221,0.59174186,0.40096852,-4.842644,-0.27350685,0.2727433
478,4.780000238,1.0735164857142858,1.1272390685714284,1.5558050428571428,-4.888196171428571,0.2776518828571429,0.2652386057142857
479,4.790000238,1.2527763666666667,1.3545403666666669,1.9510793,-4.492806966666667,0.24591691,0.5478536333333334
480,4.800000238,1.6482625285714287,1.5103930142857145,2.117423185714286,-3.782060828571429,0.1392513505714285,0.8139321428571428
481,4.810000238,2.5929255,1.7348573,2.1412833,-3.085695,0.1162136939999999,0.8641962
482,4.820000238,4.0591219,1.9500963142857144,1.4961631428571427,-2.047952742857143,0.4157033562857143,-0.2166108
483,4.830000238,3.5322487499999995,2.12533735,0.854424825,-1.6823752,0.7091427666666666,-2.217070133333334
484,4.840000238,2.9294566000000004,2.1678703571428573,0.6972880642857142,-1.8552740857142855,0.8771548571428571,-2.966143342857143
485,4.850000238,2.3998785714285717,2.117523428571429,0.8614613857142857,-2.0193302571428573,0.9487112385714286,-3.0863930142857146
486,4.860000238,2.339323483333333,2.0883179833333334,1.0671150833333332,-1.9220309166666667,0.75963945,-2.9171010333333336
487,4.870000238,2.6307893428571427,2.113794942857143,1.1158361114285713,-1.5875484142857144,0.3725950057142856,-2.6685735142857143
488,4.880000238,2.937967642857142,2.0510778000000003,0.9755447857142858,-1.4725345714285714,0.3069725499999999,-2.688818714285714
489,4.890000238,3.0872023333333334,1.9625586833333333,0.9461883833333332,-1.4567689666666668,0.4542158333333333,-2.9867376666666665
490,4.900000238,3.3010288571428568,1.7221953285714289,1.0340019428571428,-1.4170347571428574,0.7246175571428571,-3.519221857142857
491,4.910000238,3.234518,1.5393887,1.2021738,-1.2421579,0.9152019,-4.060607
492,4.920000238,3.234518,1.5393887,1.2021738,-1.2421579,0.9152019,-4.060607
493,4.930000238,3.234518,1.5393887,1.2021738,-1.2421579,0.9152019,-4.060607
494,4.940000238,3.234518,1.5393887,1.2021738,-1.2421579,0.9152019,-4.060607
495,4.950000238,1.6536418000000002,0.5189152714285715,0.9492801571428572,1.2317299071428571,0.695471407142857,-5.317534642857142
496,4.960000238,1.0983669666666669,0.101042479,0.5749827333333333,2.049239866666667,0.5450284666666666,-5.334987333333333
497,4.970000238,0.8741711857142856,-0.0573639774285714,0.3416445071428571,2.3508238571428572,0.4504344014285714,-5.171629085714286
498,4.980000238,0.6583717433333334,-0.2035383066666666,0.1044674743333333,2.5161307666666666,0.3452814149999999,-5.026712883333333
499,4.990000238,0.5604682428571428,-0.26274618,-0.0026700174285714,2.5405355000000003,0.1994634437142857,-4.859748014285714
500,5.000000238,0.36550912,-0.3700520999999999,-0.19742006,2.4609509,-0.034054734,-4.6031923
501,5.010000238,0.2250087785714285,-0.4544211114285714,-0.2869287628571428,2.2075365,-0.3888697285714286,-4.234785742857143
502,5.020000238,0.1876024033333333,-0.5293296733333334,-0.2738980866666666,1.9673862666666664,-0.7157602866666667,-3.913596566666667
503,5.030000238,0.1864873628571428,-0.6127056285714286,-0.2099164285714285,1.7862265142857143,-1.0515953857142857,-3.650990557142858
504,5.040000238,0.1886826128571428,-0.7450086114285714,-0.0439267722857142,1.6799390714285714,-1.4559108142857142,-3.409269557142857
505,5.050000238,0.190041575,-0.84410411,0.113741394,1.6851748666666666,-1.9864752999999995,-3.1797654666666664
506,5.060000238,0.1865570485714285,-0.9256332771428571,0.1992973428571428,1.7644104428571428,-2.4938275714285716,-3.0279263142857142
507,5.070000238,0.1810979566666666,-0.9723535,0.19304988,1.8091768333333331,-2.705646066666666,-2.954362833333333
508,5.080000238,0.1850935471428571,-1.005616128571429,0.1352474357142857,1.8204339,-2.8338077142857143,-2.8497334285714286
509,5.090000238,0.20761374,-1.0408432333333335,0.04060196,1.62897695,-2.8691497,-2.74239875
510,5.100000238,0.2434549714285714,-1.0772187857142856,-0.1005764214285714,1.3479872142857143,-2.8927981857142853,-2.6570546142857148
511,5.110000238,0.240191845,-1.0920505333333332,-0.1946200916666667,0.9735123833333332,-2.910687166666667,-2.5951845
512,5.120000238,0.1700621821428571,-1.095294742857143,-0.2362986328571428,0.4210919057142857,-2.8907037571428575,-2.462107
513,5.130000238,-0.0354680942857142,-1.027294282857143,-0.0303632642857142,-0.4339197042857143,-2.8901801714285713,-1.9825049285714285
514,5.140000238,-0.1478033366666666,-0.9594157533333334,0.2099715933333333,-0.7099063000000001,-2.9479488333333332,-1.5948204333333331
515,5.150000238,-0.1557712899999999,-0.92965794,0.304347,-0.8304468399999999,-2.9894865000000004,-1.2885823
516,5.160000238,-0.15577129,-0.92965794,0.304347,-0.83044684,-2.9894865,-1.2885823
517,5.170000238,-0.1557712899999999,-0.92965794,0.304347,-0.8304468399999999,-2.9894865000000004,-1.2885823
518,5.180000238,-0.1015259637142857,-0.8027515685714286,0.3039288685714285,-0.9285314571428572,-2.558402842857143,-0.8264327114285714
519,5.190000238,0.034087352,-0.48548564,0.30288354,-1.173743,-1.4806937,0.32894126
520,5.200000238,0.07607151,-0.4281346999999999,0.18744996,-1.1932901,-0.86236364,0.6697940000000001
521,5.210000238,-0.047777177,-0.12197359,0.13240101,-1.1998058333333337,-0.7287916933333333,1.0059127
522,5.220000238,-0.0111940315714285,0.0800395142857142,0.1499259885714285,-1.1360449571428572,-0.9364070428571428,1.4418831571428572
523,5.230000238,-0.0222878875,0.23408379,0.0967739375,-0.936327,-1.4790648333333334,1.6965773666666666
524,5.240000238,-0.15888122,0.4076239657142858,-0.08181662,-0.7581923128571428,-2.0653618714285713,2.065121857142857
525,5.250000238,-0.3787285428571428,0.6194655885714286,-0.3177711428571428,-0.7885601785714285,-2.4144174142857144,2.5527524285714285
526,5.260000238,-0.6700187833333334,0.91515505,-0.5018585166666667,-1.1309837,-2.7076823,3.699342
527,5.270000238,-0.2283713371428571,1.2548816142857144,-0.3666111128571429,-1.6008124714285716,-2.9039678714285713,5.096146285714285
528,5.280000238,0.5482840333333333,1.2906087833333333,-0.1283154083333333,-1.944225066666667,-2.890529266666667,5.8417871
529,5.290000238,1.9171458857142856,1.4045984,0.4053633571428571,-1.924736185714286,-2.7111145999999997,5.976464257142857
530,5.300000238,2.6922405,1.6871919,0.8723984333333333,-1.3384681616666667,-2.187647666666667,5.079245883333334
531,5.310000238,2.498329557142857,1.878010357142857,0.8638003714285715,-0.6313106328571428,-1.8911830571428572,4.0310027
532,5.320000238,2.0271522,1.9423999142857145,0.4722618771428571,-0.0841660282857142,-1.645447985714286,3.1608072857142857
533,5.330000238,1.6427686333333331,1.8097092333333331,0.0187104466666666,0.0475442803333333,-1.3621894333333333,2.6649738000000003
534,5.340000238,1.1199912885714285,1.5341183285714286,-0.4277732028571429,-0.1937694811428571,-0.90713,2.253786485714286
535,5.350000238,0.8173647650000001,1.3065549,-0.5683715699999999,-0.5771488666666666,-0.6070294399999999,2.0349868333333334
536,5.360000238,0.5425447142857143,1.0825457428571428,-0.6640980071428572,-1.1716486714285712,-0.3480302171428571,1.936843914285714
537,5.370000238,0.3445018,0.948531,-0.7279693499999998,-1.5451381000000002,-0.20142688,1.9612778
538,5.380000238,-0.28708994,0.8487385,-0.40609077,-1.9959434,-0.051158458,2.6271014
539,5.390000238,-0.28708994,0.8487385,-0.40609077,-1.9959434,-0.051158458,2.6271014
540,5.400000238,-0.28708994,0.8487385,-0.40609077,-1.9959434,-0.051158458,2.6271014
541,5.410000238,-0.28708994,0.8487385,-0.40609077,-1.9959434,-0.051158458,2.6271014
542,5.420000238,0.3702146833333333,0.575231725,-0.2074663716666666,-1.9155152,-0.6351284143333333,4.1114602
543,5.430000238,1.5382865857142856,0.3061372014285714,-0.0394099641428571,-1.8336325714285715,-0.9923867785714284,4.731208471428571
544,5.440000238,1.8800269428571428,0.3414964114285714,-0.0712846417142857,-1.8526561142857143,-0.9148965,3.846352557142857
545,5.450000238,1.9115446,0.3931022,-0.10616472,-1.8994296,-0.8758023,3.2110713
546,5.460000238,1.2186991285714286,0.6717508542857143,-0.3013285428571429,-2.4202204285714286,-0.5927181914285714,1.5171046285714287
547,5.470000238,0.8710975666666667,0.6773311833333334,-0.3245006433333333,-2.739344583333333,-0.3973052233333333,1.1624931833333334
548,5.480000238,0.5615484214285714,0.6694075142857143,-0.2163889157142857,-3.0996572571428573,-0.1932240728571428,0.9715307385714286
549,5.490000238,0.30237827,0.627514857142857,0.0923573071428571,-3.4532505428571425,-0.1220167414285714,0.8636725785714285
550,5.500000238,0.160634365,0.5473337500000001,0.41281373,-3.5016819,-0.2118112899999999,0.8018133999999999
551,5.510000238,0.0937859535714285,0.5474665857142857,0.5524582,-3.371745942857143,-0.2335399942857143,0.7947995571428571
552,5.520000238,-0.0442403883333333,0.6185116666666667,0.7694859666666667,-3.0624827,-0.2702490099999999,0.8764131000000001
553,5.530000238,-0.1171192077142857,0.7058599857142858,1.0069185571428572,-2.638729242857143,-0.3391293071428571,1.086195471428571
554,5.540000238,-0.0012762088571428,0.7611855000000001,1.2553389714285714,-1.9140898285714287,-0.4249969571428571,1.349732457142857
555,5.550000238,0.5204673666666667,0.82229391,1.5637802,-0.7583668756666667,-0.5084794333333333,1.3716066
556,5.560000238,0.9996838285714286,0.8828999314285715,1.3954689714285713,0.4757845702857143,-0.3941055785714286,0.8334138071428571
557,5.570000238,1.16048955,0.9325188166666668,1.0178032166666666,1.1614751666666667,-0.1926714045499999,0.3425835016666667
558,5.580000238,1.0969847571428573,1.0672443285714286,0.4350036028571428,1.2301809285714287,0.2769537819285714,-0.0670623057142857
559,5.590000238,1.0686903666666667,1.2452097666666666,-0.3549495933333333,0.7898509366666667,1.1110802583333337,-0.4682144266666666
560,5.600000238,1.2117605714285715,1.3325951714285715,-0.4106511557142857,-0.33618416,2.0330524714285714,-0.6690086342857143
561,5.610000238,1.3879207285714286,1.3992672,0.1076630785714285,-1.0163189142857143,2.4074145857142857,-0.73480563
562,5.620000238,1.8096483999999995,1.42907725,0.937387025,-1.1379065766666667,2.3686111333333333,-0.7933888133333333
563,5.630000238,2.0809143,1.4371265,1.3251688,-0.92451733,2.1527784,-0.8951967
564,5.640000238,2.0809143,1.4371265,1.3251688,-0.92451733,2.1527784,-0.8951967
565,5.650000238,2.0809143,1.4371265,1.3251688,-0.92451733,2.1527784,-0.8951967
566,5.660000238,2.4493199,1.5259600857142857,1.3211267357142855,-0.3047473382857143,1.9351422571428571,-1.3287237142857145
567,5.670000238,3.9553528,1.9384769,0.6876519333333334,2.4114722499999997,1.1251297666666666,-3.5035145
568,5.680000238,3.9442718,1.7498190428571427,0.5821332714285715,2.0499379285714285,1.5033606142857143,-4.136417742857143
569,5.690000238,3.8099782,1.5403643,0.5698503,1.7267125000000003,1.8216993,-4.6789374
570,5.700000238,3.208976485714286,1.264302885714286,0.8998216785714286,1.5904062714285714,2.0142033,-5.037591857142857
571,5.710000238,2.848171442857143,0.9789072828571428,1.186223442857143,1.8453914571428571,1.9272885714285712,-4.9471865428571435
572,5.720000238,2.7465981833333335,0.7786378833333334,1.2832507,2.093221,1.8253644,-4.8340926
573,5.730000238,2.689669185714286,0.4120884971428571,1.1327751714285714,2.9838361428571427,1.4586813857142855,-4.638621414285714
574,5.740000238,2.5436239333333335,0.161076478,0.8131775566666666,3.5034636,1.09071862,-4.665906133333333
575,5.750000238,2.2146326571428574,-0.0704614271428571,0.36160645,3.843036514285714,0.4891795614285714,-4.826937
576,5.760000238,1.8234295333333332,-0.1897671666666666,0.054352766,3.776715833333333,0.1667104003333333,-4.925719666666667
577,5.770000238,1.609087857142857,-0.2666357685714285,-0.1001103699999999,3.6185936,-0.004210482,-4.972318857142857
578,5.780000238,1.3758425,-0.35468534,-0.24428254,3.2709342571428572,-0.1314412371428571,-4.976158085714286
579,5.790000238,0.8850821,-0.629228775,-0.372277825,2.4084179,-0.0041232199999999,-4.8072153
580,5.800000238,0.6855582885714285,-0.7080944542857143,-0.34217153,2.0426076857142856,0.2656094714285714,-4.643464714285714
581,5.810000238,0.34415116,-0.7085321699999999,-0.124336515,1.6766230333333334,0.5963396333333333,-4.379469333333334
582,5.820000238,0.1664600491428571,-0.7166532857142858,0.0360909585714285,1.541538557142857,0.7076883857142857,-4.0813760285714284
583,5.830000238,0.0204149538571428,-0.8283671157142857,0.1683025028571428,1.5750478428571426,0.6553300671428571,-3.7740325571428577
584,5.840000238,-0.1266232384999999,-0.936106435,0.149490425,1.8574338,0.354444135,-3.21397295
585,5.850000238,-0.3214211871428571,-0.9627260714285716,0.0451245844285714,1.9958342857142857,0.0525110528571428,-2.8104646571428575
586,5.860000238,-0.4666024333333333,-0.9472199233333332,-0.0580623319999999,2.0351902833333333,-0.1861557016666667,-2.5243263333333332
587,5.870000238,-0.5098860428571428,-0.93473655,-0.1584021014285714,1.9900749714285717,-0.4476855871428571,-2.218815457142857
588,5.880000238,-0.52942115,-0.921822,-0.30187738,1.7743586,-0.97231615,-1.5769022
589,5.890000238,-0.4467856614285714,-0.91429548,-0.3677609971428571,1.4429303142857144,-1.2368566642857142,-1.1166724142857145
590,5.900000238,-0.24958774,-0.92719845,-0.4867052466666666,0.95742675,-1.38784505,-0.6469890333333334
591,5.910000238,-0.1564159157142857,-0.9297145285714288,-0.4758857985714285,0.2266679482857143,-1.2632321857142856,-0.2382740742857143
592,5.920000238,-0.0749651728571428,-0.9366835285714286,-0.3287517642857143,-0.1848685588571428,-1.192548414285714,-0.0445482214285714
593,5.930000238,0.0141573316666666,-0.9638976666666668,-0.1971761466666666,-0.5596379,-1.1606097999999998,0.1534244733333333
594,5.940000238,0.1394027392857142,-1.0037345142857144,-0.0697906599999999,-0.8805363428571429,-1.1403645714285715,0.3572147499999999
595,5.950000238,0.1958955799999999,-1.0131891333333334,-0.074994215,-0.9713489666666668,-1.1123528833333334,0.4270840333333334
596,5.960000238,0.18369974,-1.0192058,-0.092718825,-1.0344698,-1.0909733,0.46577105
597,5.970000238,-0.0069211359999999,-1.0092052,-0.11421398,-1.2492844666666667,-1.0368878,0.6958568416666667
598,5.980000238,-0.17555903,-0.92624307,-0.09808499,-1.4645063,-0.99675,1.0682192
599,5.990000238,-0.3964052533333333,-0.82665392,-0.041892688,-1.6701582666666666,-1.1312891333333333,1.7230474333333332
600,6.000000238,-0.4277819571428571,-0.7669698371428572,-0.025890012,-1.7472413571428569,-1.2173313714285714,2.218531857142857
601,6.010000238,-0.2580769171428571,-0.5809485457142857,-0.0454207702857142,-1.7580620142857142,-1.2616614285714287,3.1599346285714285
602,6.020000238,0.272393935,-0.411289245,-0.234038045,-1.8073952,-1.3568954,3.6516958
603,6.030000238,0.9839206285714284,-0.2123468842857143,-0.5245253742857143,-2.055282814285714,-1.5101889285714287,4.050375428571429
604,6.040000238,1.3508105,-0.0370753379999999,-0.7394537200000001,-2.3237647999999997,-1.5214169000000002,3.9742231333333335
605,6.050000238,1.3778243,0.116836086,-0.82681656,-2.4907298,-1.5368917,3.8903334
606,6.060000238,1.0651841,0.52365863,-0.77849054,-3.1223457,-1.7861174,3.8170319
607,6.070000238,0.8436729285714285,0.9211034042857144,-0.5203657314285713,-3.628127357142857,-2.3295968,4.253700414285714
608,6.080000238,1.8134725285714288,0.7978209142857143,-0.0074481687142857,-4.133385357142857,-3.6364610857142856,5.536305
609,6.090000238,2.244627916666667,0.77425246,0.0992232691666666,-4.127393133333334,-4.029555766666667,5.740997283333333
610,6.100000238,2.9425321714285713,0.9273494114285714,0.1494686557142857,-3.9312820428571422,-4.443826685714286,5.398777214285714
611,6.110000238,2.96838965,1.08105395,0.076147735,-3.8468106333333334,-4.472216566666667,5.0880014
612,6.120000238,2.815251514285714,1.2675652285714285,0.1447950371428571,-3.701603557142857,-4.049742728571429,4.766986485714286
613,6.130000238,2.6340411,1.4595668,0.4647984649999999,-3.5067723666666666,-3.669563,4.750813633333333
614,6.140000238,2.5674061,1.3866662285714284,0.7062084428571429,-3.0568978,-3.2060755714285714,4.928948228571429
615,6.150000238,2.4754276714285717,1.242990642857143,1.0692827714285715,-2.4809561428571425,-2.925783942857143,5.0427404000000005
616,6.160000238,2.355544033333333,1.1632538666666667,1.3055030166666668,-1.7536406833333331,-2.839014533333333,5.086576
617,6.170000238,2.2498962,1.0813261857142855,1.3713518,-1.0414509671428571,-2.8870387,5.0704902857142855
618,6.180000238,2.3233673500000003,0.7601358500000001,1.0450305,0.627467425,-2.887271416666666,4.9023037333333335
619,6.190000238,2.5740179285714286,0.7259308714285714,0.6737239685714285,1.5856940857142858,-2.5543888285714287,4.1660874
620,6.200000238,2.822979866666667,0.7592414433333333,-0.0040652733333333,2.0032226333333334,-2.1518113833333334,3.052454733333333
621,6.210000238,2.593962285714286,0.7511805928571429,-0.5028690714285714,1.732122885714286,-1.7880371857142858,2.3043995
622,6.220000238,2.131994333333333,0.7720064333333334,-0.9267157083333334,1.0124029733333333,-1.2208546100000002,1.434091123333333
623,6.230000238,1.282357085714286,0.7490070885714285,-1.110996857142857,-0.6566172,-0.3937564914285714,0.53889818
624,6.240000238,1.006304371428571,0.6708492514285714,-0.99908262,-1.7331046142857145,-0.0214887357142857,0.2254462742857142
625,6.250000238,0.8567268166666667,0.5835554083333333,-0.834865775,-2.4379932,0.20987693,0.0640371516666666
626,6.260000238,0.6158982914285714,0.4235482428571428,-0.4094751557142856,-3.1699919142857143,0.5239106071428571,-0.0963829742857143
627,6.270000238,0.35819164,0.3091339,0.20281671,-3.5365002000000003,0.80769277,-0.22204298
628,6.280000238,0.136798048,0.26655738,0.7417026571428572,-3.2795953142857144,1.0310883714285717,-0.3157644
629,6.290000238,0.0501147126666666,0.2621901133333333,0.8203323666666668,-2.3850532,1.2505571,-0.40896225
630,6.300000238,-0.0967521614285714,0.2782828,0.6977671857142858,-1.7711516571428572,1.350648757142857,-0.4534668428571428
631,6.310000238,-0.2010076666666666,0.2925475666666666,0.5469119833333334,-1.3101655766666669,1.3806675333333331,-0.4557938666666666
632,6.320000238,-0.3782494242857143,0.2971122857142858,0.3772955428571429,-0.8028714471428572,1.2944508285714285,-0.4119292085714286
633,6.330000238,-0.5470266928571429,0.3155584885714286,0.2989895885714286,-0.4517215585714286,0.8949567114285714,-0.25817023
634,6.340000238,-0.6672238933333334,0.3560777,0.20467658,-0.2574721233333333,0.4786497433333332,-0.0359381833333333
635,6.350000238,-0.6651738142857143,0.4101981371428571,0.0663235485714285,-0.18801007,0.1382041957142857,0.2374886871428571
636,6.360000238,-0.5603985,0.48167443,-0.14128873,-0.22570807,-0.24296449,0.56839335
637,6.370000238,-0.2606423828571428,0.5283235128571429,-0.24462229,-0.47702808,-0.2415682642857142,0.8217859214285713
638,6.380000238,0.1826783383333333,0.6061380116666667,-0.3215583916666666,-0.76997295,-0.02509564,0.8108233966666667
639,6.390000238,0.6901840171428572,0.7064741514285714,-0.3031361542857143,-1.1679835571428572,0.4537504214285714,0.5741527814285714
640,6.400000238,1.1127682333333333,0.7754314400000001,-0.1903464833333333,-1.5927842,1.1570973999999998,-0.07849387
641,6.410000238,1.2768515285714286,0.8175912571428572,-0.0231415985714285,-1.6896471285714283,1.3612949428571428,-0.5210090714285714
642,6.420000238,1.2728660857142855,0.9385216714285712,0.1472734057142857,-1.6369396857142855,1.3141724428571429,-1.0283613428571428
643,6.430000238,1.2412092285714285,1.1343170428571427,0.0159068571428571,-1.6201850285714288,1.262163157142857,-1.3421623142857142
644,6.440000238,1.2822292666666668,1.2300818999999998,-0.2178379133333333,-1.8863981666666667,1.5712518666666666,-1.3899829666666668
645,6.450000238,1.4622542142857142,1.3481883714285714,-0.3062025375714285,-2.340286842857143,2.0621985,-1.320171885714286
646,6.460000238,1.8883418999999997,1.492526,-0.0056100829999999,-2.8743417,2.5889235,-1.2824738
647,6.470000238,2.435264,1.6931171,0.7192188,-3.1235673,2.762404,-1.5023788
648,6.480000238,2.969924333333333,1.8816444333333333,1.45683805,-2.8193655,2.535169,-1.8126892
649,6.490000238,4.058525285714286,1.8714811571428571,2.4205679142857144,-0.8096779828571429,1.8524160857142855,-3.253416171428571
650,6.500000238,3.8248006571428577,1.740114642857143,2.203586714285714,0.3194076657142857,1.8520670285714285,-4.111045685714285
651,6.510000238,3.4330508500000003,1.5834155999999997,1.9952231,1.30889295,1.9970124,-4.678861
652,6.520000238,3.072688028571428,1.380812357142857,1.8586101428571429,2.0474946,1.972665814285714,-4.878073585714286
653,6.530000238,2.7679054,1.15037205,1.68040285,2.7280948333333335,1.7883062666666667,-4.859748133333333
654,6.540000238,2.664354,1.0111914285714283,1.5305683285714284,3.3028729285714284,1.5630490571428572,-4.714192057142857
655,6.550000238,2.68444025,0.8852092116666667,1.3442095,3.641107833333333,1.360509566666667,-4.625589916666667
656,6.560000238,2.852819,0.63445777,0.892735,4.184762,0.8932114,-4.566541
657,6.570000238,2.8447697,0.3835589599999999,0.5122555,4.315658,0.6345612057142856,-4.767597571428571
658,6.580000238,2.6745615333333337,0.20826926,0.2305825583333333,4.269262333333334,0.4265241066666667,-5.0790421666666665
659,6.590000238,1.9017007285714287,-0.0437264228571428,-0.2856961114285714,3.629414528571429,0.3446705642857143,-5.530283857142857
660,6.600000238,1.26103395,-0.18030016,-0.5246799750000001,2.959809566666667,0.4806858866666667,-5.565480333333333
661,6.610000238,0.9698301142857144,-0.2570446085714286,-0.5239460471428572,2.284677857142857,0.7781975714285715,-5.313345657142857
662,6.620000238,0.6666445833333333,-0.3320620433333333,-0.3564537433333333,1.8480675333333336,1.0149736333333337,-5.0161248
663,6.630000238,0.4606017928571429,-0.3670902414285714,-0.1170669434285714,1.6015761000000002,1.1056118,-4.622499157142856
664,6.640000238,0.32543276,-0.4249159228571428,0.0768119721428571,1.6123967857142856,1.0057818857142855,-4.313497842857143
665,6.650000238,0.2717028533333334,-0.5453570533333333,0.1599381899999999,1.7649922166666665,0.8028060083333334,-4.00603825
666,6.660000238,0.2651635585714286,-0.6689066428571427,0.1772141657142857,2.0174758,0.56457555,-3.720976
667,6.670000238,0.2420161466666666,-0.8767584999999999,0.1600296633333333,2.38459485,0.233496373,-3.5084011
668,6.680000238,0.1534627892857143,-1.0681546999999998,0.0258421,2.6058088285714285,-0.0356254871428571,-3.371571285714286
669,6.690000238,-0.0729310825,-1.1619733,-0.2131679349999999,2.76393115,-0.45309596,-3.044768
670,6.700000238,-0.2953438714285714,-1.193453785714286,-0.4127157214285714,2.6574692142857144,-0.6375718142857144,-2.7626439142857144
671,6.710000238,-0.5255097428571428,-1.1863802,-0.6283467357142857,2.2569279,-0.8834814714285715,-2.2163719714285715
672,6.720000238,-0.6457541666666666,-1.15470655,-0.725458975,1.7853538,-1.0815050666666668,-1.7096595666666667
673,6.730000238,-0.7233218657142857,-1.1124429857142857,-0.8115194571428572,1.1786515714285717,-1.2894112285714283,-1.1315072142857143
674,6.740000238,-0.72001153,-1.1221997,-0.8324266000000001,0.6759025,-1.4403778,-0.6838435
675,6.750000238,-0.60562332,-1.1324093,-0.7793616714285714,-0.0414067142857142,-1.5628963142857144,-0.0909726085714285
676,6.760000238,-0.47694856,-1.1082964,-0.6855278,-0.7290462,-1.6077499,0.44866732
677,6.770000238,-0.3069473485714286,-1.0993672571428572,-0.3509002842857143,-1.4700911714285714,-1.5826180142857142,1.09140956
678,6.780000238,-0.2155613628571428,-1.0483233285714284,-0.0115424871428571,-1.7259489857142856,-1.6323584142857144,1.561958285714286
679,6.790000238,-0.18921836,-0.914504625,0.3228847049999999,-1.6107024333333333,-1.7437652666666663,1.8647639333333337
680,6.800000238,-0.1256345112857143,-0.7841485857142858,0.4063869557142857,-1.2599596857142856,-1.914744342857143,2.2302250714285714
681,6.810000238,-0.0322173293333333,-0.6484931666666667,0.3158009433333333,-0.9273679166666668,-1.9343496666666664,2.519185
682,6.820000238,0.0266653191428571,-0.5337942142857143,0.123147428,-0.6705793728571429,-1.7243345714285714,2.8206526857142857
683,6.830000238,0.0246152583333333,-0.4175904333333333,0.010031073,-0.550067945,-1.4200162833333334,3.133901
684,6.840000238,0.03091644,-0.2880351,0.010031073,-0.47982052,-1.2510152,3.5482589999999994
685,6.850000238,0.1947326171428571,-0.1525916551428571,-0.0308423914285714,-0.42606595,-1.3047698,3.8414657
686,6.860000238,0.5441476133333333,0.019371046,-0.0875254333333333,-0.3708860833333333,-1.5702846499999998,4.28209025
687,6.870000238,1.0756769142857143,0.2299872785714285,-0.1847059,-0.3407218728571428,-2.094682514285714,4.553538985714286
688,6.880000238,1.6138848666666668,0.5146235166666667,-0.4882398666666667,-0.47411928,-2.4283214666666666,4.376160633333333
689,6.890000238,1.8064337714285712,0.7708725071428572,-0.8100734285714285,-0.9112532142857144,-2.506393542857143,4.0552623
690,6.900000238,1.8830584714285712,0.9439793428571428,-1.0267237142857142,-1.8435807142857144,-2.2405877857142857,3.670253957142857
691,6.910000238,1.8649361666666664,0.9670077,-0.9958609566666666,-2.72163,-1.857790133333333,3.4045063666666664
692,6.920000238,1.6287623,0.95850977,-0.7437324399999999,-3.5984575714285714,-1.3619712285714287,3.215085414285714
693,6.930000238,1.3360789000000002,0.9884519583333332,-0.4605807638333333,-4.333096,-0.9295568333333334,3.3157297999999997
694,6.940000238,1.0175899,1.0927771,0.007561417,-4.6546778571428575,-0.8679703142857143,3.701494571428572
695,6.950000238,1.0249074,1.195771,0.6335431,-4.648395,-1.1728268,4.30571
696,6.960000238,1.04139715,1.368215,0.9443081,-4.105428216666667,-2.0774915833333334,5.288181000000001
697,6.970000238,1.9429028,1.25042345,0.78413112,-2.9592495000000003,-3.48244025,7.005196349999999
698,6.980000238,2.2907868,1.0869535857142858,0.5308715428571428,-2.6947527,-3.667527,7.3039007
699,6.990000238,2.675922742857143,0.8997694142857142,0.2018323428571428,-2.4823523428571432,-3.150575685714286,7.439857771428572
700,7.000000238,3.1638228666666666,0.8374269133333333,0.12536301,-2.5591446,-2.21615385,7.06689185
701,7.010000238,3.840206628571429,0.8133052871428571,0.2657690028571428,-2.596842628571429,-1.538986014285714,6.390553214285714
702,7.020000238,3.9639712333333335,0.8559646000000001,0.4288766666666667,-2.553239766666667,-1.08259945,5.200193916666667
703,7.030000238,3.7080998285714286,0.9757581571428572,0.5233450085714286,-2.4090506428571428,-0.9630661642857142,3.723484857142857
704,7.040000238,3.0104805999999997,1.1274133,0.60890746,-2.0142689,-0.71698195,1.380973
705,7.050000238,2.723726,1.0405486,0.5537518,-1.8833729857142856,-0.5536239785714286,0.8300323428571428
706,7.060000238,1.315333742857143,0.8349572428571428,0.5145378571428572,-1.3939971,-0.2478512757142857,-0.3953490714285714
707,7.070000238,0.55618084,0.79381662,0.5208942,-0.9261462833333334,-0.38834614,-0.8585458
708,7.080000238,-0.2581988628571428,0.7923502257142856,0.4370246285714286,-0.5321788428571429,-0.9533580571428572,-0.50722136
709,7.090000238,-0.5718778999999999,0.84445475,0.294819025,-0.26724567,-1.4354911,0.32046573
710,7.100000238,-0.4724186999999999,0.8787751285714286,0.1177768998571428,-0.1970855028571428,-1.5534718428571428,1.189515942857143
711,7.110000238,-0.1663562533333333,0.86983225,-0.0033792624999999,-0.2428117783333333,-1.4405813833333332,1.7696754166666668
712,7.120000238,0.3514839285714285,0.8518876857142857,-0.0560877665714285,-0.45678285,-1.0516607714285715,2.1073576714285713
713,7.130000238,0.5817891928571429,0.8709697571428572,-0.0123265025714285,-0.6421313571428572,-0.7250102028571429,2.006480614285714
714,7.140000238,0.68763155,0.8975219,0.09226148,-0.9269607,-0.21608722,1.5740007
715,7.150000238,0.5630511171428572,0.8803431571428572,0.3217304714285714,-1.1456441,0.30557635,1.0999832
716,7.160000238,0.42164046,0.8606905,0.6164689,-1.1920685,0.83945686,0.5402944
717,7.170000238,0.2566613,0.8614222,0.8688312,-1.0056727571428572,1.0122394085714286,0.1905407114285714
718,7.180000238,0.156716453,0.8412837999999999,0.95705285,-0.70644485,1.05814015,-0.0430647299999999
719,7.190000238,-0.1992494277142857,0.79698463,1.457667742857143,0.76026483,0.6726082842857143,-0.2058119014285714
720,7.200000238,-0.21026924,0.7522128657142856,1.5897312142857143,1.9389382857142856,0.18881726,-0.0866094158285714
721,7.210000238,-0.0126379349999999,0.68728093,1.4119422,3.04125585,-0.18310146,0.0320694832
722,7.220000238,0.3033147385714286,0.6680964571428571,1.1831918857142856,3.7857914285714287,-0.3099831657142857,0.0298006228571428
723,7.230000238,0.54902595,0.682052,1.057958,4.152998,-0.32115296,-0.02535016
724,7.240000238,1.6060780142857145,0.6510746000000001,0.5351749285714286,4.438699657142857,0.0132422942857142,-0.6754661714285716
725,7.250000238,1.9520651,0.600035,0.1586373,4.3277,0.3556658,-1.4388508
726,7.260000238,1.4203049571428572,0.7871277742857143,-0.0132716771428571,3.463962157142857,0.8049003357142857,-2.085825142857143
727,7.270000238,1.07218649,0.98571806,0.5966303533333334,2.99177725,0.7685985733333333,-1.8536159066666664
728,7.280000238,1.1333805642857142,1.0802938714285717,1.642382442857143,2.9117561714285713,-0.05656882,-0.6777350200000001
729,7.290000238,1.9217933142857144,0.9098831857142856,1.9519344571428572,3.5878769142857143,-0.3900914171428571,-0.2909814542857143
730,7.300000238,2.8767532,0.683881365,1.75275475,4.3537628999999995,-0.1757712933333333,-0.3560221366666667
731,7.310000238,3.3138344857142856,0.5869462785714286,1.4908187,4.814807128571429,0.6813346571428571,-0.9924086285714286
732,7.320000238,3.516790533333334,0.49055706,1.1959945333333335,4.9418054,1.329763533333333,-1.5545044666666668
733,7.330000238,3.421445042857143,0.4574918642857142,1.0487022,4.9458776,1.5920206,-1.8200194
734,7.340000238,2.958918228571428,0.4410013314285714,0.7723795571428571,4.7100906,2.3018253,-2.6581018
735,7.350000238,2.678815,0.3784367,0.6857717,4.458421,2.4875228,-2.8401344
736,7.360000238,2.4918004857142857,0.2809571685714285,0.6928801571428572,4.279355885714286,2.500088857142857,-2.8495587714285713
737,7.370000238,2.1890708333333335,0.197445465,0.6962347466666666,4.197996883333333,2.1875967,-2.7945243166666667
738,7.380000238,2.0509341428571433,0.1556711057142857,0.6264521028571428,4.2077994571428565,1.8492746,-2.7855070571428575
739,7.390000238,2.0076985,0.1285796626666666,0.533953955,4.171526833333334,1.7076743666666667,-2.8252703833333332
740,7.400000238,1.8692946285714285,0.07453832,0.2297912785714286,3.917210628571428,1.6482186285714284,-2.9874357857142857
741,7.410000238,1.7880921,0.0772910966666666,0.1062003041666666,3.628890783333333,1.7634651,-3.1398566666666667
742,7.420000238,1.7089716,0.06753443,0.053936075,3.3173587,1.9121046,-3.31293
743,7.430000238,1.4781045,-0.02058047,0.036374073,3.010538928571429,2.038811742857143,-3.4794295714285712
744,7.440000238,1.2904412,-0.115006715,0.13107471,2.7236152,2.155222,-3.6562262
745,7.450000238,1.1429673714285715,-0.2037052592857142,0.2184927214285714,2.672303885714286,2.1499860571428573,-3.758848571428571
746,7.460000238,0.9764035166666668,-0.32766139,0.2362078916666666,2.785310766666667,2.022668016666666,-3.9119676833333337
747,7.470000238,0.810090842857143,-0.47564625,0.1298377112857142,2.9222277857142855,1.8581755714285717,-4.054324142857143
748,7.480000238,0.7489157,-0.5401535,0.0102749895,2.9545155,1.763058,-4.1241355
749,7.490000238,0.6740245571428571,-0.56909246,-0.0886070932142857,2.8676006714285713,1.758520257142857,-4.138795785714286
750,7.500000238,0.4140006414285714,-0.6205196514285714,-0.3571375857142857,2.536695928571429,1.7791145,-4.138795585714285
751,7.510000238,0.2819575133333333,-0.5772491266666666,-0.3889149833333333,2.2939859000000005,1.8331017666666665,-4.035766
752,7.520000238,0.0941169914285714,-0.5244252128571428,-0.3789681,2.0005466000000003,1.8365341142857143,-3.814348471428571
753,7.530000238,-0.06305246,-0.49499843,-0.3567891,1.852547,1.810704,-3.6635563
754,7.540000238,-0.15040511,-0.4703628,-0.27404037,1.6521891,1.6457752000000003,-3.3361423
755,7.550000238,-0.15503953,-0.4556973,-0.21888472,1.5080292,1.3770025,-2.985516
756,7.560000238,-0.020336553,-0.4885346,-0.1495971499999999,1.3296618,0.9074644833333334,-2.557108466666667
757,7.570000238,0.105023548,-0.5151171428571428,-0.1323335057142857,1.1252897857142856,0.4273967457142857,-2.236093657142857
758,7.580000238,0.1754675533333333,-0.5184347,-0.1305563946666666,0.9382614,0.2188360366666666,-2.0745391
759,7.590000238,0.1727844771428571,-0.4766611,-0.0768773026571428,0.7111570885714286,0.1514682985714285,-1.8669673714285715
760,7.600000238,0.11869595,-0.3963239566666667,0.0584891837999999,0.5993429433333334,0.21517094,-1.6559050666666666
761,7.610000238,0.0818209754285714,-0.3153014942857143,0.2333149971428571,0.6008555214285715,0.3031329428571428,-1.3919027142857143
762,7.620000238,0.1058032128571428,-0.2506722857142857,0.3393751857142857,0.7137750214285715,0.3668355942857143,-1.139361042857143
763,7.630000238,0.1474171366666666,-0.1384531953333333,0.3658444999999999,0.8587749166666668,0.3967962066666666,-0.98315865
764,7.640000238,0.2010875071428571,-0.0059062682857142,0.3693987142857143,1.2331479,0.4315853957142857,-0.6946642357142857
765,7.650000238,0.17083313,0.0336096843333333,0.2709101033333334,1.6623699666666667,0.3528151866666666,-0.5539366766666667
766,7.660000238,0.0104927699999999,0.0723866264285714,0.0276235585714285,2.0007212142857145,0.2315765457142857,-0.3698680242857142
767,7.670000238,-0.2487645214285714,0.1456356757142857,-0.2346826857142857,2.066343685714286,0.0608883771428571,-0.0614774142857143
768,7.680000238,-0.5703432583333333,0.268349,-0.48880901,1.8590627666666664,-0.26414054,0.6148687
769,7.690000238,-0.8509294428571429,0.5441911642857142,-0.9365224628571428,1.4664697800000002,-0.5197655742857143,1.421987028571429
770,7.700000238,-0.7416591666666666,0.6673966466666666,-1.1787274,0.43359974,-0.6603768066666666,2.8449702
771,7.710000238,-0.3267481628571428,0.6821826571428572,-1.247137285714286,-0.6094946428571427,-0.6525812142857143,3.878989171428571
772,7.720000238,0.10485368,0.6581177,-1.18263,-1.425412,-0.6106945,4.5011806
773,7.730000238,0.9180152357142856,0.5590831142857143,-0.7934478528571428,-2.622323728571429,-0.5195910214285714,4.988811371428571
774,7.740000238,1.3658419000000002,0.5182924,-0.55079436,-3.1406712999999997,-0.47508645,5.0106273
775,7.750000238,1.7036838714285714,0.4620783628571429,-0.2401054742857142,-3.755357957142857,-0.1703609428571428,4.2479408
776,7.760000238,1.1471858,0.542333485,-0.0296511199999999,-4.297615700000001,0.30435464,3.5647518999999996
777,7.770000238,0.6497199457142857,0.6089031385714286,0.2182531414285714,-4.5025768571428575,0.4399627328571429,3.683692571428572
778,7.780000238,0.3594024971428571,0.5427930114285714,0.6409781471428572,-4.438896128571429,0.2561849761428571,4.055960571428572
779,7.790000238,0.2232244133333333,0.4505242533333333,1.0048350333333331,-4.1552885,-0.1230348241666666,4.363333216666667
780,7.800000238,0.1503572114285714,0.4113611057142857,1.2408912,-3.134737271428572,-0.8811035428571429,4.937151171428572
781,7.810000238,0.22044986,0.42798229,1.2281306,-2.1991518666666665,-1.077890866666667,5.388945533333334
782,7.820000238,0.3296229,0.42603093,1.0628364,-1.493827,-0.9784246,5.7424226
783,7.830000238,0.6593372,0.4057859,0.6911378999999999,-0.7388198,-0.308936,6.1677246
784,7.840000238,1.0360665714285715,0.3721689285714285,0.3406993304857142,-0.3440379,0.6499196571428572,6.162445142857143
785,7.850000238,1.21868905,0.3563216116666667,-0.04847843775,-0.2986025,1.4747379333333337,5.774593666666667
786,7.860000238,0.9549904142857144,0.40179609,-0.2662698857142857,-0.6265983714285716,1.6789354571428572,5.43473
787,7.870000238,0.7233958728571429,0.4951334285714285,-0.1155903628571428,-1.1493090857142858,1.4265682857142856,5.251301271428572
788,7.880000238,0.90120098,0.6626809499999999,0.3183315866666666,-1.3924263,0.7926252266666666,5.243563866666666
789,7.890000238,1.7299746285714286,0.9367445285714284,0.9345667142857144,-1.1779316714285712,-0.30160584,4.921443728571428
790,7.900000238,2.272724,1.0603057,1.1338466,-0.8951967,-0.892906,4.5647087
791,7.910000238,2.272724,1.0603057,1.1338466,-0.8951967,-0.892906,4.5647087
792,7.920000238,2.272724,1.0603057,1.1338466,-0.8951967,-0.892906,4.5647087
793,7.930000238,2.272724,1.0603057,1.1338466,-0.8951967,-0.892906,4.5647087
794,7.940000238,2.272724,1.0603057,1.1338466,-0.8951967,-0.892906,4.5647087
795,7.950000238,2.272724,1.0603057,1.1338466,-0.8951967,-0.892906,4.5647087
796,7.960000238,1.128288857142857,0.8889238142857143,0.7145016371428571,-0.0407086148571428,1.6487422585714284,-0.6431567614285715
797,7.970000238,0.3953105157142857,0.7284484285714286,0.7270546571428572,0.38182315,2.5629187142857144,-1.8631277857142856
798,7.980000238,0.25014671,0.6821231333333334,0.7781043666666667,0.7256356333333334,2.3568013333333333,-1.7540479
799,7.990000238,0.1888219899999999,0.6271402,0.7323902999999999,1.0645541,2.0513778,-1.6196615
800,8.000000238,0.18882199,0.6271402,0.7323903,1.0645541,2.0513778,-1.6196615
801,8.010000238,0.1888219899999999,0.6271402,0.7323902999999999,1.0645541,2.0513778,-1.6196615
802,8.020000238,0.18882199,0.6271402,0.7323903,1.0645541,2.0513778,-1.6196615
803,8.030000238,0.1888219899999999,0.6271402,0.7323902999999999,1.0645541,2.0513778,-1.6196615
804,8.040000238,0.18882199,0.6271402,0.7323903,1.0645541,2.0513778,-1.6196615
805,8.050000238,1.1000554628571428,0.7325644871428573,0.39404303,1.2783506142857142,1.3480307965714289,-0.7810554808571429
806,8.060000238,2.2727342,0.9450449466666668,0.3478658133333334,0.8967237666666668,1.1998567,-0.2652095133333333
807,8.070000238,2.4243837142857143,0.9948707857142856,0.9847090142857142,0.7205815857142858,1.0857155857142855,-0.2600900302857142
808,8.080000238,2.709081,0.9832688,1.3631791333333332,0.8930077666666666,0.5254813266666667,-0.0408249573333333
809,8.090000238,3.105913,0.9385304,1.6329306,1.1977187,0.07345438,0.06261184
810,8.100000238,3.105913,0.9385304,1.6329306,1.1977187,0.07345438,0.06261184
811,8.110000238,3.1059129999999997,0.9385304,1.6329306,1.1977187,0.07345438,0.06261184
812,8.120000238,3.105913,0.9385304,1.6329306,1.1977187,0.07345438,0.06261184
813,8.130000238,3.1059129999999997,0.9385304,1.6329306,1.1977187,0.07345438,0.06261184
814,8.140000238,3.105913,0.9385304,1.6329306,1.1977187,0.07345438,0.06261184
815,8.150000238,2.424115,0.2608993766666667,0.4621966776666666,-0.0212269633333333,1.7569494600000002,-3.63596662
816,8.160000238,1.3726410571428571,-0.0300496635714285,0.1002410364285714,-0.93830506,2.778111485714286,-5.234284699999999
817,8.170000238,0.8424664014285714,0.08098033,0.50760364,-0.915267392857143,2.513527442857143,-4.6942300999999995
818,8.180000238,0.6568167800000001,0.1459434666666666,0.7440372833333333,-0.5170822,1.8791189,-3.96898
819,8.190000238,0.6584748285714286,0.13306525,0.8084312785714286,0.0189798942857142,1.2380783071428572,-3.4394626857142856
820,8.200000238,0.7130294,0.096804425,0.73068285,0.37780902,0.83457005,-3.184652
821,8.210000238,0.7198242357142857,0.0839116928571428,0.5342210642857143,0.7348274342857143,0.4113401785714285,-3.053756285714286
822,8.220000238,0.67982626,0.053387266,0.10104248,1.0928566666666668,-0.2101823583333333,-2.9737062
823,8.230000238,0.51557887,-0.06841862,-0.46953958,0.9228375,-0.3516953,-3.0062846999999997
824,8.240000238,0.1972109814285714,-0.1291713014285714,-0.6278458857142857,0.1983944654285714,-0.2766483657142857,-3.0401432428571433
825,8.250000238,0.0049240699999999,-0.17944645,-0.533842145,-0.1621799553333333,-0.3655411666666666,-3.009135433333333
826,8.260000238,-0.1463587085714285,-0.2493743157142857,-0.3587840057142857,-0.5634193414285714,-0.7024961399999999,-2.8722474
827,8.270000238,-0.2224011833333333,-0.3178132766666666,-0.1778254253333333,-0.7477788533333333,-1.08354124,-2.680092266666667
828,8.280000238,-0.2171468171428571,-0.4001017514285714,-0.0216780931428571,-0.7939705571428571,-1.4679532285714283,-2.4710080000000003
829,8.290000238,-0.1922106928571428,-0.4469555128571428,0.034631812,-0.7583668714285715,-1.8121220142857144,-2.2954329999999996
830,8.300000238,-0.1582511116666666,-0.501467275,0.0452770311666666,-0.718254575,-2.008669366666666,-2.185916833333333
831,8.310000238,-0.1550743814285714,-0.5345085714285714,0.0455775694285714,-0.6990274000000001,-2.064838257142857,-2.0990893428571424
832,8.320000238,-0.15674695,-0.553325,0.072992064,-0.6875086,-2.0292346,-2.0362594
833,8.330000238,-0.1369897,-0.6150664,0.096408065,-0.63212512,-2.0349358666666664,-1.8937283
834,8.340000238,-0.0891559028571428,-0.6546985000000001,0.0425111928428571,-0.6569662371428572,-2.0229516999999997,-1.7737695428571427
835,8.350000238,-0.0315922908333333,-0.6866102000000001,-0.0161848880833333,-0.7121461166666667,-1.9435124166666664,-1.6864474500000002
836,8.360000238,0.0379203309999999,-0.7020313971428571,-0.1357004264285714,-0.8784419714285713,-1.7068817714285716,-1.5723644714285714
837,8.370000238,-0.0150923445,-0.70927922,-0.248429125,-1.1334270666666666,-1.4301970666666666,-1.443330233333333
838,8.380000238,-0.0813462121428571,-0.6625953000000001,-0.2591091985714285,-1.3885867285714286,-1.2384492285714288,-1.266591742857143
839,8.390000238,-0.1283916425,-0.5694793733333333,-0.230297995,-1.7475321833333333,-1.10481905,-0.8968256
840,8.400000238,-0.21726878,-0.41349974,-0.22501312,-1.9715096,-1.1068553,-0.5873296
841,8.410000238,-0.3069429771428572,-0.2504632214285714,-0.2299567928571428,-2.247088828571429,-1.1490909285714286,-0.1428073571428571
842,8.420000238,-0.21970794,-0.14796595,-0.21425031,-2.5224938,-1.1532797,0.31061584
843,8.430000238,0.2900604814285715,0.065509052,-0.1776628071428571,-3.109605257142857,-0.9723379514285714,0.8660941485714285
844,8.440000238,0.7052190083333333,0.2128223816666666,-0.0552725366666666,-3.545663016666667,-0.91713625,1.077992683333333
845,8.450000238,1.3595392857142856,0.4133559942857143,0.4259830442857142,-3.7541363571428574,-1.3910736857142858,0.8129940571428571
846,8.460000238,1.5437486,0.5060966,0.66820973,-3.7429667,-1.8533105999999997,0.581832
847,8.470000238,1.5516149428571429,0.7024016257142858,0.7577445585714285,-3.583099157142857,-3.0687220857142856,0.1933331577142857
848,8.480000238,1.5674042,0.7472648771428572,0.6526252285714286,-3.5562218285714287,-3.505390685714286,0.0324185362857142
849,8.490000238,1.57137725,0.7686627333333332,0.5685952,-3.655411733333333,-2.8840135,0.0903035846666666
850,8.500000238,1.4968643571428573,1.0061649857142858,0.5785485428571429,-3.7056175714285713,-2.2184226285714286,0.1716917071428571
851,8.510000238,1.3608417,1.1954813,0.5504589333333333,-3.7853186666666665,-1.8028138833333336,0.295751875
852,8.520000238,1.0196588142857144,1.4765103857142858,0.6129538428571429,-4.028843142857142,-1.3796421857142858,0.7179854857142857
853,8.530000238,0.8572603750000001,1.6097890999999998,1.36288445,-3.9184832666666662,-1.9429015,1.3369919
854,8.540000238,1.0064437142857143,1.640034742857143,1.8308560285714288,-3.3291611142857143,-3.0058920428571425,1.8916412142857144
855,8.550000238,1.3041048142857143,1.5817648,1.9450743285714285,-2.1526693428571426,-4.418868942857142,2.365135
856,8.560000238,1.5834155,1.4825103000000002,1.6326867,-1.24541578,-5.1657315,2.5285512000000003
857,8.570000238,1.7615530714285714,1.4149823428571426,1.2972229,-0.5740655285714286,-5.329205785714286,2.472469657142857
858,8.580000238,1.9709991333333337,1.2903597999999998,0.8266844,-0.271318,-4.610675,2.059013333333333
859,8.590000238,2.026063371428571,1.1588393428571426,0.4540116714285714,-0.3182077857142857,-3.5080086,1.553580857142857
860,8.600000238,1.9355615428571429,1.1295999,0.3331422599999999,-0.46865075,-2.9640054714285715,1.2615741
861,8.610000238,1.6336470833333332,1.0581663499999998,0.1022315739999999,-0.82678175,-2.0927627,0.7870767
862,8.620000238,1.2748827571428571,0.8971951857142858,-0.0679482151428571,-1.6489822,-0.7731799,0.1615691
863,8.630000238,0.9768405,0.7369637,-0.16008556,-2.55975545,0.0404686299999999,-0.327108715
864,8.640000238,0.8303489685714285,0.6456474,-0.1752584842857143,-2.9984310285714284,0.3052272885714285,-0.5265939771428572
865,8.650000238,0.62139298,0.489845645,0.00231721,-3.3772725666666665,0.3703261533333333,-0.6903592
866,8.660000238,0.3575949185714285,0.3504777628571429,0.3324323,-3.794801242857143,0.1369824999999999,-0.8894372142857143
867,8.670000238,0.1564943228571428,0.3032798914285714,0.6710321971428571,-3.6775185571428577,-0.3387802714285714,-0.8709372799999999
868,8.680000238,0.0141217591666666,0.2750617783333333,1.0102774666666667,-2.9671906,-1.2081541,-0.6879158
869,8.690000238,-0.02065016,0.2325484114285714,1.2023001714285717,-2.002051942857143,-1.9688479285714284,-0.4758063857142857
870,8.700000238,-0.031800635,0.21982989,1.1677816,-1.6660858,-2.111088,-0.4199575
871,8.710000238,-0.1223721199999999,0.2751031514285714,0.9708275142857142,-0.6485888828571429,-2.1829935285714286,-0.2358306738571428
872,8.720000238,-0.2749652333333333,0.3474592966666667,0.63770998,0.3700716133333333,-1.9135808333333333,0.0015271186666666
873,8.730000238,-0.4112304428571428,0.3391574071428572,0.4847190314285714,0.7591958428571429,-1.7747731000000002,0.1268380757142857
874,8.740000238,-0.62221836,0.3202495142857143,0.5036922628571429,1.1671764,-1.8512162857142855,0.32929031
875,8.750000238,-0.7580015466666666,0.3271125766666666,0.6190808133333333,1.577258533333333,-2.168915033333333,0.53947993
876,8.760000238,-0.8206358485714286,0.3599687428571428,0.6356729799999999,2.160065,-2.7187938857142853,0.8079109428571429
877,8.770000238,-0.7435291233333333,0.4064973066666666,0.4484001266666667,2.555428633333334,-2.8897148,1.0653685333333334
878,8.780000238,-0.5807350928571429,0.4553793628571428,0.1526395571428571,2.734610385714286,-2.576379257142857,1.3242514
879,8.790000238,-0.48834151,0.52910606,-0.0445757733333333,2.4935294000000003,-1.7453433,1.4848170000000005
880,8.800000238,-0.4390064528571428,0.6220179714285715,-0.1036733,1.9761128000000003,-0.3855536942857143,1.7295049714285715
881,8.810000238,-0.45180338,0.6272795999999999,0.0669725485714285,1.6099534428571427,0.3788780171428571,1.930910028571429
882,8.820000238,-0.367003105,0.77356647,0.76874912,1.4717855999999998,0.6557954333333333,2.3957939333333336
883,8.830000238,0.1319807014285714,0.9014419971428572,1.2109373714285714,1.5996562,0.4033119,2.7517142
884,8.840000238,1.023809775,0.96793757,1.59132765,2.5476912,-0.7366054200000001,2.9392443
885,8.850000238,1.7225700714285712,1.085899542857143,1.6484499285714287,3.1866374285714287,-1.1236098714285716,2.7269313142857143
886,8.860000238,2.364202983333333,1.1757494833333333,1.23749095,3.7797701833333335,-1.1365576883333337,2.299076383333333
887,8.870000238,2.5785476285714286,1.3262620714285716,0.7480619628571429,3.8329137857142856,-0.4927137782857143,1.645208
888,8.880000238,2.4136557857142855,1.5734716285714283,0.4790087785714285,3.407066057142857,0.2540906535714285,1.2207564000000002
889,8.890000238,1.9569435,1.7160757,0.9181023,2.9838362000000003,0.91031516,1.2111574
890,8.900000238,3.0955246285714284,1.5500164285714286,1.9685644285714283,2.675271057142857,1.2351113142857142,1.6581230142857142
891,8.910000238,4.4637666,1.2374808,2.9559042000000004,3.7852678,1.7178552,1.0633323
892,8.920000238,4.625034771428572,0.9959988142857144,2.3277882,5.177999571428572,1.9698733714285712,-0.8302723285714286
893,8.930000238,3.536713485714286,0.8246386771428572,1.5750266,5.7630165714285715,2.0260713714285714,-2.0154905285714286
894,8.940000238,2.6835305333333337,0.72971734,1.061627,5.879252,2.0159487,-2.39727005
895,8.950000238,1.806028657142857,0.7049191571428571,0.6229631714285714,5.632120571428572,1.9890713714285713,-1.8250806428571429
896,8.960000238,1.84271415,0.7431683499999999,0.60756595,5.3215485,1.62195215,-1.05768202
897,8.970000238,2.228143828571429,0.6755795000000001,0.606472657142857,5.094400857142857,1.1148617285714286,-0.7618574371428571
898,8.980000238,2.4185964,0.5963661333333333,0.5071434,4.9629813333333335,0.7946614133333334,-0.9094497666666664
899,8.990000238,2.399669685714286,0.5493352171428572,0.3915036871428571,4.817075857142856,0.7151930771428573,-1.1250497714285714
900,9.000000238,2.2197638,0.47801572,0.18671821,4.396115,0.7466081,-1.6025578000000005
901,9.010000238,1.9237446714285713,0.4063695414285714,0.1079113471428571,3.9526398571428567,0.8736643,-1.9589435714285717
902,9.020000238,1.6112264714285711,0.1751190942857143,0.0582699507142857,3.1164772857142857,1.1319654285714285,-2.6272104714285716
903,9.030000238,1.4485957333333337,0.0404901661666666,0.1158604175,2.6824847999999997,1.2841536333333332,-3.0217595
904,9.040000238,1.1510906828571428,-0.098311485,0.35657132,2.4902715714285715,1.2087575771428571,-3.3364913857142855
905,9.050000238,0.8771396,-0.298416805,0.49286411,2.5263115,0.8559497,-3.6379008
906,9.060000238,0.6810545328571429,-0.4724099685714286,0.4507275014285715,2.5955118,0.6764478885714286,-3.7806644571428576
907,9.070000238,0.4947747766666666,-0.6117430166666666,0.3520937133333333,2.6079614,0.6183301533333333,-3.8720589333333337
908,9.080000238,0.4028196385714285,-0.6639847642857142,0.3067164942857143,2.5661910857142862,0.6507923285714285,-3.911735028571429
909,9.090000238,0.36453345,-0.68949145,0.29605386,2.5391393,0.6769715,-3.9274426
910,9.100000238,0.290291325,-0.791199625,0.2976799766666667,2.45056655,0.8205205833333333,-3.9875091
911,9.110000238,0.21687241,-0.89377165,0.3241042799999999,2.408767142857143,0.9141547285714288,-4.041409257142857
912,9.120000238,0.1498410633333333,-0.9567783583333332,0.30319859,2.3986445333333335,0.8854740333333334,-4.096443466666666
913,9.130000238,0.0429772442857142,-1.0222852571428571,0.2173515342857142,2.354489,0.8541171828571429,-4.080677828571429
914,9.140000238,-0.1059106466666666,-1.050539,0.123980808,2.230457866666667,0.9123513066666668,-3.9197049666666666
915,9.150000238,-0.3510178485714285,-1.0423953571428572,0.0345969667142857,2.022537057142858,1.0438289142857142,-3.5848444142857145
916,9.160000238,-0.5412380142857143,-1.0036212228571428,0.0149442518571428,1.850627242857143,1.1267295428571429,-3.211878542857143
917,9.170000238,-0.7515784433333333,-0.9202162533333332,0.0231212673333333,1.6690892333333334,1.1646311833333334,-2.7324216666666667
918,9.180000238,-0.8271170971428571,-0.8583906385714286,0.0502816798571428,1.4816754714285716,1.0576165714285717,-2.0915847142857147
919,9.190000238,-0.7657052333333333,-0.7158954249999999,0.0883537325,1.3343448833333331,0.8182808083333334,-1.3712503333333337
920,9.200000238,-0.5840889,-0.6184812,0.05905832,1.2416998,0.66353285,-0.837777
921,9.210000238,-0.4508749,-0.4942361499999999,0.0326340158333333,1.0596672,0.7527165400000001,-0.04123219
922,9.220000238,-0.2730995614285714,-0.2658299657142857,-0.0924226392857142,0.8773948285714285,1.1783898057142856,0.5855625585714286
923,9.230000238,-0.15780537,-0.1370071199999999,-0.1952248128571428,0.6467563571428572,1.7154118571428572,1.0703135142857143
924,9.240000238,-0.07329696,-0.0407035915,-0.186687725,0.4388937233333332,2.165402766666667,1.3830091
925,9.250000238,-0.0092775454285714,0.0620942157142857,-0.1190618185714285,0.2716961242857142,2.502008585714286,1.6286278142857142
926,9.260000238,-0.0049545579999999,0.129153882,-0.00792729,0.209215185,2.5712087,1.86781825
927,9.270000238,-0.0678567442857142,0.1777368571428571,0.0617196288571428,0.2538943057142857,2.3709381,2.112942542857143
928,9.280000238,-0.1176288099999999,0.2428495366666666,0.0976276493333333,0.38351027,1.919434866666667,2.6328026
929,9.290000238,-0.0989082099999999,0.28547397,0.12201932,0.45599747,1.7093034,2.944742
930,9.300000238,-0.035951575,0.2953003328571428,0.1681456957142857,0.45599747,1.7093034,2.944742
931,9.310000238,0.1371116541666666,0.3107193583333333,0.22420006,0.68201095,1.2988139,3.5836883
932,9.320000238,1.0658069714285714,0.3498244085714285,-0.1152157905714285,1.2008602285714285,0.6876176857142857,4.5193318428571425
933,9.330000238,1.1374139,0.452648325,-0.374473085,1.1207011,0.7343911333333333,4.684842233333334
934,9.340000238,1.1710918285714285,0.5077604214285715,-0.4882863328571428,0.5938744414285715,1.0221874285714283,4.914811571428571
935,9.350000238,1.2552968,0.4660536066666667,-0.40111079,0.0540599866666666,1.3008501,5.122208933333334
936,9.360000238,1.2702308857142857,0.3816207,-0.0802790757142857,-0.41751408,1.4546673,5.383418857142857
937,9.370000238,1.2892216,0.3266959,0.22842796,-0.6083020366666667,1.3751699333333336,5.693758266666666
938,9.380000238,1.5326372714285714,0.1249550308571428,0.8363684857142858,-0.3349624557142857,1.0837957142857142,5.7581299999999995
939,9.390000238,1.658315342857143,0.1316191837142857,0.9754576571428571,-0.0366944671428571,0.7874475504285714,5.732299914285714
940,9.400000238,2.188613533333333,0.2423515333333333,0.86873975,0.986900075,-0.0804791235,5.4553242
941,9.410000238,2.468955,0.23080614,0.6376896499999999,1.2209309000000002,-0.1965401,5.275735
942,9.420000238,2.5218952,0.2945446333333333,0.2044936425,1.2830337833333332,-0.153984407,4.589550099999999
943,9.430000238,2.222873585714286,0.3841252,0.0714196735714285,1.075549294285714,-0.0159038442857142,3.7028906285714287
944,9.440000238,1.8348327,0.3973199266666666,0.3128841133333333,0.9248736666666666,-0.1203878133333333,3.1565022666666667
945,9.450000238,1.4442524,0.3619549171428571,0.6425200714285715,1.0814832942857142,-0.5003929814285714,2.767770742857143
946,9.460000238,1.1646715533333334,0.3349280766666667,0.8139093133333333,1.3504306333333334,-0.7915053416666668,2.5969662333333337
947,9.470000238,0.8992379642857143,0.3794210885714286,0.8093808942857142,1.931084557142857,-1.0746331142857142,2.4916677999999997
948,9.480000238,0.79477197,0.4487457,0.7148283,2.3595502,-1.1105204,2.5134838
949,9.490000238,0.8101692000000001,0.50780404,0.4461235699999999,2.5183706,-0.7902836,2.5757902
950,9.500000238,1.0433710857142855,0.5696630285714286,0.2071810814285714,2.2630363428571427,0.7719146028571429,2.4338990285714286
951,9.510000238,1.0620133,0.602962,0.24187386,2.1457536,1.2096303,2.2740316
952,9.520000238,0.9172573857142856,0.5397353085714286,0.5128827171428572,2.0986312285714286,1.6578176571428571,1.8645894142857145
953,9.530000238,0.7595108,0.4872997700000001,0.7499523,2.3326729,1.5712519,1.5251329
954,9.540000238,0.6362174571428572,0.4468553485714285,0.8877042428571429,2.8349639142857144,1.0008950857142858,1.2888222714285715
955,9.550000238,0.5087971057142857,0.3446673328571428,0.8995603071428572,3.333938914285714,0.4013920974285714,1.1228462857142856
956,9.560000238,0.42773837,0.283019575,0.7600900749999999,3.846759666666667,-0.226268004,0.9619316666666666
957,9.570000238,0.3710495285714286,0.26314255,0.5975087557142856,4.267487942857143,-0.7600903428571428,0.8415075714285714
958,9.580000238,0.3574599,0.26714975,0.43905002,4.4865203,-1.0541697,0.797003
959,9.590000238,0.38502246,0.23861149,0.24284953,4.600138,-1.2168077,0.75653434
960,9.600000238,0.6081299933333334,0.312015165,0.12162803,4.469823833333334,-1.1862654499999998,0.7595885566666666
961,9.610000238,1.2491364142857144,0.3214342657142857,0.0123918380857142,4.130134728571429,-0.7541563714285714,0.5221435142857144
962,9.620000238,1.9201903571428571,0.3814029342857142,0.0493757028428571,3.7316876714285714,-0.11747902,-0.1736987885714285
963,9.630000238,2.1389966,0.4248114,0.08274873,3.4855453,0.22331557,-0.81334312
964,9.640000238,1.9517037,0.5202045828571429,-0.121139474,3.027817128571429,0.6425894857142858,-1.6973263
965,9.650000238,1.5313902666666668,0.65153192,-0.30292418,2.3131258333333338,1.0231182733333333,-1.8558557
966,9.660000238,1.2688850571428572,0.7747359371428572,-0.1470425514285714,1.19660617,1.3558846,-1.1910212414285712
967,9.670000238,1.4071299166666666,0.7733073,0.24571555,0.7534800916666667,1.31062365,-0.6826217916666666
968,9.680000238,1.7175305142857142,0.7469251371428571,0.7523304714285715,0.6567044142857144,0.9984516714285716,-0.3410709301428571
969,9.690000238,2.7344671285714286,0.6061416085714286,1.8247100857142855,1.2655010142857142,-0.1185698142857142,-0.096382965
970,9.700000238,3.4950365,0.38442792,2.1444543499999997,2.2691448,-1.0995251,-0.3014531
971,9.710000238,3.713683800000001,0.2656339728571429,2.011593871428571,3.2780900857142856,-1.3857506999999998,-0.8756495285714286
972,9.720000238,3.7265284333333337,0.1420408016666666,1.5378692333333337,4.0723658,-1.2705623,-1.5475816
973,9.730000238,3.3575913428571424,0.1340496371428571,0.9094345857142856,4.244450271428571,-0.4745628514285714,-2.3928196714285717
974,9.740000238,3.044672328571429,0.15446894,0.6116863742857143,3.948451171428572,-0.10089888,-2.461758085714286
975,9.750000238,2.9174922999999997,0.143174005,0.5087237666666666,3.5979411999999997,0.2343108333333333,-2.4286269500000004
976,9.760000238,2.9460910714285715,0.0495368637142857,0.5876039571428572,3.091868885714286,0.6781931857142858,-2.3806025571428573
977,9.770000238,2.9687405000000004,-0.013750802,0.6947966,2.9618456,0.80036265,-2.4565222
978,9.780000238,2.794322414285714,-0.0934767085714285,0.7295286657142858,2.8440395428571428,0.8996689285714286,-2.8684077857142856
979,9.790000238,2.4638329,-0.1486977,0.63918364,2.7908084,0.918867,-3.1956475
980,9.800000238,2.142934257142857,-0.2207620028571428,0.5682561657142857,2.7269312571428572,0.92340472,-3.4658165
981,9.810000238,1.9240146571428571,-0.2786355871428571,0.5163803114285714,2.684171942857143,0.8363153828571429,-3.7677495857142858
982,9.820000238,1.7199987166666668,-0.3261623266666666,0.4480698416666667,2.6653811333333333,0.7368345233333334,-3.9828260000000006
983,9.830000238,1.4819506,-0.3694248471428571,0.3517583285714285,2.622214685714286,0.6574243785714285,-4.154677671428572
984,9.840000238,1.2086071333333333,-0.4106336966666666,0.23486126,2.4617654333333334,0.6338049533333333,-4.3566644666666665
985,9.850000238,1.0464026,-0.43032995,0.17595538,2.3754323,0.65986776,-4.40879
986,9.860000238,1.0464026,-0.43032995,0.17595538,2.3754323,0.65986776,-4.40879
987,9.870000238,0.8052734714285714,-0.4717783957142857,0.111090975,2.164253657142857,0.790414517142857,-4.4730162571428576
988,9.880000238,0.6834980785714286,-0.5068196285714286,0.0888118064285714,2.044178542857143,0.8921642357142857,-4.496577571428571
989,9.890000238,0.5687984300000001,-0.56064245,0.0467557795,1.93867655,1.0049965,-4.49614125
990,9.900000238,0.5014360771428572,-0.5919116999999999,-0.0028398875714285,1.8748865857142856,1.0892061714285717,-4.465511571428571
991,9.910000238,0.41418577,-0.60079725,-0.0640433715,1.7882044,1.1904904666666667,-4.408382766666667
992,9.920000238,0.3467841799999999,-0.5944031442857142,-0.1045792742857142,1.6450334285714283,1.2939272285714285,-4.304247885714286
993,9.930000238,0.2966026799999999,-0.5912438233333334,-0.1255154566666666,1.5349064166666668,1.3260984666666666,-4.225943166666667
994,9.940000238,0.2405845971428571,-0.5858529742857143,-0.1091832014285714,1.3549682714285716,1.2290028571428573,-4.110871114285715
995,9.950000238,0.2021677142857142,-0.5776120914285714,-0.0714632328571428,1.212902671428571,1.046272282857143,-4.0033622
996,9.960000238,0.1845839333333333,-0.5736513799999999,-0.05010455,1.1675836833333333,0.9469659833333334,-3.955745
997,9.970000238,0.17255362,-0.5902696571428571,-0.0415355271428571,1.0867191,0.7562070857142856,-3.8658341857142857
998,9.980000238,0.1620419766666666,-0.6198227500000001,-0.0450483625,0.9784246066666666,0.6010227883333333,-3.7405232
999,9.990000238,0.12951976,-0.6350675,-0.049545575,0.90817714,0.60000473,-3.6427877
