id,timestamp,acc_x,acc_y,acc_z,gyro_x,gyro_y,gyro_z
1,0.01,-0.13057062,0.39586085,0.84102124,-0.034208454,-0.004886922,-0.01038471
2,0.02,-0.13057062,0.39586085,0.84102124,0.0226901340057152,0.037787019327704,-0.0534537796115169
3,0.03,-0.13057062,0.39586085,0.84102124,0.05375614,0.061086524,-0.07696902
4,0.04,-0.13057062,0.39586085,0.84102124,0.05375614,0.061086524,-0.07696902
5,0.05,-0.13057062,0.39586085,0.84102124,0.05375614,0.061086524,-0.07696902
6,0.06,-0.13057062,0.39586085,0.84102124,0.05375614,0.061086524,-0.07696902
7,0.07,-0.13057062,0.39586085,0.84102124,0.05375614,0.061086524,-0.07696902
8,0.08,-0.13057062,0.39586085,0.84102124,0.05375614,0.061086524,-0.07696902
9,0.09,-0.13057062,0.39586085,0.84102124,0.05375614,0.061086524,-0.07696902
10,0.1,-0.13057062,0.39586085,0.84102124,0.05375614,0.061086524,-0.07696902
11,0.11,-0.13057062,0.39586085,0.84102124,0.05375614,0.061086524,-0.07696902
12,0.12,-0.13057062,0.39586085,0.84102124,0.05375614,0.061086524,-0.07696902
13,0.13,-0.13057062,0.39586085,0.84102124,0.05375614,0.061086524,-0.07696902
14,0.14,-0.1439083344856895,0.3819736406203558,0.8494884455640698,0.05375614,0.061086524,-0.07696902
15,0.15,-0.2476291222736897,0.2739797036846799,0.9153337020666388,0.05375614,0.061086524,-0.07696902
16,0.16,-0.2608972,0.260165,0.9237567,0.05375614,0.061086524,-0.07696902
17,0.17,-0.1991486347481849,0.33706218520913,0.8796093354916416,0.05375614,0.061086524,-0.07696902
18,0.18,-0.1539841301807275,0.3954677603417063,0.8679088405497618,0.05375614,0.061086524,-0.07696902
19,0.19,-0.15058333,0.40269446,0.89398164,0.05375614,0.061086524,-0.07696902
20,0.2,-0.15058333,0.40269446,0.89398164,0.05375614,0.061086524,-0.07696902
21,0.21,-0.15058333,0.40269446,0.89398164,0.05375614,0.061086524,-0.07696902
22,0.22,-0.15058333,0.40269446,0.89398164,0.05375614,0.061086524,-0.07696902
23,0.23,-0.15058333,0.40269446,0.89398164,0.0253289233959489,0.0348047571299942,-0.0418372705020891
24,0.24,-0.15058333,0.40269446,0.89398164,-0.010995574,0.0012217305,0.0030543262
25,0.25,-0.15058333,0.40269446,0.89398164,-0.010995574,0.0012217305,0.0030543262
26,0.26,-0.15058333,0.40269446,0.89398164,-0.010995574,0.0012217305,0.0030543262
27,0.27,-0.15058333,0.40269446,0.89398164,-0.010995574,0.0012217305,0.0030543262
28,0.28,-0.1529081342542998,0.3977542514557408,0.8761581420400427,-0.010995574,0.0012217305,0.0030543262
29,0.29,-0.1564407,0.39024755,0.84907514,-0.010995574,0.0012217305,0.0030543262
30,0.3,-0.1564407,0.39024755,0.84907514,-0.010995574,0.0012217305,0.0030543262
31,0.31,-0.1564407,0.39024755,0.84907514,-0.010995574,0.0012217305,0.0030543262
32,0.32,-0.1564407,0.39024755,0.84907514,-0.010995574,0.0012217305,0.0030543262
33,0.33,-0.1564407,0.39024755,0.84907514,-0.010995574,0.0012217305,0.0030543262
34,0.34,-0.1564407,0.39024755,0.84907514,-0.010995574,0.0012217305,0.0030543262
35,0.35,-0.1564407,0.39024755,0.84907514,-0.0273734417591433,0.0251951315524857,-0.0232926782465264
36,0.36,-0.1564407,0.39024755,0.84907514,-0.053145275,0.06291912,-0.064751714
37,0.37,-0.1588828614074833,0.3879788366717923,0.8502407171193803,-0.0482655907144029,0.0621203104910302,-0.0645954251817916
38,0.38,-0.2272855603420468,0.324434259199271,0.8828874621451943,0.088409886205604,0.0397463895123868,-0.0602179188687427
39,0.39,-0.24234885,0.3104408,0.89007676,0.118507855,0.03481932,-0.059253927
40,0.4,-0.24234885,0.3104408,0.89007676,0.118507855,0.03481932,-0.059253927
41,0.41,-0.24234885,0.3104408,0.89007676,0.118507855,0.03481932,-0.059253927
42,0.42,-0.24234885,0.3104408,0.89007676,0.118507855,0.03481932,-0.059253927
43,0.43,-0.24234885,0.3104408,0.89007676,0.118507855,0.03481932,-0.059253927
44,0.44,-0.24234885,0.3104408,0.89007676,0.118507855,0.03481932,-0.059253927
45,0.45,-0.1622684976799273,0.3819083995283485,0.9045535412118332,0.118507855,0.03481932,-0.059253927
46,0.46,-0.13569583,0.40562314,0.9093573,0.118507855,0.03481932,-0.059253927
47,0.47,-0.13569583,0.40562314,0.9093573,0.118507855,0.03481932,-0.059253927
48,0.48,-0.13569583,0.40562314,0.9093573,0.118507855,0.03481932,-0.059253927
49,0.49,-0.13569583,0.40562314,0.9093573,0.118507855,0.03481932,-0.059253927
50,0.5,-0.1347718257363621,0.3973071243432753,0.8810828634255484,0.118507855,0.03481932,-0.059253927
51,0.51,-0.13447554,0.39464056,0.87201655,0.0895059469115143,-0.0572448791934295,-0.02317015726948
52,0.52,-0.13447554,0.39464056,0.87201655,0.0614206709494078,-0.0600130519517566,-0.0248502148765046
53,0.53,-0.13447554,0.39464056,0.87201655,0.05375614,0.061086524,-0.07696902
54,0.54,-0.13447554,0.39464056,0.87201655,0.05375614,0.061086524,-0.07696902
55,0.55,-0.13447554,0.39464056,0.87201655,0.05375614,0.061086524,-0.07696902
56,0.56,-0.13447554,0.39464056,0.87201655,0.05375614,0.061086524,-0.07696902
57,0.57,-0.13447554,0.39464056,0.87201655,0.05375614,0.061086524,-0.07696902
58,0.58,-0.13447554,0.39464056,0.87201655,-0.0370718640365398,0.0212768026429967,-0.0309752646702417
59,0.59,-0.13447554,0.39464056,0.87201655,-0.08979719,-0.0018325958,-0.004276057
60,0.6,-0.13447554,0.39464056,0.87201655,-0.08979719,-0.0018325958,-0.004276057
61,0.61,-0.13447554,0.39464056,0.87201655,-0.08979719,-0.0018325958,-0.004276057
62,0.62,-0.13447554,0.39464056,0.87201655,-0.08979719,-0.0018325958,-0.004276057
63,0.63,-0.13447554,0.39464056,0.87201655,-0.08979719,-0.0018325958,-0.004276057
64,0.64,-0.13447554,0.39464056,0.87201655,-0.08979719,-0.0018325958,-0.004276057
65,0.65,-0.13447554,0.39464056,0.87201655,-0.08979719,-0.0018325958,-0.004276057
66,0.66,-0.13447554,0.39464056,0.87201655,-0.08979719,-0.0018325958,-0.004276057
67,0.67,-0.13447554,0.39464056,0.87201655,-0.08979719,-0.0018325958,-0.004276057
68,0.68,-0.13447554,0.39464056,0.87201655,-0.0739571061034067,-0.0091434037829608,-0.0128053330466096
69,0.69,-0.1445899875970595,0.3959048756628175,0.87401839428497,-0.065973446,-0.01282817,-0.017104227
70,0.7,-0.15790504,0.39756927,0.8766537,-0.065973446,-0.01282817,-0.017104227
71,0.71,-0.15790504,0.39756927,0.8766537,-0.065973446,-0.01282817,-0.017104227
72,0.72,-0.15790504,0.39756927,0.8766537,-0.065973446,-0.01282817,-0.017104227
73,0.73,-0.15790504,0.39756927,0.8766537,-0.065973446,-0.01282817,-0.017104227
74,0.74,-0.15790504,0.39756927,0.8766537,-0.065973446,-0.01282817,-0.017104227
75,0.75,-0.15790504,0.39756927,0.8766537,-0.065973446,-0.01282817,-0.017104227
76,0.76,-0.15790504,0.39756927,0.8766537,-0.065973446,-0.01282817,-0.017104227
77,0.77,-0.15790504,0.39756927,0.8766537,-0.065973446,-0.01282817,-0.017104227
78,0.78,-0.15790504,0.39756927,0.8766537,-0.065973446,-0.01282817,-0.017104227
79,0.79,-0.15790504,0.39756927,0.8766537,-0.065973446,-0.01282817,-0.017104227
80,0.8,-0.15790504,0.39756927,0.8766537,-0.065973446,-0.01282817,-0.017104227
81,0.81,-0.15790504,0.39756927,0.8766537,-0.0554852341828798,-0.0063254786527821,-0.0182579301899988
82,0.82,-0.15790504,0.39756927,0.8766537,-0.004886922,0.025045475,-0.023823744
83,0.83,-0.15790504,0.39756927,0.8766537,-0.004886922,0.025045475,-0.023823744
84,0.84,-0.15790504,0.39756927,0.8766537,-0.004886922,0.025045475,-0.023823744
85,0.85,-0.15790504,0.39756927,0.8766537,-0.004886922,0.025045475,-0.023823744
86,0.86,-0.1383549508374736,0.3960788985306409,0.8701662255964036,-0.004886922,0.025045475,-0.023823744
87,0.87,-0.10348027,0.39342028,0.85859346,-0.004886922,0.025045475,-0.023823744
88,0.88,-0.1047637790329704,0.3934868330676045,0.8582987249863226,-0.004886922,0.025045475,-0.023823744
89,0.89,-0.1320697514350965,0.3949027142033077,0.8520283942424944,-0.004886922,0.025045475,-0.023823744
90,0.9,-0.136428,0.3951287,0.8510276,-0.004886922,0.025045475,-0.023823744
91,0.91,-0.136428,0.3951287,0.8510276,-0.004886922,0.025045475,-0.023823744
92,0.92,-0.136428,0.3951287,0.8510276,-0.004886922,0.025045475,-0.023823744
93,0.93,-0.136428,0.3951287,0.8510276,-0.004886922,0.025045475,-0.023823744
94,0.94,-0.136428,0.3951287,0.8510276,-0.0106065497391693,0.0295342968734993,-0.028674567494119
95,0.95,-0.136428,0.3951287,0.8510276,-0.0489672439533855,0.0596401588498245,-0.0612083206037333
96,0.96,-0.136428,0.3951287,0.8510276,-0.053145275,0.06291912,-0.064751714
97,0.97,-0.136428,0.3951287,0.8510276,-0.053145275,0.06291912,-0.064751714
98,0.98,-0.136428,0.3951287,0.8510276,-0.053145275,0.06291912,-0.064751714
99,0.99,-0.136428,0.3951287,0.8510276,-0.053145275,0.06291912,-0.064751714
100,1.0,-0.136428,0.3951287,0.8510276,-0.053145275,0.06291912,-0.064751714
101,1.01,-0.136428,0.3951287,0.8510276,-0.053145275,0.06291912,-0.064751714
102,1.02,-0.136428,0.3951287,0.8510276,-0.053145275,0.06291912,-0.064751714
103,1.03,-0.136428,0.3951287,0.8510276,-0.053145275,0.06291912,-0.064751714
104,1.04,-0.136428,0.3951287,0.8510276,-0.053145275,0.06291912,-0.064751714
105,1.05,-0.136428,0.3951287,0.8510276,-0.053145275,0.06291912,-0.064751714
106,1.06,-0.136428,0.3951287,0.8510276,-0.0995451656460235,-0.0240243561448975,-0.0404255590134111
107,1.07,-0.136116975385712,0.3995867208874545,0.8758059608233459,-0.1160644,-0.05497787,-0.03176499
108,1.08,-0.13569583,0.40562314,0.9093573,-0.1160644,-0.05497787,-0.03176499
109,1.09,-0.13569583,0.40562314,0.9093573,-0.1160644,-0.05497787,-0.03176499
110,1.1,-0.13569583,0.40562314,0.9093573,-0.0609855380348639,-0.0212728974791911,-0.0173787230463939
111,1.11,-0.1306345201308854,0.4033225471757998,0.8755385468357838,-0.034208454,-0.004886922,-0.01038471
112,1.12,-0.12495731,0.400742,0.83760446,-0.034208454,-0.004886922,-0.01038471
113,1.13,-0.12495731,0.400742,0.83760446,-0.034208454,-0.004886922,-0.01038471
114,1.14,-0.12495731,0.400742,0.83760446,-0.034208454,-0.004886922,-0.01038471
115,1.15,-0.12495731,0.400742,0.83760446,-0.034208454,-0.004886922,-0.01038471
116,1.16,-0.12495731,0.400742,0.83760446,-0.034208454,-0.004886922,-0.01038471
117,1.17,-0.12495731,0.400742,0.83760446,-0.034208454,-0.004886922,-0.01038471
118,1.18,-0.12495731,0.400742,0.83760446,-0.034208454,-0.004886922,-0.01038471
119,1.19,-0.12495731,0.400742,0.83760446,-0.034208454,-0.004886922,-0.01038471
120,1.2,-0.12495731,0.400742,0.83760446,-0.034208454,-0.004886922,-0.01038471
121,1.21,-0.12495731,0.400742,0.83760446,-0.034208454,-0.004886922,-0.01038471
122,1.22,-0.12495731,0.400742,0.83760446,-0.034208454,-0.004886922,-0.01038471
123,1.23,-0.12495731,0.400742,0.83760446,-0.034208454,-0.004886922,-0.01038471
124,1.24,-0.12495731,0.400742,0.83760446,-0.034208454,-0.004886922,-0.01038471
125,1.25,-0.1444385824890257,0.4022262884413546,0.8804632108221273,-0.034208454,-0.004886922,-0.01038471
126,1.26,-0.15058333,0.40269446,0.89398164,-0.034208454,-0.004886922,-0.01038471
127,1.27,-0.15058333,0.40269446,0.89398164,-0.034208454,-0.004886922,-0.01038471
128,1.28,-0.15058333,0.40269446,0.89398164,-0.034208454,-0.004886922,-0.01038471
129,1.29,-0.15058333,0.40269446,0.89398164,-0.034208454,-0.004886922,-0.01038471
130,1.3,-0.15058333,0.40269446,0.89398164,-0.034208454,-0.004886922,-0.01038471
131,1.31,-0.15058333,0.40269446,0.89398164,-0.034208454,-0.004886922,-0.01038471
132,1.32,-0.15058333,0.40269446,0.89398164,-0.034208454,-0.004886922,-0.01038471
133,1.33,-0.1287530671548852,0.3969047006900626,0.8790801465034155,-0.034208454,-0.004886922,-0.01038471
134,1.34,-0.09445015,0.38780698,0.85566473,-0.034208454,-0.004886922,-0.01038471
135,1.35,-0.09445015,0.38780698,0.85566473,-0.034208454,-0.004886922,-0.01038471
136,1.36,-0.09445015,0.38780698,0.85566473,-0.034208454,-0.004886922,-0.01038471
137,1.37,-0.09445015,0.38780698,0.85566473,-0.034208454,-0.004886922,-0.01038471
138,1.38,-0.09445015,0.38780698,0.85566473,-0.1152301861371021,-0.0165208115230141,-0.0469483614262632
139,1.39,-0.09445015,0.38780698,0.85566473,-0.15332718,-0.021991149,-0.06414085
140,1.4,-0.09445015,0.38780698,0.85566473,-0.15332718,-0.021991149,-0.06414085
141,1.41,-0.09445015,0.38780698,0.85566473,-0.1393243370795841,-0.0172621188085165,-0.0600873955788825
142,1.42,-0.09445015,0.38780698,0.85566473,-0.014049901,0.025045475,-0.023823744
143,1.43,-0.09445015,0.38780698,0.85566473,-0.014049901,0.025045475,-0.023823744
144,1.44,-0.09445015,0.38780698,0.85566473,-0.014049901,0.025045475,-0.023823744
145,1.45,-0.09445015,0.38780698,0.85566473,-0.0931782235316286,-0.0031979675623,-0.0485659332447282
146,1.46,-0.09445015,0.38780698,0.85566473,-0.22113322,-0.04886922,-0.08857546
147,1.47,-0.09445015,0.38780698,0.85566473,-0.22113322,-0.04886922,-0.08857546
148,1.48,-0.09445015,0.38780698,0.85566473,-0.22113322,-0.04886922,-0.08857546
149,1.49,-0.09445015,0.38780698,0.85566473,-0.22113322,-0.04886922,-0.08857546
150,1.5,-0.09445015,0.38780698,0.85566473,-0.22113322,-0.04886922,-0.08857546
151,1.51,-0.09445015,0.38780698,0.85566473,-0.22113322,-0.04886922,-0.08857546
152,1.52,-0.09445015,0.38780698,0.85566473,-0.22113322,-0.04886922,-0.08857546
153,1.53,-0.09445015,0.38780698,0.85566473,-0.22113322,-0.04886922,-0.08857546
154,1.54,-0.09445015,0.38780698,0.85566473,-0.22113322,-0.04886922,-0.08857546
155,1.55,-0.0942769884452748,0.3931750307675937,0.8566171061344133,-0.22113322,-0.04886922,-0.08857546
156,1.56,-0.0947331447469384,0.4005517561371899,0.8598547970550969,-0.22113322,-0.04886922,-0.08857546
157,1.57,-0.0988130612430997,0.387923437486815,0.8678203844728881,-0.22113322,-0.04886922,-0.08857546
158,1.58,-0.099087246,0.38707477,0.8683557,-0.22113322,-0.04886922,-0.08857546
159,1.59,-0.099087246,0.38707477,0.8683557,-0.22113322,-0.04886922,-0.08857546
160,1.6,-0.099087246,0.38707477,0.8683557,-0.22113322,-0.04886922,-0.08857546
161,1.61,-0.099087246,0.38707477,0.8683557,-0.22113322,-0.04886922,-0.08857546
162,1.62,-0.099087246,0.38707477,0.8683557,-0.2154644076070656,-0.0491988019903954,-0.0855103461404893
163,1.63,-0.099087246,0.38707477,0.8683557,-0.1304710475296749,-0.054140274532266,-0.0395546312778327
164,1.64,-0.099087246,0.38707477,0.8683557,-0.1160644,-0.05497787,-0.03176499
165,1.65,-0.099087246,0.38707477,0.8683557,-0.1364702118858385,-0.0369137099062915,-0.0494946309125203
166,1.66,-0.099087246,0.38707477,0.8683557,-0.15332718,-0.021991149,-0.06414085
167,1.67,-0.099087246,0.38707477,0.8683557,-0.15332718,-0.021991149,-0.06414085
168,1.68,-0.099087246,0.38707477,0.8683557,-0.15332718,-0.021991149,-0.06414085
169,1.69,-0.099087246,0.38707477,0.8683557,-0.15332718,-0.021991149,-0.06414085
170,1.7,-0.1734525019877147,0.3418171492082433,0.8799987066799619,-0.15332718,-0.021991149,-0.06414085
171,1.71,-0.1334570533021107,0.3648727990201388,0.8663798563910879,-0.15332718,-0.021991149,-0.06414085
172,1.72,-0.09445015,0.38780698,0.85566473,-0.15332718,-0.021991149,-0.06414085
173,1.73,-0.09445015,0.38780698,0.85566473,-0.15332718,-0.021991149,-0.06414085
174,1.74,-0.09445015,0.38780698,0.85566473,-0.15332718,-0.021991149,-0.06414085
175,1.75,-0.09445015,0.38780698,0.85566473,-0.15332718,-0.021991149,-0.06414085
176,1.76,-0.09445015,0.38780698,0.85566473,-0.15332718,-0.021991149,-0.06414085
177,1.77,-0.09445015,0.38780698,0.85566473,-0.15332718,-0.021991149,-0.06414085
178,1.78,-0.09445015,0.38780698,0.85566473,-0.15332718,-0.021991149,-0.06414085
179,1.79,-0.0943428794258492,0.3911323941707386,0.8562547104659767,-0.15332718,-0.021991149,-0.06414085
180,1.8,-0.09396204,0.40293851,0.8583493,-0.15332718,-0.021991149,-0.06414085
181,1.81,-0.09396204,0.40293851,0.8583493,-0.15332718,-0.021991149,-0.06414085
182,1.82,-0.09396204,0.40293851,0.8583493,-0.15332718,-0.021991149,-0.06414085
183,1.83,-0.09396204,0.40293851,0.8583493,-0.2211772597595839,-0.0985593823602018,-0.1054573737464399
184,1.84,-0.09396204,0.40293851,0.8583493,-0.26267207,-0.14538592,-0.13072516
185,1.85,-0.09396204,0.40293851,0.8583493,-0.26267207,-0.14538592,-0.13072516
186,1.86,-0.09396204,0.40293851,0.8583493,-0.26267207,-0.14538592,-0.13072516
187,1.87,-0.09396204,0.40293851,0.8583493,-0.26267207,-0.14538592,-0.13072516
188,1.88,-0.09396204,0.40293851,0.8583493,-0.26267207,-0.14538592,-0.13072516
189,1.89,-0.09396204,0.40293851,0.8583493,-0.26267207,-0.14538592,-0.13072516
190,1.9,-0.09396204,0.40293851,0.8583493,-0.26267207,-0.14538592,-0.13072516
191,1.91,-0.09396204,0.40293851,0.8583493,-0.26267207,-0.14538592,-0.13072516
192,1.92,-0.09396204,0.40293851,0.8583493,-0.26267207,-0.14538592,-0.13072516
193,1.93,-0.09396204,0.40293851,0.8583493,-0.1295104735284125,-0.0556465956685721,-0.0538057361464235
194,1.94,-0.09396204,0.40293851,0.8583493,-0.065973446,-0.01282817,-0.017104227
195,1.95,-0.09396204,0.40293851,0.8583493,-0.0818846626325171,-0.0275911526496307,-0.0253058837292105
196,1.96,-0.09396204,0.40293851,0.8583493,-0.12522738,-0.06780604,-0.047647487
197,1.97,-0.09396204,0.40293851,0.8583493,-0.12522738,-0.06780604,-0.047647487
198,1.98,-0.095583832313855,0.4015662341833257,0.8721969355165301,-0.12522738,-0.06780604,-0.047647487
199,1.99,-0.097134784,0.4002539,0.8854397,-0.12522738,-0.06780604,-0.047647487
200,2.0,-0.097134784,0.4002539,0.8854397,-0.12522738,-0.06780604,-0.047647487
201,2.01,-0.097134784,0.4002539,0.8854397,-0.12522738,-0.06780604,-0.047647487
202,2.02,-0.097134784,0.4002539,0.8854397,-0.12522738,-0.06780604,-0.047647487
203,2.03,-0.097134784,0.4002539,0.8854397,-0.12522738,-0.06780604,-0.047647487
204,2.04,-0.097134784,0.4002539,0.8854397,-0.12522738,-0.06780604,-0.047647487
205,2.05,-0.097134784,0.4002539,0.8854397,-0.1693293899912455,-0.0742982134643323,-0.069586558185207
206,2.06,-0.097134784,0.4002539,0.8854397,-0.24556783,-0.08552113,-0.10751228
207,2.07,-0.097134784,0.4002539,0.8854397,-0.24556783,-0.08552113,-0.10751228
208,2.08,-0.097134784,0.4002539,0.8854397,-0.24556783,-0.08552113,-0.10751228
209,2.09,-0.097134784,0.4002539,0.8854397,-0.24556783,-0.08552113,-0.10751228
210,2.1,-0.097134784,0.4002539,0.8854397,-0.24556783,-0.08552113,-0.10751228
211,2.11,-0.102086877740817,0.3986032018664409,0.8923645703184395,-0.24556783,-0.08552113,-0.10751228
212,2.12,-0.1263248519672376,0.3905238760477408,0.9262582801479204,-0.24556783,-0.08552113,-0.10751228
213,2.13,-0.12715383,0.39024755,0.9274175,-0.24556783,-0.08552113,-0.10751228
214,2.14,-0.12715383,0.39024755,0.9274175,-0.2584146061480292,-0.1304848089637409,-0.12494717761083
215,2.15,-0.12715383,0.39024755,0.9274175,-0.26267207,-0.14538592,-0.13072516
216,2.16,-0.12715383,0.39024755,0.9274175,-0.26267207,-0.14538592,-0.13072516
217,2.17,-0.12715383,0.39024755,0.9274175,-0.26267207,-0.14538592,-0.13072516
218,2.18,-0.121637372147106,0.390986865562324,0.9113799916604902,-0.26267207,-0.14538592,-0.13072516
219,2.19,-0.1080964811361483,0.3906412897877623,0.8601450605648152,-0.2634062825097438,-0.1450381352767875,-0.1302807684092285
220,2.2,-0.2353293748460282,0.3140462303621536,0.9029105719161964,-0.2836427880458933,-0.1354524262575655,-0.1180323624402226
221,2.21,-0.24942651,0.30555966,0.9076489,-0.28588495,-0.13439035,-0.116675265
222,2.22,-0.24942651,0.30555966,0.9076489,-0.28588495,-0.13439035,-0.116675265
223,2.23,-0.2049731264114373,0.3363487394532024,0.9148359605830252,-0.28588495,-0.13439035,-0.116675265
224,2.24,-0.1274577035659073,0.393362264556052,0.9375973150399404,-0.28588495,-0.13439035,-0.116675265
225,2.25,-0.1290122154954441,0.4092960655763098,0.9896737234396356,-0.28588495,-0.13439035,-0.116675265
226,2.26,-0.12910628,0.41026023,0.9928249,-0.28588495,-0.13439035,-0.116675265
227,2.27,-0.12910628,0.41026023,0.9928249,-0.28588495,-0.13439035,-0.116675265
228,2.28,-0.12910628,0.41026023,0.9928249,-0.28588495,-0.13439035,-0.116675265
229,2.29,-0.12910628,0.41026023,0.9928249,-0.28588495,-0.13439035,-0.116675265
230,2.3,-0.1301204389755716,0.4084600993506693,0.9890725131408944,-0.28588495,-0.13439035,-0.116675265
231,2.31,-0.1378922928231869,0.3946650705137705,0.9603166642541444,-0.28588495,-0.13439035,-0.116675265
232,2.32,-0.13886857,0.39293218,0.95670444,0.098040761206711,-0.095657275393009,-0.0592141007844544
233,2.33,-0.13886857,0.39293218,0.95670444,0.26511553,-0.07880162,-0.034208454
234,2.34,-0.13886857,0.39293218,0.95670444,0.26511553,-0.07880162,-0.034208454
235,2.35,-0.13886857,0.39293218,0.95670444,0.26511553,-0.07880162,-0.034208454
236,2.36,-0.13886857,0.39293218,0.95670444,0.26511553,-0.07880162,-0.034208454
237,2.37,-0.13886857,0.39293218,0.95670444,0.26511553,-0.07880162,-0.034208454
238,2.38,-0.13886857,0.39293218,0.95670444,0.26511553,-0.07880162,-0.034208454
239,2.39,-0.13886857,0.39293218,0.95670444,0.26511553,-0.07880162,-0.034208454
240,2.4,-0.13886857,0.39293218,0.95670444,-0.0656715463802234,-0.1121737025005263,-0.0837164967318147
241,2.41,-0.13886857,0.39293218,0.95670444,-0.28588495,-0.13439035,-0.116675265
242,2.42,-0.13886857,0.39293218,0.95670444,-0.28588495,-0.13439035,-0.116675265
243,2.43,-0.13886857,0.39293218,0.95670444,-0.28588495,-0.13439035,-0.116675265
244,2.44,-0.13886857,0.39293218,0.95670444,-0.28588495,-0.13439035,-0.116675265
245,2.45,-0.13886857,0.39293218,0.95670444,-0.28588495,-0.13439035,-0.116675265
246,2.46,-0.1463121839493991,0.3664467832132003,0.8441847632027745,-0.28588495,-0.13439035,-0.116675265
247,2.47,-0.14936304,0.35559142,0.7980672,-0.28588495,-0.13439035,-0.116675265
248,2.48,-0.14936304,0.35559142,0.7980672,-0.0929720404873323,0.0187645089743384,-0.1903140596847343
249,2.49,-0.14936304,0.35559142,0.7980672,0.05497787,0.13622294,-0.24678956
250,2.5,-0.1487462200606575,0.3572560895753973,0.8039975873225768,0.05497787,0.13622294,-0.24678956
251,2.51,-0.1340215169367882,0.3969950210424837,0.9455675774684638,0.05497787,0.13622294,-0.24678956
252,2.52,-0.12910628,0.41026023,0.9928249,0.05497787,0.13622294,-0.24678956
253,2.53,-0.12910628,0.41026023,0.9928249,0.05497787,0.13622294,-0.24678956
254,2.54,-0.12910628,0.41026023,0.9928249,0.05497787,0.13622294,-0.24678956
255,2.55,-0.12910628,0.41026023,0.9928249,0.05497787,0.13622294,-0.24678956
256,2.56,-0.12910628,0.41026023,0.9928249,0.05497787,0.13622294,-0.24678956
257,2.57,-0.12910628,0.41026023,0.9928249,0.05497787,0.13622294,-0.24678956
258,2.58,-0.12910628,0.41026023,0.9928249,0.05497787,0.13622294,-0.24678956
259,2.59,-0.12910628,0.41026023,0.9928249,0.05497787,0.13622294,-0.24678956
260,2.6,-0.12910628,0.41026023,0.9928249,0.05497787,0.13622294,-0.24678956
261,2.61,-0.12910628,0.41026023,0.9928249,0.05497787,0.13622294,-0.24678956
262,2.62,-0.12910628,0.41026023,0.9928249,0.05497787,0.13622294,-0.24678956
263,2.63,-0.12910628,0.41026023,0.9928249,0.05497787,0.13622294,-0.24678956
264,2.64,-0.12910628,0.41026023,0.9928249,0.05497787,0.13622294,-0.24678956
265,2.65,-0.12910628,0.41026023,0.9928249,0.05497787,0.13622294,-0.24678956
266,2.66,-0.1098047331685141,0.4026160523392847,1.020343905125202,0.05497787,0.13622294,-0.24678956
267,2.67,-0.1044565,0.40049794,1.0279691,0.05497787,0.13622294,-0.24678956
268,2.68,-0.1044565,0.40049794,1.0279691,0.05497787,0.13622294,-0.24678956
269,2.69,-0.1044565,0.40049794,1.0279691,0.05497787,0.13622294,-0.24678956
270,2.7,-0.1044565,0.40049794,1.0279691,0.05497787,0.13622294,-0.24678956
271,2.71,-0.1044565,0.40049794,1.0279691,0.05497787,0.13622294,-0.24678956
272,2.72,-0.1211660950412356,0.4071156020065211,1.0041455466032478,0.05497787,0.13622294,-0.24678956
273,2.73,-0.12910628,0.41026023,0.9928249,-0.0978554346030063,0.0497685139275492,-0.1933626669472944
274,2.74,-0.1333327954677408,0.389619101485706,0.905345849370189,-0.23335053,-0.02687807,-0.1459968
275,2.75,-0.13960074,0.3590082,0.77561396,-0.23335053,-0.02687807,-0.1459968
276,2.76,-0.13960074,0.3590082,0.77561396,-0.23335053,-0.02687807,-0.1459968
277,2.77,-0.13960074,0.3590082,0.77561396,-0.23335053,-0.02687807,-0.1459968
278,2.78,-0.13960074,0.3590082,0.77561396,-0.23335053,-0.02687807,-0.1459968
279,2.79,-0.13960074,0.3590082,0.77561396,-0.23335053,-0.02687807,-0.1459968
280,2.8,-0.13960074,0.3590082,0.77561396,-0.23335053,-0.02687807,-0.1459968
281,2.81,-0.13960074,0.3590082,0.77561396,-0.2316434577763524,-0.0257007794226813,-0.1591235899756482
282,2.82,-0.13960074,0.3590082,0.77561396,-0.2173327713892646,-0.0158313456605398,-0.2691677767466556
283,2.83,-0.13960074,0.3590082,0.77561396,-0.21563543,-0.014660766,-0.28221974
284,2.84,-0.1219482721213335,0.3668137213085786,0.8235277697541061,-0.21563543,-0.014660766,-0.28221974
285,2.85,-0.10372432,0.37487194,0.87299275,-0.21563543,-0.014660766,-0.28221974
286,2.86,-0.10372432,0.37487194,0.87299275,-0.21563543,-0.014660766,-0.28221974
287,2.87,-0.10372432,0.37487194,0.87299275,-0.21563543,-0.014660766,-0.28221974
288,2.88,-0.10372432,0.37487194,0.87299275,-0.21563543,-0.014660766,-0.28221974
289,2.89,-0.10372432,0.37487194,0.87299275,-0.21563543,-0.014660766,-0.28221974
290,2.9,-0.10372432,0.37487194,0.87299275,-0.21563543,-0.014660766,-0.28221974
291,2.91,-0.10372432,0.37487194,0.87299275,-0.151113201617785,0.0213143798545717,-0.2737721353716134
292,2.92,-0.10372432,0.37487194,0.87299275,0.05497787,0.13622294,-0.24678956
293,2.93,-0.10372432,0.37487194,0.87299275,0.05497787,0.13622294,-0.24678956
294,2.94,-0.10372432,0.37487194,0.87299275,0.05497787,0.13622294,-0.24678956
295,2.95,-0.10372432,0.37487194,0.87299275,-0.1478616614902081,-0.024812731061525,-0.1693615711158538
296,2.96,-0.10372432,0.37487194,0.87299275,-0.28588495,-0.13439035,-0.116675265
297,2.97,-0.10372432,0.37487194,0.87299275,-0.28588495,-0.13439035,-0.116675265
298,2.98,-0.10372432,0.37487194,0.87299275,-0.28588495,-0.13439035,-0.116675265
299,2.99,-0.10372432,0.37487194,0.87299275,-0.28588495,-0.13439035,-0.116675265
300,3.0,-0.10372432,0.37487194,0.87299275,-0.28588495,-0.13439035,-0.116675265
301,3.01,-0.1236843097267214,0.3660460848163618,0.8188156707930845,-0.28588495,-0.13439035,-0.116675265
302,3.02,-0.13960074,0.3590082,0.77561396,-0.2910920953734239,-0.085688231524144,-0.2107101792289349
303,3.03,-0.13960074,0.3590082,0.77561396,-0.29626966,-0.03726278,-0.3042109
304,3.04,-0.13960074,0.3590082,0.77561396,-0.29626966,-0.03726278,-0.3042109
305,3.05,-0.13960074,0.3590082,0.77561396,-0.29626966,-0.03726278,-0.3042109
306,3.06,-0.13960074,0.3590082,0.77561396,-0.29626966,-0.03726278,-0.3042109
307,3.07,-0.13960074,0.3590082,0.77561396,-0.29626966,-0.03726278,-0.3042109
308,3.08,-0.13960074,0.3590082,0.77561396,-0.29626966,-0.03726278,-0.3042109
309,3.09,-0.13960074,0.3590082,0.77561396,-0.3361566068743487,-0.0345375846250737,-0.3180846197702862
310,3.1,-0.13960074,0.3590082,0.77561396,-0.39461896,-0.030543262,-0.33841935
311,3.11,-0.13960074,0.3590082,0.77561396,-0.39461896,-0.030543262,-0.33841935
312,3.12,-0.13960074,0.3590082,0.77561396,-0.39461896,-0.030543262,-0.33841935
313,3.13,-0.13960074,0.3590082,0.77561396,-0.39461896,-0.030543262,-0.33841935
314,3.14,-0.13960074,0.3590082,0.77561396,-0.39461896,-0.030543262,-0.33841935
315,3.15,-0.1394386240226454,0.3591219359272793,0.7763956813214755,-0.39461896,-0.030543262,-0.33841935
316,3.16,-0.1026041878209263,0.3849639215574231,0.9540108961403492,-0.39461896,-0.030543262,-0.33841935
317,3.17,-0.09298581,0.3917119,1.0003906,-0.39461896,-0.030543262,-0.33841935
318,3.18,-0.09298581,0.3917119,1.0003906,-0.39461896,-0.030543262,-0.33841935
319,3.19,-0.09298581,0.3917119,1.0003906,-0.39461896,-0.030543262,-0.33841935
320,3.2,-0.09298581,0.3917119,1.0003906,-0.39461896,-0.030543262,-0.33841935
321,3.21,-0.09298581,0.3917119,1.0003906,-0.39461896,-0.030543262,-0.33841935
322,3.22,-0.131166051027623,0.3658998824804022,0.938549379635674,-0.39461896,-0.030543262,-0.33841935
323,3.23,-0.14497001,0.35656762,0.91619086,-0.39461896,-0.030543262,-0.33841935
324,3.24,-0.14497001,0.35656762,0.91619086,-0.4559231319831737,0.1737084825268701,-0.37107671641441
325,3.25,-0.14497001,0.35656762,0.91619086,-0.52534413,0.40500367,-0.408058
326,3.26,-0.14497001,0.35656762,0.91619086,-0.52534413,0.40500367,-0.408058
327,3.27,-0.14497001,0.35656762,0.91619086,-0.52534413,0.40500367,-0.408058
328,3.28,-0.14497001,0.35656762,0.91619086,-0.52534413,0.40500367,-0.408058
329,3.29,-0.154530244547627,0.3453527639513678,0.8406283073463269,-0.52534413,0.40500367,-0.408058
330,3.3,-0.15766099,0.34168017,0.8158834,-0.52534413,0.40500367,-0.408058
331,3.31,-0.15766099,0.34168017,0.8158834,-0.52534413,0.40500367,-0.408058
332,3.32,-0.15766099,0.34168017,0.8158834,-0.52534413,0.40500367,-0.408058
333,3.33,-0.15766099,0.34168017,0.8158834,-0.52534413,0.40500367,-0.408058
334,3.34,-0.15766099,0.34168017,0.8158834,-0.52534413,0.40500367,-0.408058
335,3.35,-0.15766099,0.34168017,0.8158834,-0.52534413,0.40500367,-0.408058
336,3.36,-0.15766099,0.34168017,0.8158834,-0.52534413,0.40500367,-0.408058
337,3.37,-0.15766099,0.34168017,0.8158834,-0.52534413,0.40500367,-0.408058
338,3.38,-0.15766099,0.34168017,0.8158834,-0.52534413,0.40500367,-0.408058
339,3.39,-0.15766099,0.34168017,0.8158834,-0.52534413,0.40500367,-0.408058
340,3.4,-0.15766099,0.34168017,0.8158834,-0.5260632523526546,0.3901897146895532,-0.4135233388270597
341,3.41,-0.15766099,0.34168017,0.8158834,-0.5098412412957144,0.3287848264050733,-0.4156542995487909
342,3.42,-0.15766099,0.34168017,0.8158834,-0.0690119969582978,0.0128483954961931,-0.0446803529358658
343,3.43,-0.15766099,0.34168017,0.8158834,-0.019547688,-0.022602014,-0.0030543262
344,3.44,-0.15766099,0.34168017,0.8158834,-0.2077035119889586,0.1566994229471264,-0.1480449934598242
345,3.45,-0.15766099,0.34168017,0.8158834,-0.422814665233883,0.3058003285793543,-0.3305903626381988
346,3.46,-0.15766099,0.34168017,0.8158834,-0.3713382417315902,0.2694441891796438,-0.3798336513983945
347,3.47,-0.15766099,0.34168017,0.8158834,-0.03970624,0.1160644,-0.27122417
348,3.48,-0.15766099,0.34168017,0.8158834,-0.03970624,0.1160644,-0.27122417
349,3.49,-0.15766099,0.34168017,0.8158834,-0.03970624,0.1160644,-0.27122417
350,3.5,-0.15766099,0.34168017,0.8158834,-0.03970624,0.1160644,-0.27122417
351,3.51,-0.15766099,0.34168017,0.8158834,-0.03970624,0.1160644,-0.27122417
352,3.52,-0.15766099,0.34168017,0.8158834,-0.03970624,0.1160644,-0.27122417
353,3.53,-0.15766099,0.34168017,0.8158834,-0.03970624,0.1160644,-0.27122417
354,3.54,-0.15766099,0.34168017,0.8158834,-0.03970624,0.1160644,-0.27122417
355,3.55,-0.15766099,0.34168017,0.8158834,-0.03970624,0.1160644,-0.27122417
356,3.56,-0.15766099,0.34168017,0.8158834,-0.03970624,0.1160644,-0.27122417
357,3.57,-0.15766099,0.34168017,0.8158834,-0.03970624,0.1160644,-0.27122417
358,3.58,-0.15766099,0.34168017,0.8158834,-0.03970624,0.1160644,-0.27122417
359,3.59,-0.15766099,0.34168017,0.8158834,-0.03970624,0.1160644,-0.27122417
360,3.6,-0.2161353668958841,0.2975151912830192,0.9091597268787882,-0.03970624,0.1160644,-0.27122417
361,3.61,-0.23844394,0.2806658,0.9447456,-0.2792508746128951,0.2687121490997365,-0.2983174828731976
362,3.62,-0.23844394,0.2806658,0.9447456,-0.4676896988885364,0.2683481498008268,-0.3472509442493368
363,3.63,-0.23844394,0.2806658,0.9447456,-0.44715336,0.089186326,-0.3830125
364,3.64,-0.23844394,0.2806658,0.9447456,-0.44715336,0.089186326,-0.3830125
365,3.65,-0.23844394,0.2806658,0.9447456,-0.44715336,0.089186326,-0.3830125
366,3.66,-0.23844394,0.2806658,0.9447456,-0.44715336,0.089186326,-0.3830125
367,3.67,-0.23844394,0.2806658,0.9447456,-0.44715336,0.089186326,-0.3830125
368,3.68,-0.23844394,0.2806658,0.9447456,-0.44715336,0.089186326,-0.3830125
369,3.69,-0.2317614336221844,0.2896376876004547,0.9564399836259108,-0.44715336,0.089186326,-0.3830125
370,3.7,-0.21208574,0.31605414,0.99087244,-0.44715336,0.089186326,-0.3830125
371,3.71,-0.21208574,0.31605414,0.99087244,-0.44715336,0.089186326,-0.3830125
372,3.72,-0.21208574,0.31605414,0.99087244,-0.2341083745955998,0.1032402696946526,-0.3245608826877159
373,3.73,-0.21208574,0.31605414,0.99087244,-0.0297932506585455,0.0844550545657789,-0.1827554127267417
374,3.74,-0.21208574,0.31605414,0.99087244,-0.007330383,0.01282817,0.017715093
375,3.75,-0.21208574,0.31605414,0.99087244,-0.007330383,0.01282817,0.017715093
376,3.76,-0.21208574,0.31605414,0.99087244,-0.007330383,0.01282817,0.017715093
377,3.77,-0.21208574,0.31605414,0.99087244,-0.007330383,0.01282817,0.017715093
378,3.78,-0.21208574,0.31605414,0.99087244,-0.007330383,0.01282817,0.017715093
379,3.79,-0.21208574,0.31605414,0.99087244,-0.007330383,0.01282817,0.017715093
380,3.8,-0.21208574,0.31605414,0.99087244,-0.007330383,0.01282817,0.017715093
381,3.81,-0.21208574,0.31605414,0.99087244,-0.007330383,0.01282817,0.017715093
382,3.82,-0.21208574,0.31605414,0.99087244,-0.007330383,0.01282817,0.017715093
383,3.83,-0.1660891669051585,0.3438193337056544,0.939690746031861,-0.007330383,0.01282817,0.017715093
384,3.84,-0.1897313864063333,0.3368303331682979,0.9093768211591328,-0.007330383,0.01282817,0.017715093
385,3.85,-0.23795582,0.31556603,0.9020356,-0.007330383,0.01282817,0.017715093
386,3.86,-0.23795582,0.31556603,0.9020356,-0.0178903643758211,0.0154084370437359,0.0030935802475647
387,3.87,-0.23795582,0.31556603,0.9020356,-0.1253049796595128,0.041654543165352,-0.1456343494024342
388,3.88,-0.23795582,0.31556603,0.9020356,-0.1423316,0.045814894,-0.16920967
389,3.89,-0.2374866298953818,0.3138065947424383,0.8991031918839152,-0.1423316,0.045814894,-0.16920967
390,3.9,-0.23697957,0.31190515,0.8959341,-0.1423316,0.045814894,-0.16920967
391,3.91,-0.23697957,0.31190515,0.8959341,-0.1423316,0.045814894,-0.16920967
392,3.92,-0.23697957,0.31190515,0.8959341,-0.1423316,0.045814894,-0.16920967
393,3.93,-0.23697957,0.31190515,0.8959341,-0.1423316,0.045814894,-0.16920967
394,3.94,-0.23697957,0.31190515,0.8959341,-0.1423316,0.045814894,-0.16920967
395,3.95,-0.23697957,0.31190515,0.8959341,-0.1423316,0.045814894,-0.16920967
396,3.96,-0.23697957,0.31190515,0.8959341,-0.1423316,0.045814894,-0.16920967
397,3.97,-0.2375726156993526,0.3101062485728696,0.8985039621322573,-0.1423316,0.045814894,-0.16920967
398,3.98,-0.2508751482093349,0.269755319896082,0.9561482121417252,-0.1423316,0.045814894,-0.16920967
399,3.99,-0.1806561235106775,0.3346902399069187,0.954371148566384,-0.1423316,0.045814894,-0.16920967
400,4.0,-0.15497635,0.3590082,0.9525554,-0.1423316,0.045814894,-0.16920967
401,4.01,-0.15497635,0.3590082,0.9525554,-0.1423316,0.045814894,-0.16920967
402,4.02,-0.15497635,0.3590082,0.9525554,-0.1423316,0.045814894,-0.16920967
403,4.03,-0.15497635,0.3590082,0.9525554,-0.1423316,0.045814894,-0.16920967
404,4.04,-0.15497635,0.3590082,0.9525554,-0.1423316,0.045814894,-0.16920967
405,4.05,-0.15497635,0.3590082,0.9525554,-0.1423316,0.045814894,-0.16920967
406,4.06,-0.2081316247501012,0.3060913070104964,0.9423057607503073,-0.1423316,0.045814894,-0.16920967
407,4.07,-0.2638259,0.2506468,0.93156654,-0.1423316,0.045814894,-0.16920967
408,4.08,-0.2638259,0.2506468,0.93156654,-0.1423316,0.045814894,-0.16920967
409,4.09,-0.2638259,0.2506468,0.93156654,-0.1423316,0.045814894,-0.16920967
410,4.1,-0.2638259,0.2506468,0.93156654,-0.1423316,0.045814894,-0.16920967
411,4.11,-0.2638259,0.2506468,0.93156654,-0.1423316,0.045814894,-0.16920967
412,4.12,-0.2638259,0.2506468,0.93156654,-0.1423316,0.045814894,-0.16920967
413,4.13,-0.2638259,0.2506468,0.93156654,-0.1675893658013041,0.1391588141869786,-0.1200119333263802
414,4.14,-0.2638259,0.2506468,0.93156654,-0.2125811,0.30543262,-0.032375857
415,4.15,-0.2638259,0.2506468,0.93156654,-0.2125811,0.30543262,-0.032375857
416,4.16,-0.2638259,0.2506468,0.93156654,-0.2125811,0.30543262,-0.032375857
417,4.17,-0.2638259,0.2506468,0.93156654,-0.2125811,0.30543262,-0.032375857
418,4.18,-0.2638259,0.2506468,0.93156654,-0.2125811,0.30543262,-0.032375857
419,4.19,-0.2638259,0.2506468,0.93156654,-0.2125811,0.30543262,-0.032375857
420,4.2,-0.2638259,0.2506468,0.93156654,-0.1809286723390669,0.2608912529049567,-0.0274657851298943
421,4.21,-0.2638259,0.2506468,0.93156654,-0.0053853498289563,0.0138662963119143,-0.0002346880691906
422,4.22,-0.2638259,0.2506468,0.93156654,0.0003018755866533,-0.0013218814431707,0.0135463000281778
423,4.23,-0.2549557111581484,0.2630650709867198,0.9089878630757356,-0.0343224692485539,0.0159395044546833,0.0191118377518076
424,4.24,-0.25040275,0.26943922,0.8973985,-0.0521628637656252,-0.0163742246677159,-0.05177962714133
425,4.25,-0.25040275,0.26943922,0.8973985,-0.053145275,-0.06352998,-0.13561209
426,4.26,-0.25040275,0.26943922,0.8973985,-0.053145275,-0.06352998,-0.13561209
427,4.27,-0.25040275,0.26943922,0.8973985,-0.053145275,-0.06352998,-0.13561209
428,4.28,-0.251252928017061,0.2680789198451411,0.9405877564591416,-0.053145275,-0.06352998,-0.13561209
429,4.29,-0.25162303,0.26748675,0.95938903,-0.053145275,-0.06352998,-0.13561209
430,4.3,-0.25162303,0.26748675,0.95938903,-0.053145275,-0.06352998,-0.13561209
431,4.31,-0.25162303,0.26748675,0.95938903,-0.053145275,-0.06352998,-0.13561209
432,4.32,-0.25162303,0.26748675,0.95938903,-0.053145275,-0.06352998,-0.13561209
433,4.33,-0.25162303,0.26748675,0.95938903,-0.053145275,-0.06352998,-0.13561209
434,4.34,-0.25162303,0.26748675,0.95938903,-0.053145275,-0.06352998,-0.13561209
435,4.35,-0.25162303,0.26748675,0.95938903,-0.053145275,-0.06352998,-0.13561209
436,4.36,-0.25162303,0.26748675,0.95938903,-0.0605281184058213,-0.0207872026105423,-0.1146292703703751
437,4.37,-0.25162303,0.26748675,0.95938903,-0.087964594,0.13805555,-0.036651913
438,4.38,-0.25162303,0.26748675,0.95938903,-0.087964594,0.13805555,-0.036651913
439,4.39,-0.25162303,0.26748675,0.95938903,-0.087964594,0.13805555,-0.036651913
440,4.4,-0.25162303,0.26748675,0.95938903,-0.087964594,0.13805555,-0.036651913
441,4.41,-0.25162303,0.26748675,0.95938903,-0.087964594,0.13805555,-0.036651913
442,4.42,-0.25162303,0.26748675,0.95938903,-0.087964594,0.13805555,-0.036651913
443,4.43,-0.25162303,0.26748675,0.95938903,-0.087964594,0.13805555,-0.036651913
444,4.44,-0.243187763970017,0.2759219904280149,0.9500165143224052,-0.087964594,0.13805555,-0.036651913
445,4.45,-0.23844394,0.2806658,0.9447456,-0.087964594,0.13805555,-0.036651913
446,4.46,-0.23844394,0.2806658,0.9447456,-0.087964594,0.13805555,-0.036651913
447,4.47,-0.23844394,0.2806658,0.9447456,-0.087964594,0.13805555,-0.036651913
448,4.48,-0.23844394,0.2806658,0.9447456,-0.2356088112791082,0.2207808282561543,-0.1620382113994757
449,4.49,-0.23844394,0.2806658,0.9447456,-0.33108896,0.2742785,-0.24312437
450,4.5,-0.23844394,0.2806658,0.9447456,-0.33108896,0.2742785,-0.24312437
451,4.51,-0.23844394,0.2806658,0.9447456,-0.33108896,0.2742785,-0.24312437
452,4.52,-0.23844394,0.2806658,0.9447456,-0.33108896,0.2742785,-0.24312437
453,4.53,-0.23844394,0.2806658,0.9447456,-0.33108896,0.2742785,-0.24312437
454,4.54,-0.23844394,0.2806658,0.9447456,-0.33108896,0.2742785,-0.24312437
455,4.55,-0.23844394,0.2806658,0.9447456,-0.33108896,0.2742785,-0.24312437
456,4.56,-0.23844394,0.2806658,0.9447456,-0.33108896,0.2742785,-0.24312437
457,4.57,-0.23844394,0.2806658,0.9447456,-0.33108896,0.2742785,-0.24312437
458,4.58,-0.23844394,0.2806658,0.9447456,-0.33108896,0.2742785,-0.24312437
459,4.59,-0.23844394,0.2806658,0.9447456,-0.07084751911154,0.0724970872080585,-0.0554865159466097
460,4.6,-0.2107199115285251,0.2911302791966302,0.940532620913417,0.0061086523,0.01282817,0.0
461,4.61,-0.18865626,0.29945824,0.9371798,0.0109446604672777,0.0101731066882137,0.016594145116557
462,4.62,-0.18865626,0.29945824,0.9371798,0.0224456711021019,0.0038588263295489,0.0560583959738438
463,4.63,-0.18865626,0.29945824,0.9371798,0.033946681736926,-0.0024554540291159,0.0955226468311307
464,4.64,-0.2023652359710461,0.2836721468014529,0.946873045880157,0.03726278,-0.004276057,0.106901415
465,4.65,-0.226857784570778,0.2844890887606708,0.9335995884138688,0.03726278,-0.004276057,0.106901415
466,4.66,-0.24747404,0.30336314,0.90325594,0.03726278,-0.004276057,0.106901415
467,4.67,-0.24747404,0.30336314,0.90325594,0.0116462318956823,0.0466739846918606,0.0810018109888017
468,4.68,-0.24747404,0.30336314,0.90325594,-0.073303826,0.21563543,-0.004886922
469,4.69,-0.24747404,0.30336314,0.90325594,-0.073303826,0.21563543,-0.004886922
470,4.7,-0.201073502299111,0.2949266903842323,1.0333619866189616,-0.0960696444094715,0.3664177089725063,-0.0091761334439459
471,4.71,-0.1615659,0.2877435,1.1441404,-0.115453534,0.49480084,-0.01282817
472,4.72,-0.1615659,0.2877435,1.1441404,-0.1479735576182496,0.6017589075627536,-0.0144690887887276
473,4.73,-0.1615659,0.2877435,1.1441404,-0.2261334857322031,0.8805116988050666,-0.0170607063095978
474,4.74,-0.1615659,0.2877435,1.1441404,0.2219799556004623,-0.161220275848804,0.0324953682774232
475,4.75,-0.2093771702953738,0.2345621257529566,1.0634155456234933,0.2706133,-0.2742785,0.037873644
476,4.76,-0.22892569,0.21281794,1.0304097,0.2706133,-0.2742785,0.037873644
477,4.77,-0.2635304447493982,0.2160913606751334,0.9389876821138043,0.2706133,-0.2742785,0.037873644
478,4.78,-0.3082589265418628,0.2303594877736981,0.7748919871022789,0.2706133,-0.2742785,0.037873644
479,4.79,-0.32606047,0.25723633,0.6125837,0.2706133,-0.2742785,0.037873644
480,4.8,-0.32606047,0.25723633,0.6125837,0.2706133,-0.2742785,0.037873644
481,4.81,-0.32606047,0.25723633,0.6125837,0.2706133,-0.2742785,0.037873644
482,4.82,-0.32606047,0.25723633,0.6125837,0.2706133,-0.2742785,0.037873644
483,4.83,-0.32606047,0.25723633,0.6125837,-0.0393270030463727,0.8712638154359353,0.0669760182177572
484,4.84,-0.32606047,0.25723633,0.6125837,-0.24984388,1.6493362,0.08674286
485,4.85,-0.32606047,0.25723633,0.6125837,-0.24984388,1.6493362,0.08674286
486,4.86,-0.32606047,0.25723633,0.6125837,-0.24984388,1.6493362,0.08674286
487,4.87,-0.32606047,0.25723633,0.6125837,-0.24984388,1.6493362,0.08674286
488,4.88,-0.32606047,0.25723633,0.6125837,-0.24984388,1.6493362,0.08674286
489,4.89,-0.2635527267372724,0.2688290187436611,0.8145746212394226,-0.24984388,1.6493362,0.08674286
490,4.9,-0.1615659,0.2877435,1.1441404,-0.24984388,1.6493362,0.08674286
491,4.91,-0.1615659,0.2877435,1.1441404,-0.24984388,1.6493362,0.08674286
492,4.92,-0.1615659,0.2877435,1.1441404,-0.24984388,1.6493362,0.08674286
493,4.93,-0.1615659,0.2877435,1.1441404,-0.24984388,1.6493362,0.08674286
494,4.94,-0.1867084711355528,0.2608409389951177,1.0812839721611178,-0.24984388,1.6493362,0.08674286
495,4.95,-0.21037734,0.23551524,1.0221118,-0.160946728806429,0.7493112985157826,0.1488297625340049
496,4.96,-0.21037734,0.23551524,1.0221118,-0.018936822,-0.68844515,0.24801129
497,4.97,-0.21037734,0.23551524,1.0221118,-0.018936822,-0.68844515,0.24801129
498,4.98,-0.21037734,0.23551524,1.0221118,-0.018936822,-0.68844515,0.24801129
499,4.99,-0.21037734,0.23551524,1.0221118,-0.018936822,-0.68844515,0.24801129
500,5.0,-0.21037734,0.23551524,1.0221118,-0.018936822,-0.68844515,0.24801129
501,5.01,-0.21037734,0.23551524,1.0221118,-0.018936822,-0.68844515,0.24801129
502,5.02,-0.21037734,0.23551524,1.0221118,-0.018936822,-0.68844515,0.24801129
503,5.03,-0.21037734,0.23551524,1.0221118,-0.018936822,-0.68844515,0.24801129
504,5.04,-0.21037734,0.23551524,1.0221118,-0.018936822,-0.68844515,0.24801129
505,5.05,-0.21037734,0.23551524,1.0221118,-0.018936822,-0.68844515,0.24801129
506,5.06,-0.21037734,0.23551524,1.0221118,-0.018936822,-0.68844515,0.24801129
507,5.07,-0.21037734,0.23551524,1.0221118,-0.018936822,-0.68844515,0.24801129
508,5.08,-0.21037734,0.23551524,1.0221118,-0.018936822,-0.68844515,0.24801129
509,5.09,-0.2221304651479736,0.2677275188329754,0.966502079506522,-0.018936822,-0.68844515,0.24801129
510,5.1,-0.23673552,0.3077562,0.8973985,-0.018936822,-0.68844515,0.24801129
511,5.11,-0.23673552,0.3077562,0.8973985,-0.018936822,-0.68844515,0.24801129
512,5.12,-0.23673552,0.3077562,0.8973985,-0.018936822,-0.68844515,0.24801129
513,5.13,-0.2358908554907559,0.3501585687895389,0.9587214700843748,-0.018936822,-0.68844515,0.24801129
514,5.14,-0.23551524,0.36901456,0.9859913,-0.018936822,-0.68844515,0.24801129
515,5.15,-0.23551524,0.36901456,0.9859913,-0.018936822,-0.68844515,0.24801129
516,5.16,-0.23551524,0.36901456,0.9859913,-0.0208126372232156,-0.6658181274161525,0.2455023867195996
517,5.17,-0.23551524,0.36901456,0.9859913,-0.06780604,-0.09896017,0.1826487
518,5.18,-0.23551524,0.36901456,0.9859913,-0.06780604,-0.09896017,0.1826487
519,5.19,-0.23551524,0.36901456,0.9859913,-0.06780604,-0.09896017,0.1826487
520,5.2,-0.23551524,0.36901456,0.9859913,-0.06780604,-0.09896017,0.1826487
521,5.21,-0.2153673537374285,0.3583703923990767,0.896529593648646,-0.06780604,-0.09896017,0.1826487
522,5.22,-0.19671014,0.34851375,0.81368685,-0.06780604,-0.09896017,0.1826487
523,5.23,-0.19671014,0.34851375,0.81368685,-0.06780604,-0.09896017,0.1826487
524,5.24,-0.19671014,0.34851375,0.81368685,-0.06780604,-0.09896017,0.1826487
525,5.25,-0.1955412698608884,0.3307858356693391,0.83901243619935,-0.06780604,-0.09896017,0.1826487
526,5.26,-0.1952458,0.32630453,0.8454143,0.1327183774454625,-0.0329191922776125,0.1718420022050523
527,5.27,-0.1952458,0.32630453,0.8454143,0.23823744,0.0018325958,0.16615535
528,5.28,-0.1952458,0.32630453,0.8454143,0.23823744,0.0018325958,0.16615535
529,5.29,-0.1952458,0.32630453,0.8454143,0.23823744,0.0018325958,0.16615535
530,5.3,-0.2351878501870715,0.3092400954022817,0.8697921185931554,0.23823744,0.0018325958,0.16615535
531,5.31,-0.24723,0.30409533,0.8771418,0.23823744,0.0018325958,0.16615535
532,5.32,-0.24723,0.30409533,0.8771418,0.23823744,0.0018325958,0.16615535
533,5.33,-0.24723,0.30409533,0.8771418,0.23823744,0.0018325958,0.16615535
534,5.34,-0.24723,0.30409533,0.8771418,0.23823744,0.0018325958,0.16615535
535,5.35,-0.24723,0.30409533,0.8771418,0.1924065943386645,0.0007228900075263,0.1370810592653923
536,5.36,-0.24723,0.30409533,0.8771418,-0.0069509300129124,-0.004104169069256,0.0106121159262287
537,5.37,-0.24723,0.30409533,0.8771418,-0.014049901,-0.004276057,0.0061086523
538,5.38,-0.24723,0.30409533,0.8771418,0.0122114294782094,-0.0372314493166094,0.0308251990241556
539,5.39,-0.24723,0.30409533,0.8771418,0.017104227,-0.04337143,0.035430185
540,5.4,-0.24723,0.30409533,0.8771418,0.017104227,-0.04337143,0.035430185
541,5.41,-0.24723,0.30409533,0.8771418,0.017104227,-0.04337143,0.035430185
542,5.42,-0.24723,0.30409533,0.8771418,0.017104227,-0.04337143,0.035430185
543,5.43,-0.24723,0.30409533,0.8771418,0.017104227,-0.04337143,0.035430185
544,5.44,-0.24723,0.30409533,0.8771418,0.017104227,-0.04337143,0.035430185
545,5.45,-0.24723,0.30409533,0.8771418,0.017104227,-0.04337143,0.035430185
546,5.46,-0.24723,0.30409533,0.8771418,0.017104227,-0.04337143,0.035430185
547,5.47,-0.24723,0.30409533,0.8771418,0.017104227,-0.04337143,0.035430185
548,5.48,-0.24723,0.30409533,0.8771418,0.017104227,-0.04337143,0.035430185
549,5.49,-0.24723,0.30409533,0.8771418,0.0166178529493684,-0.0329143886081007,0.0322687535713691
550,5.5,-0.24723,0.30409533,0.8771418,0.0146748027557683,0.0088611877710873,0.0196389269153663
551,5.51,-0.24723,0.30409533,0.8771418,0.014660766,0.009162978,0.019547688
552,5.52,-0.24723,0.30409533,0.8771418,0.014660766,0.009162978,0.019547688
553,5.53,-0.24723,0.30409533,0.8771418,0.0010865476198221,0.0148784384116377,0.0019250185923738
554,5.54,-0.24723,0.30409533,0.8771418,-0.0074634539360298,0.008199006352327,-0.0058812818080762
555,5.55,-0.24723,0.30409533,0.8771418,0.0430980272155282,-0.0540305102579826,0.0728779485849818
556,5.56,-0.24723,0.30409533,0.8771418,0.00303023963958,-0.0425498885941396,0.0288877684081754
557,5.57,-0.24723,0.30409533,0.8771418,-0.017104227,-0.036651913,0.0067195175
558,5.58,-0.24723,0.30409533,0.8771418,-0.017104227,-0.036651913,0.0067195175
559,5.59,-0.24723,0.30409533,0.8771418,-0.017104227,-0.036651913,0.0067195175
560,5.6,-0.24723,0.30409533,0.8771418,-0.017104227,-0.036651913,0.0067195175
561,5.61,-0.24723,0.30409533,0.8771418,-0.0335739142219633,-0.0055425048680937,-0.0027963012712045
562,5.62,-0.24723,0.30409533,0.8771418,-0.044593163,0.015271631,-0.009162978
563,5.63,-0.2436017231585593,0.3182785664951318,0.8804402194857874,-0.044593163,0.015271631,-0.009162978
564,5.64,-0.23380683,0.35656762,0.88934463,-0.044593163,0.015271631,-0.009162978
565,5.65,-0.23380683,0.35656762,0.88934463,-0.044593163,0.015271631,-0.009162978
566,5.66,-0.23380683,0.35656762,0.88934463,-0.044593163,0.015271631,-0.009162978
567,5.67,-0.23380683,0.35656762,0.88934463,-0.044593163,0.015271631,-0.009162978
568,5.68,-0.23380683,0.35656762,0.88934463,-0.044593163,0.015271631,-0.009162978
569,5.69,-0.23380683,0.35656762,0.88934463,-0.044593163,0.015271631,-0.009162978
570,5.7,-0.2364506650411571,0.3442962544597743,0.889893337599618,-0.044593163,0.015271631,-0.009162978
571,5.71,-0.24674188,0.29652956,0.8920292,-0.0233783761937818,0.0173609661041122,-0.0101272864792326
572,5.72,-0.24674188,0.29652956,0.8920292,0.1045815210147646,0.0299630774332748,-0.0159436453711248
573,5.73,-0.2393851993677285,0.3149212201337839,0.9174097711655236,0.116675265,0.031154128,-0.016493361
574,5.74,-0.23697957,0.32093528,0.9257092,0.0271438428265398,0.0371764210361489,-0.048210768974843
575,5.75,-0.23697957,0.32093528,0.9257092,-0.019547688,0.040317107,-0.064751714
576,5.76,-0.23697957,0.32093528,0.9257092,-0.019547688,0.040317107,-0.064751714
577,5.77,-0.23697957,0.32093528,0.9257092,-0.019547688,0.040317107,-0.064751714
578,5.78,-0.23697957,0.32093528,0.9257092,-0.019547688,0.040317107,-0.064751714
579,5.79,-0.23697957,0.32093528,0.9257092,-0.019547688,0.040317107,-0.064751714
580,5.8,-0.23697957,0.32093528,0.9257092,-0.0444579491994009,-0.083196273570918,-0.0600810402375011
581,5.81,-0.23697957,0.32093528,0.9257092,-0.04886922,-0.105068825,-0.059253927
582,5.82,-0.23697957,0.32093528,0.9257092,-0.04886922,-0.105068825,-0.059253927
583,5.83,-0.2352603375193829,0.3262649051513593,0.9104080119026574,-0.04886922,-0.105068825,-0.059253927
584,5.84,-0.22965786,0.3436326,0.8605459,-0.04886922,-0.105068825,-0.059253927
585,5.85,-0.22965786,0.3436326,0.8605459,-0.04886922,-0.105068825,-0.059253927
586,5.86,-0.22965786,0.3436326,0.8605459,-0.047501151759978,-0.0877399531611914,-0.0756707555850196
587,5.87,-0.2395822167877039,0.3281506240142947,0.8892603498953533,-0.0195467500677092,-0.0182649089937596,-0.0706465730953146
588,5.88,-0.240927376463624,0.3097801244733865,0.8972655077461271,0.0036651916,0.035430185,-0.06169739
589,5.89,-0.22819352,0.30019042,0.8678676,0.0036651916,0.035430185,-0.06169739
590,5.9,-0.22819352,0.30019042,0.8678676,0.0036651916,0.035430185,-0.06169739
591,5.91,-0.22819352,0.30019042,0.8678676,0.0036651916,0.035430185,-0.06169739
592,5.92,-0.2335111040030898,0.2997472824517977,0.8999208649530334,0.0036651916,0.035430185,-0.06169739
593,5.93,-0.23697957,0.29945824,0.92082804,0.0036651916,0.035430185,-0.06169739
594,5.94,-0.23697957,0.29945824,0.92082804,0.0036651916,0.035430185,-0.06169739
595,5.95,-0.2389140303827067,0.2967342080113885,0.9224071880646096,0.0036651916,0.035430185,-0.06169739
596,5.96,-0.2489384,0.28261828,0.93059033,0.0036651916,0.035430185,-0.06169739
597,5.97,-0.2489384,0.28261828,0.93059033,0.0036651916,0.035430185,-0.06169739
598,5.98,-0.2489384,0.28261828,0.93059033,0.0036651916,0.035430185,-0.06169739
599,5.99,-0.2489384,0.28261828,0.93059033,-0.0553410611099279,-0.044680490554517,-0.0733263579517586
600,6.0,-0.2489384,0.28261828,0.93059033,-0.08002335,-0.07819075,-0.07819075
601,6.01,-0.2489384,0.28261828,0.93059033,-0.08002335,-0.07819075,-0.07819075
602,6.02,-0.2491843357396827,0.283448319577014,0.9319429759384418,-0.08002335,-0.07819075,-0.07819075
603,6.03,-0.2507052987137179,0.2885816095382491,0.9403082684006242,-0.08002335,-0.07819075,-0.07819075
604,6.04,-0.25089085,0.28920785,0.9413288,-0.08002335,-0.07819075,-0.07819075
605,6.05,-0.25089085,0.28920785,0.9413288,-0.08002335,-0.07819075,-0.07819075
606,6.06,-0.25089085,0.28920785,0.9413288,-0.08002335,-0.07819075,-0.07819075
607,6.07,-0.25089085,0.28920785,0.9413288,-0.08002335,-0.07819075,-0.07819075
608,6.08,-0.25089085,0.28920785,0.9413288,-0.08002335,-0.07819075,-0.07819075
609,6.09,-0.25089085,0.28920785,0.9413288,-0.0932375131693337,0.0015071857264682,-0.0360705972927895
610,6.1,-0.25089085,0.28920785,0.9413288,-0.099571034,0.03970624,-0.015882496
611,6.11,-0.25089085,0.28920785,0.9413288,-0.099571034,0.03970624,-0.015882496
612,6.12,-0.25089085,0.28920785,0.9413288,-0.099571034,0.03970624,-0.015882496
613,6.13,-0.25089085,0.28920785,0.9413288,-0.099571034,0.03970624,-0.015882496
614,6.14,-0.25089085,0.28920785,0.9413288,-0.097596339904694,0.0057415219908724,-0.0336547312203349
615,6.15,-0.25089085,0.28920785,0.9413288,-0.096516706,-0.01282817,-0.04337143
616,6.16,-0.25089085,0.28920785,0.9413288,-0.096516706,-0.01282817,-0.04337143
617,6.17,-0.25089085,0.28920785,0.9413288,-0.096516706,-0.01282817,-0.04337143
618,6.18,-0.25089085,0.28920785,0.9413288,-0.096516706,-0.01282817,-0.04337143
619,6.19,-0.25089085,0.28920785,0.9413288,-0.096516706,-0.01282817,-0.04337143
620,6.2,-0.25089085,0.28920785,0.9413288,-0.096516706,-0.01282817,-0.04337143
621,6.21,-0.25089085,0.28920785,0.9413288,-0.096516706,-0.01282817,-0.04337143
622,6.22,-0.2447650025888404,0.2937216204830092,0.9323012678410036,-0.096516706,-0.01282817,-0.04337143
623,6.23,-0.23697957,0.29945824,0.92082804,-0.096516706,-0.01282817,-0.04337143
624,6.24,-0.23697957,0.29945824,0.92082804,-0.096516706,-0.01282817,-0.04337143
625,6.25,-0.23697957,0.29945824,0.92082804,-0.096516706,-0.01282817,-0.04337143
626,6.26,-0.23697957,0.29945824,0.92082804,-0.096516706,-0.01282817,-0.04337143
627,6.27,-0.23697957,0.29945824,0.92082804,-0.089022516125453,0.0218001680558402,-0.019338331229195
628,6.28,-0.23697957,0.29945824,0.92082804,-0.07880162,0.069027774,0.013439035
629,6.29,-0.23697957,0.29945824,0.92082804,-0.07880162,0.069027774,0.013439035
630,6.3,-0.23697957,0.29945824,0.92082804,-0.07880162,0.069027774,0.013439035
631,6.31,-0.23697957,0.29945824,0.92082804,-0.07880162,0.069027774,0.013439035
632,6.32,-0.23697957,0.29945824,0.92082804,-0.07880162,0.069027774,0.013439035
633,6.33,-0.23697957,0.29945824,0.92082804,-0.07880162,0.069027774,0.013439035
634,6.34,-0.2398383430614799,0.3029587771741933,0.9183193072690704,-0.07880162,0.069027774,0.013439035
635,6.35,-0.2489384,0.3141017,0.9103335,-0.07880162,0.069027774,0.013439035
636,6.36,-0.2489384,0.3141017,0.9103335,-0.07880162,0.069027774,0.013439035
637,6.37,-0.2489384,0.3141017,0.9103335,-0.07880162,0.069027774,0.013439035
638,6.38,-0.2489384,0.3141017,0.9103335,-0.07880162,0.069027774,0.013439035
639,6.39,-0.2489384,0.3141017,0.9103335,-0.0325767066911345,0.0279389631041098,0.0245014069901497
640,6.4,-0.2489384,0.3141017,0.9103335,-0.007330383,0.005497787,0.030543262
641,6.41,-0.2486017225581135,0.3103141132659362,0.909912687684801,-0.007330383,0.005497787,0.030543262
642,6.42,-0.24796216,0.3031191,0.9091133,0.0039801872766356,0.0023621832954246,0.0349107098795946
643,6.43,-0.24796216,0.3031191,0.9091133,0.0522568892284388,-0.0110214571207846,0.0535522084438865
644,6.44,-0.24796216,0.3031191,0.9091133,0.054367006,-0.01160644,0.054367006
645,6.45,-0.24796216,0.3031191,0.9091133,0.0371778180369724,-0.0035848187213057,0.0245724138850963
646,6.46,-0.24796216,0.3031191,0.9091133,0.02687807,0.0012217305,0.0067195175
647,6.47,-0.24796216,0.3031191,0.9091133,0.02687807,0.0012217305,0.0067195175
648,6.48,-0.24796216,0.3031191,0.9091133,0.02687807,0.0012217305,0.0067195175
649,6.49,-0.24796216,0.3031191,0.9091133,0.02687807,0.0012217305,0.0067195175
650,6.5,-0.24796216,0.3031191,0.9091133,0.0226659772172061,0.0042303683778958,0.0010031056551281
651,6.51,-0.24796216,0.3031191,0.9091133,0.018325957,0.007330383,-0.004886922
652,6.52,-0.24796216,0.3031191,0.9091133,0.018325957,0.007330383,-0.004886922
653,6.53,-0.24796216,0.3031191,0.9091133,0.018325957,0.007330383,-0.004886922
654,6.54,-0.24796216,0.3031191,0.9091133,0.0460262767310325,-0.0072240227774225,0.040654281612569
655,6.55,-0.24796216,0.3031191,0.9091133,0.054367006,-0.01160644,0.054367006
656,6.56,-0.24796216,0.3031191,0.9091133,0.054367006,-0.01160644,0.054367006
657,6.57,-0.24796216,0.3031191,0.9091133,0.054367006,-0.01160644,0.054367006
658,6.58,-0.2465707000817235,0.3050758477481507,0.9099829611126627,0.054367006,-0.01160644,0.054367006
659,6.59,-0.240341639807268,0.3138354961613325,0.9138761178022476,0.054367006,-0.01160644,0.054367006
660,6.6,-0.24015234,0.3141017,0.91399443,0.054367006,-0.01160644,0.054367006
661,6.61,-0.2172612519153468,0.3244919561594559,0.8954866770807718,0.054367006,-0.01160644,0.054367006
662,6.62,-0.20574026,0.32972133,0.8861718,0.054367006,-0.01160644,0.054367006
663,6.63,-0.20574026,0.32972133,0.8861718,0.054367006,-0.01160644,0.054367006
664,6.64,-0.20574026,0.32972133,0.8861718,0.054367006,-0.01160644,0.054367006
665,6.65,-0.20574026,0.32972133,0.8861718,0.054367006,-0.01160644,0.054367006
666,6.66,-0.20574026,0.32972133,0.8861718,0.054367006,-0.01160644,0.054367006
667,6.67,-0.20574026,0.32972133,0.8861718,0.054367006,-0.01160644,0.054367006
668,6.68,-0.20574026,0.32972133,0.8861718,0.054367006,-0.01160644,0.054367006
669,6.69,-0.20574026,0.32972133,0.8861718,0.054367006,-0.01160644,0.054367006
670,6.7,-0.20574026,0.32972133,0.8861718,0.054367006,-0.01160644,0.054367006
671,6.71,-0.20574026,0.32972133,0.8861718,0.054367006,-0.01160644,0.054367006
672,6.72,-0.2136342126957753,0.3151028944231989,0.9091227701506044,0.054367006,-0.01160644,0.054367006
673,6.73,-0.21891935,0.3053156,0.92448884,0.054367006,-0.01160644,0.054367006
674,6.74,-0.21891935,0.3053156,0.92448884,0.054367006,-0.01160644,0.054367006
675,6.75,-0.21891935,0.3053156,0.92448884,0.054367006,-0.01160644,0.054367006
676,6.76,-0.21891935,0.3053156,0.92448884,0.054367006,-0.01160644,0.054367006
677,6.77,-0.21891935,0.3053156,0.92448884,0.054367006,-0.01160644,0.054367006
678,6.78,-0.21891935,0.3053156,0.92448884,0.054367006,-0.01160644,0.054367006
679,6.79,-0.21891935,0.3053156,0.92448884,0.054367006,-0.01160644,0.054367006
680,6.8,-0.21891935,0.3053156,0.92448884,0.054367006,-0.01160644,0.054367006
681,6.81,-0.2172830680337133,0.3067287588407818,0.9299183248100716,0.054367006,-0.01160644,0.054367006
682,6.82,-0.2135501,0.3099527,0.942305,0.054367006,-0.01160644,0.054367006
683,6.83,-0.2135501,0.3099527,0.942305,0.054367006,-0.01160644,0.054367006
684,6.84,-0.2135501,0.3099527,0.942305,0.0071124191212767,-0.004398112974099,-0.0113088603094087
685,6.85,-0.2135501,0.3099527,0.942305,-0.017715093,-0.00061086525,-0.045814894
686,6.86,-0.2135501,0.3099527,0.942305,-0.035045451465731,0.0186069582389989,-0.0494182362596923
687,6.87,-0.2135501,0.3099527,0.942305,-0.07941248,0.06780604,-0.058643065
688,6.88,-0.2135501,0.3099527,0.942305,-0.07941248,0.06780604,-0.058643065
689,6.89,-0.2135501,0.3099527,0.942305,-0.07941248,0.06780604,-0.058643065
690,6.9,-0.2135501,0.3099527,0.942305,-0.07941248,0.06780604,-0.058643065
691,6.91,-0.2135501,0.3099527,0.942305,-0.07941248,0.06780604,-0.058643065
692,6.92,-0.2135501,0.3099527,0.942305,-0.07941248,0.06780604,-0.058643065
693,6.93,-0.2135501,0.3099527,0.942305,-0.07941248,0.06780604,-0.058643065
694,6.94,-0.2208471840708531,0.3096307659407638,0.9210575807305124,-0.07941248,0.06780604,-0.058643065
695,6.95,-0.23014598,0.30922052,0.89398164,-0.07941248,0.06780604,-0.058643065
696,6.96,-0.23014598,0.30922052,0.89398164,-0.07941248,0.06780604,-0.058643065
697,6.97,-0.23014598,0.30922052,0.89398164,-0.07941248,0.06780604,-0.058643065
698,6.98,-0.226579614648938,0.3113279318976087,0.9158662141321612,0.0248650512163977,0.0122184076357955,0.0034365571989322
699,6.99,-0.22477673,0.31239328,0.9269294,0.077579886,-0.015882496,0.03481932
700,7.0,-0.22477673,0.31239328,0.9269294,0.077579886,-0.015882496,0.03481932
701,7.01,-0.22477673,0.31239328,0.9269294,0.077579886,-0.015882496,0.03481932
702,7.02,-0.22477673,0.31239328,0.9269294,0.077579886,-0.015882496,0.03481932
703,7.03,-0.22477673,0.31239328,0.9269294,0.077579886,-0.015882496,0.03481932
704,7.04,-0.22477673,0.31239328,0.9269294,0.077579886,-0.015882496,0.03481932
705,7.05,-0.22477673,0.31239328,0.9269294,0.077579886,-0.015882496,0.03481932
706,7.06,-0.215670642250727,0.3161988153593132,0.8978443379313912,0.077579886,-0.015882496,0.03481932
707,7.07,-0.20842488,0.3192269,0.8747012,0.077579886,-0.015882496,0.03481932
708,7.08,-0.20842488,0.3192269,0.8747012,0.077579886,-0.015882496,0.03481932
709,7.09,-0.20842488,0.3192269,0.8747012,0.077579886,-0.015882496,0.03481932
710,7.1,-0.20842488,0.3192269,0.8747012,0.077579886,-0.015882496,0.03481932
711,7.11,-0.2263356004364721,0.3146343858681449,0.8880193812149096,0.077579886,-0.015882496,0.03481932
712,7.12,-0.23697957,0.31190515,0.8959341,0.077579886,-0.015882496,0.03481932
713,7.13,-0.23697957,0.31190515,0.8959341,0.077579886,-0.015882496,0.03481932
714,7.14,-0.23697957,0.31190515,0.8959341,0.077579886,-0.015882496,0.03481932
715,7.15,-0.23697957,0.31190515,0.8959341,0.077579886,-0.015882496,0.03481932
716,7.16,-0.23697957,0.31190515,0.8959341,0.077579886,-0.015882496,0.03481932
717,7.17,-0.23697957,0.31190515,0.8959341,0.0335354435692619,0.0027379182858388,0.0308803853520213
718,7.18,-0.2390397396576948,0.3064738222324841,0.8939675981370255,0.002443461,0.015882496,0.028099801
719,7.19,-0.24234885,0.29774985,0.89080894,0.0053404074010672,0.0453786782044221,0.0362639228717005
720,7.2,-0.24234885,0.29774985,0.89080894,0.015882496,0.15271631,0.065973446
721,7.21,-0.24234885,0.29774985,0.89080894,0.015882496,0.15271631,0.065973446
722,7.22,-0.24234885,0.29774985,0.89080894,0.015882496,0.15271631,0.065973446
723,7.23,-0.24234885,0.29774985,0.89080894,0.015882496,0.15271631,0.065973446
724,7.24,-0.2405950527303012,0.303303536696448,0.8948037339379954,0.015882496,0.15271631,0.065973446
725,7.25,-0.2431761287823581,0.3103076870520984,0.8857344746611981,0.015882496,0.15271631,0.065973446
726,7.26,-0.264314,0.3048275,0.8246695,0.015882496,0.15271631,0.065973446
727,7.27,-0.264314,0.3048275,0.8246695,0.015882496,0.15271631,0.065973446
728,7.28,-0.264314,0.3048275,0.8246695,0.015882496,0.15271631,0.065973446
729,7.29,-0.264314,0.3048275,0.8246695,0.015882496,0.15271631,0.065973446
730,7.3,-0.264314,0.3048275,0.8246695,0.015882496,0.15271631,0.065973446
731,7.31,-0.264314,0.3048275,0.8246695,0.015882496,0.15271631,0.065973446
732,7.32,-0.264314,0.3048275,0.8246695,0.015882496,0.15271631,0.065973446
733,7.33,-0.2642974514109215,0.3048073539479548,0.8249313986765878,0.015882496,0.15271631,0.065973446
734,7.34,-0.2598286249000893,0.2993670586429534,0.8956552376416048,0.015882496,0.15271631,0.065973446
735,7.35,-0.25870067,0.2979939,0.9135063,0.015882496,0.15271631,0.065973446
736,7.36,-0.25870067,0.2979939,0.9135063,0.0131957357517386,0.1094594670121576,0.055226405886612
737,7.37,-0.2489646232864419,0.3042655856323933,0.9201960980078862,0.009773844,0.054367006,0.04153884
738,7.38,-0.21891935,0.3236199,0.9408407,0.009773844,0.054367006,0.04153884
739,7.39,-0.21891935,0.3236199,0.9408407,0.009773844,0.054367006,0.04153884
740,7.4,-0.2505485898048795,0.313122867771859,0.9615585121710724,0.009773844,0.054367006,0.04153884
741,7.41,-0.27480847,0.30507156,0.97744924,0.009773844,0.054367006,0.04153884
742,7.42,-0.27480847,0.30507156,0.97744924,0.009773844,0.054367006,0.04153884
743,7.43,-0.27480847,0.30507156,0.97744924,0.009773844,0.054367006,0.04153884
744,7.44,-0.27480847,0.30507156,0.97744924,0.009773844,0.054367006,0.04153884
745,7.45,-0.27480847,0.30507156,0.97744924,0.009773844,0.054367006,0.04153884
746,7.46,-0.27480847,0.30507156,0.97744924,0.009773844,0.054367006,0.04153884
747,7.47,-0.27480847,0.30507156,0.97744924,0.009773844,0.054367006,0.04153884
748,7.48,-0.27480847,0.30507156,0.97744924,0.0899108727580566,0.0458212061095423,0.0188037858575785
749,7.49,-0.2729773636696326,0.30502653228099,0.9733967957175867,0.31337386,0.021991149,-0.044593163
750,7.5,-0.248848198974245,0.3044331853901887,0.9199962400602816,0.31337386,0.021991149,-0.044593163
751,7.51,-0.24503349,0.30433938,0.91155386,0.31337386,0.021991149,-0.044593163
752,7.52,-0.24503349,0.30433938,0.91155386,0.31337386,0.021991149,-0.044593163
753,7.53,-0.2391568593214175,0.3156029171175169,0.9053507297735428,0.31337386,0.021991149,-0.044593163
754,7.54,-0.22746135,0.3380193,0.89300543,0.31337386,0.021991149,-0.044593163
755,7.55,-0.22746135,0.3380193,0.89300543,0.2687262452815245,0.0123268168832068,-0.0449126451809557
756,7.56,-0.22746135,0.3380193,0.89300543,-0.0032171618286038,-0.0465375013979896,-0.0468585738346569
757,7.57,-0.22746135,0.3380193,0.89300543,-0.028099801,-0.051923547,-0.047036625
758,7.58,-0.22746135,0.3380193,0.89300543,-0.028099801,-0.051923547,-0.047036625
759,7.59,-0.2241999877253664,0.3271194672267222,0.904248557587382,-0.0366924968177506,-0.0918795780512818,-0.005362051409224
760,7.6,-0.21818718,0.307024,0.92497694,-0.052534413,-0.16554448,0.07147124
761,7.61,-0.21818718,0.307024,0.92497694,-0.052534413,-0.16554448,0.07147124
762,7.62,-0.21818718,0.307024,0.92497694,-0.052534413,-0.16554448,0.07147124
763,7.63,-0.21818718,0.307024,0.92497694,-0.052534413,-0.16554448,0.07147124
764,7.64,-0.21818718,0.307024,0.92497694,-0.052534413,-0.16554448,0.07147124
765,7.65,-0.21818718,0.307024,0.92497694,-0.052534413,-0.16554448,0.07147124
766,7.66,-0.21818718,0.307024,0.92497694,-0.052534413,-0.16554448,0.07147124
767,7.67,-0.21818718,0.307024,0.92497694,-0.052534413,-0.16554448,0.07147124
768,7.68,-0.21818718,0.307024,0.92497694,-0.052534413,-0.16554448,0.07147124
769,7.69,-0.21818718,0.307024,0.92497694,-0.052534413,-0.16554448,0.07147124
770,7.7,-0.2117706465226716,0.3170862986039561,0.9364975446546072,-0.052534413,-0.16554448,0.07147124
771,7.71,-0.20744865,0.32386398,0.9442575,-0.052534413,-0.16554448,0.07147124
772,7.72,-0.20744865,0.32386398,0.9442575,-0.052534413,-0.16554448,0.07147124
773,7.73,-0.20744865,0.32386398,0.9442575,-0.052534413,-0.16554448,0.07147124
774,7.74,-0.20744865,0.32386398,0.9442575,-0.0305801286241893,-0.1716712569068234,0.0735645546700442
775,7.75,-0.20744865,0.32386398,0.9442575,0.1971810730067394,-0.235232521147358,0.0952813119316133
776,7.76,-0.20744865,0.32386398,0.9442575,0.21013765,-0.23884831,0.096516706
777,7.77,-0.20744865,0.32386398,0.9442575,0.21013765,-0.23884831,0.096516706
778,7.78,-0.20744865,0.32386398,0.9442575,0.21013765,-0.23884831,0.096516706
779,7.79,-0.20744865,0.32386398,0.9442575,0.21013765,-0.23884831,0.096516706
780,7.8,-0.20744865,0.32386398,0.9442575,0.21013765,-0.23884831,0.096516706
781,7.81,-0.2104080138749362,0.3227013718354315,0.9364363238385922,0.21013765,-0.23884831,0.096516706
782,7.82,-0.2267332538227796,0.316287879593856,0.8932910456959757,0.21013765,-0.23884831,0.096516706
783,7.83,-0.22794947,0.31581008,0.89007676,-0.1114204038540909,0.2408091126557195,0.0381003281904981
784,7.84,-0.22794947,0.31581008,0.89007676,-0.1563815,0.30787608,0.029932396
785,7.85,-0.22794947,0.31581008,0.89007676,-0.1563815,0.30787608,0.029932396
786,7.86,-0.2313376283483296,0.3179881766011784,0.8887053690266657,-0.1563815,0.30787608,0.029932396
787,7.87,-0.2443237332946988,0.3219751976769426,0.8746502187383439,-0.1563815,0.30787608,0.029932396
788,7.88,-0.26284966,0.32069123,0.84053314,-0.1563815,0.30787608,0.029932396
789,7.89,-0.26284966,0.32069123,0.84053314,-0.1563815,0.30787608,0.029932396
790,7.9,-0.26284966,0.32069123,0.84053314,-0.1563815,0.30787608,0.029932396
791,7.91,-0.26284966,0.32069123,0.84053314,-0.1563815,0.30787608,0.029932396
792,7.92,-0.26284966,0.32069123,0.84053314,-0.1563815,0.30787608,0.029932396
793,7.93,-0.26284966,0.32069123,0.84053314,-0.1563815,0.30787608,0.029932396
794,7.94,-0.26284966,0.32069123,0.84053314,-0.1563815,0.30787608,0.029932396
795,7.95,-0.26284966,0.32069123,0.84053314,-0.1563815,0.30787608,0.029932396
796,7.96,-0.26284966,0.32069123,0.84053314,-0.1563815,0.30787608,0.029932396
797,7.97,-0.26284966,0.32069123,0.84053314,-0.1563815,0.30787608,0.029932396
798,7.98,-0.26284966,0.32069123,0.84053314,-0.1563815,0.30787608,0.029932396
799,7.99,-0.26284966,0.32069123,0.84053314,-0.1563815,0.30787608,0.029932396
800,8.0,-0.26284966,0.32069123,0.84053314,-0.1563815,0.30787608,0.029932396
801,8.01,-0.26284966,0.32069123,0.84053314,-0.1563815,0.30787608,0.029932396
802,8.02,-0.2251563059478374,0.3155251472510866,0.905396374954452,-0.1563815,0.30787608,0.029932396
803,8.03,-0.21477039,0.3141017,0.9232686,-0.0549359352412027,0.1134708905116236,0.0075603707367094
804,8.04,-0.21477039,0.3141017,0.9232686,0.004276057,0.0,-0.005497787
805,8.05,-0.21477039,0.3141017,0.9232686,0.004276057,0.0,-0.005497787
806,8.06,-0.21477039,0.3141017,0.9232686,0.004276057,0.0,-0.005497787
807,8.07,-0.21477039,0.3141017,0.9232686,0.004276057,0.0,-0.005497787
808,8.08,-0.21477039,0.3141017,0.9232686,-0.1024230103465123,0.1129754853481288,-0.0206350247983903
809,8.09,-0.21477039,0.3141017,0.9232686,-0.172264,0.18692477,-0.030543262
810,8.1,-0.21477039,0.3141017,0.9232686,-0.172264,0.18692477,-0.030543262
811,8.11,-0.21477039,0.3141017,0.9232686,-0.172264,0.18692477,-0.030543262
812,8.12,-0.21477039,0.3141017,0.9232686,-0.172264,0.18692477,-0.030543262
813,8.13,-0.21477039,0.3141017,0.9232686,-0.172264,0.18692477,-0.030543262
814,8.14,-0.21477039,0.3141017,0.9232686,-0.172264,0.18692477,-0.030543262
815,8.15,-0.2296227948379366,0.309244298087718,0.9547482081128228,-0.172264,0.18692477,-0.030543262
816,8.16,-0.25357547,0.3014107,1.0055158,-0.172264,0.18692477,-0.030543262
817,8.17,-0.2559085032798117,0.2978702204736276,0.9986599640559845,-0.172264,0.18692477,-0.030543262
818,8.18,-0.2784054474634015,0.2637301286981811,0.932550594807374,-0.172264,0.18692477,-0.030543262
819,8.19,-0.281398,0.2591888,0.9237567,-0.172264,0.18692477,-0.030543262
820,8.2,-0.281398,0.2591888,0.9237567,-0.172264,0.18692477,-0.030543262
821,8.21,-0.281398,0.2591888,0.9237567,-0.172264,0.18692477,-0.030543262
822,8.22,-0.281398,0.2591888,0.9237567,-0.172264,0.18692477,-0.030543262
823,8.23,-0.281398,0.2591888,0.9237567,-0.172264,0.18692477,-0.030543262
824,8.24,-0.281398,0.2591888,0.9237567,-0.172264,0.18692477,-0.030543262
825,8.25,-0.281398,0.2591888,0.9237567,-0.172264,0.18692477,-0.030543262
826,8.26,-0.281398,0.2591888,0.9237567,-0.172264,0.18692477,-0.030543262
827,8.27,-0.281398,0.2591888,0.9237567,-0.172264,0.18692477,-0.030543262
828,8.28,-0.281398,0.2591888,0.9237567,-0.172264,0.18692477,-0.030543262
829,8.29,-0.281398,0.2591888,0.9237567,-0.172264,0.18692477,-0.030543262
830,8.3,-0.281398,0.2591888,0.9237567,-0.172264,0.18692477,-0.030543262
831,8.31,-0.281398,0.2591888,0.9237567,-0.172264,0.18692477,-0.030543262
832,8.32,-0.281398,0.2591888,0.9237567,-0.172264,0.18692477,-0.030543262
833,8.33,-0.281398,0.2591888,0.9237567,-0.172264,0.18692477,-0.030543262
834,8.34,-0.281398,0.2591888,0.9237567,-0.172264,0.18692477,-0.030543262
835,8.35,-0.281398,0.2591888,0.9237567,-0.172264,0.18692477,-0.030543262
836,8.36,-0.281398,0.2591888,0.9237567,-0.172264,0.18692477,-0.030543262
837,8.37,-0.281398,0.2591888,0.9237567,-0.172264,0.18692477,-0.030543262
838,8.38,-0.281398,0.2591888,0.9237567,-0.172264,0.18692477,-0.030543262
839,8.39,-0.281398,0.2591888,0.9237567,-0.172264,0.18692477,-0.030543262
840,8.4,-0.281398,0.2591888,0.9237567,-0.172264,0.18692477,-0.030543262
841,8.41,-0.281398,0.2591888,0.9237567,-0.172264,0.18692477,-0.030543262
842,8.42,-0.281398,0.2591888,0.9237567,-0.172264,0.18692477,-0.030543262
843,8.43,-0.2361638813422541,0.3056641072016574,0.94375349155236,-0.0883851796777198,0.0119183414373475,0.0119139181616502
844,8.44,-0.20134723,0.3414361,0.959145,-0.023823744,-0.122783914,0.044593163
845,8.45,-0.20134723,0.3414361,0.959145,-0.0191588595184024,-0.0923394039689888,0.0264246649583391
846,8.46,-0.20134723,0.3414361,0.959145,-0.00061086525,0.028710667,-0.045814894
847,8.47,-0.20134723,0.3414361,0.959145,-0.00061086525,0.028710667,-0.045814894
848,8.48,-0.20134723,0.3414361,0.959145,0.0235288752535129,0.0206640861218842,-0.0264084366052585
849,8.49,-0.20134723,0.3414361,0.959145,0.030543262,0.018325957,-0.02076942
850,8.5,-0.20134723,0.3414361,0.959145,0.030543262,0.018325957,-0.02076942
851,8.51,-0.2020523295982734,0.3407169920310453,0.9580336499987944,0.030543262,0.018325957,-0.02076942
852,8.52,-0.2259594147809563,0.3163349394650757,0.9203522512124988,0.030543262,0.018325957,-0.02076942
853,8.53,-0.23819989,0.30385128,0.9010593,0.030543262,0.018325957,-0.02076942
854,8.54,-0.2460350057209461,0.3056365017442823,0.8950094121189617,0.030543262,0.018325957,-0.02076942
855,8.55,-0.2767609,0.31263736,0.8712844,0.030543262,0.018325957,-0.02076942
856,8.56,-0.2767609,0.31263736,0.8712844,0.030543262,0.018325957,-0.02076942
857,8.57,-0.2767609,0.31263736,0.8712844,0.030543262,0.018325957,-0.02076942
858,8.58,-0.2767609,0.31263736,0.8712844,0.030543262,0.018325957,-0.02076942
859,8.59,-0.2767609,0.31263736,0.8712844,0.030543262,0.018325957,-0.02076942
860,8.6,-0.2767609,0.31263736,0.8712844,0.030543262,0.018325957,-0.02076942
861,8.61,-0.2767609,0.31263736,0.8712844,0.030543262,0.018325957,-0.02076942
862,8.62,-0.2707965844415814,0.3125255231551066,0.8772487109762558,0.0449118929189825,-0.0252464477265146,-0.0173172162124236
863,8.63,-0.23771177,0.31190515,0.9103335,0.12461651,-0.2669481,0.0018325958
864,8.64,-0.23771177,0.31190515,0.9103335,0.12461651,-0.2669481,0.0018325958
865,8.65,-0.2441336390672095,0.3066359306726173,0.8879393414728266,0.12461651,-0.2669481,0.0018325958
866,8.66,-0.24723,0.30409533,0.8771418,0.0007144540782209,-0.1291740659584489,-0.0151921142756305
867,8.67,-0.24723,0.30409533,0.8771418,-0.115453534,0.0,-0.031154128
868,8.68,-0.24723,0.30409533,0.8771418,-0.115453534,0.0,-0.031154128
869,8.69,-0.24723,0.30409533,0.8771418,-0.115453534,0.0,-0.031154128
870,8.7,-0.24723,0.30409533,0.8771418,-0.115453534,0.0,-0.031154128
871,8.71,-0.24723,0.30409533,0.8771418,-0.1323877839562229,0.1047560591281255,-0.0492698354713474
872,8.72,-0.24723,0.30409533,0.8771418,-0.14172074,0.16249016,-0.059253927
873,8.73,-0.24723,0.30409533,0.8771418,-0.14172074,0.16249016,-0.059253927
874,8.74,-0.24723,0.30409533,0.8771418,-0.14172074,0.16249016,-0.059253927
875,8.75,-0.24723,0.30409533,0.8771418,-0.14172074,0.16249016,-0.059253927
876,8.76,-0.24723,0.30409533,0.8771418,-0.14172074,0.16249016,-0.059253927
877,8.77,-0.24723,0.30409533,0.8771418,-0.021218220414599,-0.0055791427272264,-0.0307138580233633
878,8.78,-0.24723,0.30409533,0.8771418,0.043982297,-0.096516706,-0.015271631
879,8.79,-0.24723,0.30409533,0.8771418,0.0315604855380041,-0.0253736022041913,-0.0183367531791609
880,8.8,-0.2465737910565787,0.3046651940228195,0.8785405507788314,-0.0030543262,0.17287487,-0.02687807
881,8.81,-0.23795582,0.3121492,0.8969103,-0.0030543262,0.17287487,-0.02687807
882,8.82,-0.23795582,0.3121492,0.8969103,-0.0030543262,0.17287487,-0.02687807
883,8.83,-0.23795582,0.3121492,0.8969103,-0.0030543262,0.17287487,-0.02687807
884,8.84,-0.23795582,0.3121492,0.8969103,-0.0030543262,0.17287487,-0.02687807
885,8.85,-0.2405872837703818,0.3074619144249148,0.9033245316886452,-0.0030543262,0.17287487,-0.02687807
886,8.86,-0.2537627684248026,0.2988673549033643,0.8974720845884745,-0.0030543262,0.17287487,-0.02687807
887,8.87,-0.298482,0.30238694,0.7941623,-0.0030543262,0.17287487,-0.02687807
888,8.88,-0.298482,0.30238694,0.7941623,-0.0030543262,0.17287487,-0.02687807
889,8.89,-0.298482,0.30238694,0.7941623,-0.0030543262,0.17287487,-0.02687807
890,8.9,-0.298482,0.30238694,0.7941623,-0.0030543262,0.17287487,-0.02687807
891,8.91,-0.2791728899386663,0.3080324054719929,0.8467714583329937,-0.0030543262,0.17287487,-0.02687807
892,8.92,-0.24088451,0.3192269,0.9510911,-0.0030543262,0.17287487,-0.02687807
893,8.93,-0.24088451,0.3192269,0.9510911,-0.0030543262,0.17287487,-0.02687807
894,8.94,-0.24088451,0.3192269,0.9510911,-0.0030543262,0.17287487,-0.02687807
895,8.95,-0.24088451,0.3192269,0.9510911,-0.0030543262,0.17287487,-0.02687807
896,8.96,-0.24088451,0.3192269,0.9510911,-0.0030543262,0.17287487,-0.02687807
897,8.97,-0.24088451,0.3192269,0.9510911,-0.0030543262,0.17287487,-0.02687807
898,8.98,-0.2449187805378851,0.3193389598180606,0.9317041637411616,-0.0030543262,0.17287487,-0.02687807
899,8.99,-0.2570867665326385,0.3204350509047944,0.8709675583814834,-0.0030543262,0.17287487,-0.02687807
900,9.0,-0.2419626749982005,0.3283848908351486,0.9186667409702044,-0.0030543262,0.17287487,-0.02687807
901,9.01,-0.23942018,0.32972133,0.9266854,-0.0030543262,0.17287487,-0.02687807
902,9.02,-0.23942018,0.32972133,0.9266854,-0.0030543262,0.17287487,-0.02687807
903,9.03,-0.23942018,0.32972133,0.9266854,-0.0030543262,0.17287487,-0.02687807
904,9.04,-0.23942018,0.32972133,0.9266854,-0.0030543262,0.17287487,-0.02687807
905,9.05,-0.23942018,0.32972133,0.9266854,-0.0030543262,0.17287487,-0.02687807
906,9.06,-0.23942018,0.32972133,0.9266854,-0.0030543262,0.17287487,-0.02687807
907,9.07,-0.23942018,0.32972133,0.9266854,-0.0030543262,0.17287487,-0.02687807
908,9.08,-0.23942018,0.32972133,0.9266854,-0.0030543262,0.17287487,-0.02687807
909,9.09,-0.23942018,0.32972133,0.9266854,-0.0030543262,0.17287487,-0.02687807
910,9.1,-0.23942018,0.32972133,0.9266854,-0.0030543262,0.17287487,-0.02687807
911,9.11,-0.23942018,0.32972133,0.9266854,-0.0030543262,0.17287487,-0.02687807
912,9.12,-0.23942018,0.32972133,0.9266854,-0.0030543262,0.17287487,-0.02687807
913,9.13,-0.23942018,0.32972133,0.9266854,-0.0030543262,0.17287487,-0.02687807
914,9.14,-0.23942018,0.32972133,0.9266854,-0.0030543262,0.17287487,-0.02687807
915,9.15,-0.23942018,0.32972133,0.9266854,-0.0030543262,0.17287487,-0.02687807
916,9.16,-0.23942018,0.32972133,0.9266854,-0.0030543262,0.17287487,-0.02687807
917,9.17,-0.23942018,0.32972133,0.9266854,-0.0030543262,0.17287487,-0.02687807
918,9.18,-0.23942018,0.32972133,0.9266854,-0.0030543262,0.17287487,-0.02687807
919,9.19,-0.23942018,0.32972133,0.9266854,-0.0030543262,0.17287487,-0.02687807
920,9.2,-0.23942018,0.32972133,0.9266854,-0.0030543262,0.17287487,-0.02687807
921,9.21,-0.23942018,0.32972133,0.9266854,-0.0030543262,0.17287487,-0.02687807
922,9.22,-0.23942018,0.32972133,0.9266854,-0.0030543262,0.17287487,-0.02687807
923,9.23,-0.23942018,0.32972133,0.9266854,-0.0030543262,0.17287487,-0.02687807
924,9.24,-0.2591154561929038,0.3180649635599691,0.9041764493981036,-0.0030543262,0.17287487,-0.02687807
925,9.25,-0.2633378,0.31556603,0.8993509,-0.0030543262,0.17287487,-0.02687807
926,9.26,-0.2633378,0.31556603,0.8993509,-0.0030543262,0.17287487,-0.02687807
927,9.27,-0.2699800785555103,0.3160931975018766,0.922967964339904,-0.0030543262,0.17287487,-0.02687807
928,9.28,-0.27871338,0.31678632,0.9540198,-0.0030543262,0.17287487,-0.02687807
929,9.29,-0.27871338,0.31678632,0.9540198,-0.0030543262,0.17287487,-0.02687807
930,9.3,-0.27871338,0.31678632,0.9540198,-0.0030543262,0.17287487,-0.02687807
931,9.31,-0.27871338,0.31678632,0.9540198,-0.0030543262,0.17287487,-0.02687807
932,9.32,-0.27871338,0.31678632,0.9540198,0.0331318583830738,0.141211954747793,-0.0346322547302939
933,9.33,-0.2769084919461523,0.3169503961482671,0.937119465945502,0.06536258,0.11301007,-0.04153884
934,9.34,-0.27334413,0.31727442,0.90374404,0.06536258,0.11301007,-0.04153884
935,9.35,-0.27334413,0.31727442,0.90374404,0.06536258,0.11301007,-0.04153884
936,9.36,-0.27334413,0.31727442,0.90374404,0.06536258,0.11301007,-0.04153884
937,9.37,-0.27334413,0.31727442,0.90374404,0.06536258,0.11301007,-0.04153884
938,9.38,-0.27334413,0.31727442,0.90374404,0.06536258,0.11301007,-0.04153884
939,9.39,-0.2738461144109376,0.3118242724758572,0.905249990294465,0.06536258,0.11301007,-0.04153884
940,9.4,-0.27505252,0.29872608,0.9088692,0.0619402981639133,0.1068029900985587,-0.040163216665523
941,9.41,-0.27505252,0.29872608,0.9088692,0.0080302463565924,0.0090249533716016,-0.0184934861228711
942,9.42,-0.27505252,0.29872608,0.9088692,0.0030543262,0.0,-0.016493361
943,9.43,-0.27505252,0.29872608,0.9088692,0.0030543262,0.0,-0.016493361
944,9.44,-0.27505252,0.29872608,0.9088692,0.0030543262,0.0,-0.016493361
945,9.45,-0.27505252,0.29872608,0.9088692,0.0030543262,0.0,-0.016493361
946,9.46,-0.27505252,0.29872608,0.9088692,0.0030543262,0.0,-0.016493361
947,9.47,-0.27505252,0.29872608,0.9088692,0.0030543262,0.0,-0.016493361
948,9.48,-0.27505252,0.29872608,0.9088692,0.0030543262,0.0,-0.016493361
949,9.49,-0.27505252,0.29872608,0.9088692,0.0030543262,0.0,-0.016493361
950,9.5,-0.2529203847176316,0.3851697382628617,1.1242566503792344,0.0030543262,0.0,-0.016493361
951,9.51,-0.24137263,0.43027294,1.2366381,0.0030543262,0.0,-0.016493361
952,9.52,-0.24137263,0.43027294,1.2366381,0.0030543262,0.0,-0.016493361
953,9.53,-0.24137263,0.43027294,1.2366381,0.0030543262,0.0,-0.016493361
954,9.54,-0.2656870403381253,0.3487816456435412,1.01989788840863,0.0201706339727034,-0.0175917607317973,-0.0012788656863337
955,9.55,-0.27261195,0.32557237,0.9581688,0.0508793468640317,0.0101723021253713,-0.0177670029230393
956,9.56,-0.27261195,0.32557237,0.9581688,0.065973446,0.029321533,-0.029932396
957,9.57,-0.27261195,0.32557237,0.9581688,0.065973446,0.029321533,-0.029932396
958,9.58,-0.2705300667749778,0.3233261230242806,0.9449652180716258,0.0488323857335577,0.0250705499838838,-0.025270027704504
959,9.59,-0.2633378,0.31556603,0.8993509,-0.01038471,0.01038471,-0.009162978
960,9.6,-0.2633378,0.31556603,0.8993509,-0.01038471,0.01038471,-0.009162978
961,9.61,-0.2633378,0.31556603,0.8993509,-0.01038471,0.01038471,-0.009162978
962,9.62,-0.2633378,0.31556603,0.8993509,-0.01038471,0.01038471,-0.009162978
963,9.63,-0.2633378,0.31556603,0.8993509,-0.01038471,0.01038471,-0.009162978
964,9.64,-0.2633378,0.31556603,0.8993509,-0.01038471,0.01038471,-0.009162978
965,9.65,-0.2657260959567309,0.312556765977809,0.8800534071362759,0.0111354680256155,0.0090695878703693,-0.005576281923353
966,9.66,-0.27554062,0.30019042,0.8007518,0.0937077244026419,-0.0007942270727181,0.0100548616718162
967,9.67,-0.27554062,0.30019042,0.8007518,-0.0792791280876275,-0.1323616954659003,0.0363683534997898
968,9.68,-0.2412764744711416,0.311673549871613,0.8792815869736279,-0.11728613,-0.16126843,0.0421497
969,9.69,-0.23039004,0.31532198,0.90423214,-0.11728613,-0.16126843,0.0421497
970,9.7,-0.23039004,0.31532198,0.90423214,-0.11728613,-0.16126843,0.0421497
971,9.71,-0.23039004,0.31532198,0.90423214,-0.11728613,-0.16126843,0.0421497
972,9.72,-0.23039004,0.31532198,0.90423214,-0.1066107069570707,-0.1487669462395558,0.0406045736462621
973,9.73,-0.23039004,0.31532198,0.90423214,-0.07086037,-0.106901415,0.035430185
974,9.74,-0.2307948388013053,0.3152338603649534,0.9035739973466632,-0.07086037,-0.106901415,0.035430185
975,9.75,-0.2593320384703205,0.3090216689948796,0.857176754448701,-0.07086037,-0.106901415,0.035430185
976,9.76,-0.26626647,0.30751213,0.8459024,-0.07086037,-0.106901415,0.035430185
977,9.77,-0.2642198693363697,0.3108276143874738,0.8662865116832172,-0.07086037,-0.106901415,0.035430185
978,9.78,-0.2547137903759747,0.3262274219509963,0.960966914480734,-0.07086037,-0.106901415,0.035430185
979,9.79,-0.1928564756111246,0.3560328747683032,0.912552556076842,-0.07086037,-0.106901415,0.035430185
980,9.8,-0.18548352,0.35949633,0.9059405,-0.07086037,-0.106901415,0.035430185
981,9.81,-0.2249866480777766,0.3389498022953912,0.9074081152067244,-0.0359634101523545,-0.054555977859385,0.0173694777192206
982,9.82,-0.264314,0.3184947,0.9088692,0.0169232334719093,0.0199034941891774,0.0024451283554525
983,9.83,-0.264314,0.3184947,0.9088692,0.0509490452954766,0.0640883712911491,0.0071213583056746
984,9.84,-0.264314,0.3184947,0.9088692,0.002443461,0.02321288,-0.009773844
985,9.85,-0.264314,0.3184947,0.9088692,0.002443461,0.02321288,-0.009773844
986,9.86,-0.264314,0.3184947,0.9088692,-0.0498905332303208,-0.0696799561713081,0.0224987856920723
987,9.87,-0.264314,0.3184947,0.9088692,0.0114434498271199,-0.0278181833238045,0.0307782296097214
988,9.88,-0.264314,0.3184947,0.9088692,0.06963864,0.028099801,0.027488936
989,9.89,-0.260996908698927,0.31900861574242,0.9185401550073516,0.06963864,0.028099801,0.027488936
990,9.9,-0.2474676549069987,0.321104698085592,0.9579845937728606,0.06963864,0.028099801,0.027488936
991,9.91,-0.24698594,0.32117933,0.95938903,0.0096873955798656,-0.059485217329701,0.0312358879136864
992,9.92,-0.24698594,0.32117933,0.95938903,-0.008552114,-0.086132,0.032375857
993,9.93,-0.24698594,0.32117933,0.95938903,-0.008552114,-0.086132,0.032375857
994,9.94,-0.24698594,0.32117933,0.95938903,-0.008552114,-0.086132,0.032375857
995,9.95,-0.24698594,0.32117933,0.95938903,-0.008552114,-0.086132,0.032375857
996,9.96,-0.24698594,0.32117933,0.95938903,-0.008552114,-0.086132,0.032375857
997,9.97,-0.24698594,0.32117933,0.95938903,-0.008552114,-0.086132,0.032375857
998,9.98,-0.24698594,0.32117933,0.95938903,-0.008552114,-0.086132,0.032375857
999,9.99,-0.24698594,0.32117933,0.95938903,-0.008552114,-0.086132,0.032375857
