id,timestamp,acc_x,acc_y,acc_z,gyro_x,gyro_y,gyro_z
1,0.01,-0.009518232,0.057841565,1.0294335,0.13622294,-0.037873644,-0.06780604
2,0.02,-0.009518232,0.057841565,1.0294335,0.13622294,-0.037873644,-0.06780604
3,0.03,-0.009518232,0.057841565,1.0294335,0.13622294,-0.037873644,-0.06780604
4,0.04,-0.009518232,0.057841565,1.0294335,0.13622294,-0.037873644,-0.06780604
5,0.05,-0.009518232,0.057841565,1.0294335,0.13622294,-0.037873644,-0.06780604
6,0.06,-0.009518232,0.057841565,1.0294335,0.13622294,-0.037873644,-0.06780604
7,0.07,-0.0052768634917272,0.0552089944601124,1.0244607685456966,0.13622294,-0.037873644,-0.06780604
8,0.08,-0.0024405725,0.05344854,1.0211354,0.1406939952532867,-0.0847020604313749,-0.0654528540383278
9,0.09,-0.0024405725,0.05344854,1.0211354,0.14782938,-0.15943582,-0.06169739
10,0.1,-0.0024405725,0.05344854,1.0211354,0.14782938,-0.15943582,-0.06169739
11,0.11,-0.0024405725,0.05344854,1.0211354,0.14782938,-0.15943582,-0.06169739
12,0.12,-0.0024405725,0.05344854,1.0211354,-0.0257887193696772,0.0194068967787994,-0.1083170669019417
13,0.13,-0.0024405725,0.05344854,1.0211354,-0.1160644,0.112399206,-0.13255776
14,0.14,-0.0024405725,0.05344854,1.0211354,-0.1160644,0.112399206,-0.13255776
15,0.15,-0.0024405725,0.05344854,1.0211354,-0.1160644,0.112399206,-0.13255776
16,0.16,-0.0024405725,0.05344854,1.0211354,-0.1160644,0.112399206,-0.13255776
17,0.17,-0.0024405725,0.05344854,1.0211354,-0.1160644,0.112399206,-0.13255776
18,0.18,0.013005968957659,0.064261121907997,1.018818487669264,-0.1160644,0.112399206,-0.13255776
19,0.19,0.017084008,0.06711575,1.0182068,-0.1160644,0.112399206,-0.13255776
20,0.2,0.017084008,0.06711575,1.0182068,-0.1506130709394498,-0.0111285995507397,-0.0774754396156681
21,0.21,0.017084008,0.06711575,1.0182068,-0.18081611,-0.11911872,-0.029321533
22,0.22,0.017084008,0.06711575,1.0182068,-0.18081611,-0.11911872,-0.029321533
23,0.23,0.017084008,0.06711575,1.0182068,-0.18081611,-0.11911872,-0.029321533
24,0.24,0.017084008,0.06711575,1.0182068,-0.18081611,-0.11911872,-0.029321533
25,0.25,0.017084008,0.06711575,1.0182068,-0.18081611,-0.11911872,-0.029321533
26,0.26,0.017084008,0.06711575,1.0182068,-0.18081611,-0.11911872,-0.029321533
27,0.27,0.017084008,0.06711575,1.0182068,-0.18081611,-0.11911872,-0.029321533
28,0.28,0.017084008,0.06711575,1.0182068,-0.18081611,-0.11911872,-0.029321533
29,0.29,0.017084008,0.06711575,1.0182068,-0.18081611,-0.11911872,-0.029321533
30,0.3,0.017084008,0.06711575,1.0182068,-0.18081611,-0.11911872,-0.029321533
31,0.31,0.017084008,0.06711575,1.0182068,-0.18081611,-0.11911872,-0.029321533
32,0.32,0.017084008,0.06711575,1.0182068,-0.18081611,-0.11911872,-0.029321533
33,0.33,0.017084008,0.06711575,1.0182068,-0.18081611,-0.11911872,-0.029321533
34,0.34,0.017084008,0.06711575,1.0182068,-0.18081611,-0.11911872,-0.029321533
35,0.35,0.017084008,0.06711575,1.0182068,-0.18081611,-0.11911872,-0.029321533
36,0.36,0.017084008,0.06711575,1.0182068,-0.18081611,-0.11911872,-0.029321533
37,0.37,0.017084008,0.06711575,1.0182068,-0.18081611,-0.11911872,-0.029321533
38,0.38,0.017084008,0.06711575,1.0182068,-0.18081611,-0.11911872,-0.029321533
39,0.39,0.0134331349551415,0.0702189893393982,1.0039684268757056,-0.117535572354441,-0.1474464737814443,-0.0256663390240034
40,0.4,0.007321717,0.07541369,0.98013395,-0.01160644,-0.19486602,-0.019547688
41,0.41,0.007321717,0.07541369,0.98013395,-0.01160644,-0.19486602,-0.019547688
42,0.42,0.007321717,0.07541369,0.98013395,0.0098213604115293,0.0797481560432323,-0.0460504915858661
43,0.43,0.007321717,0.07541369,0.98013395,0.01160644,0.10262536,-0.048258353
44,0.44,0.007321717,0.07541369,0.98013395,-0.056204865266905,-0.0940274277408828,-0.0245243961565832
45,0.45,0.0168115705956003,0.1973319500242253,0.9376932074933202,-0.048204686589054,-0.059544372078197,-0.0203306058266209
46,0.46,0.024893839,0.30116665,0.9015475,-0.0749684307067034,0.0147785253314032,-0.0422396280381296
47,0.47,0.024893839,0.30116665,0.9015475,-0.15332718,-0.051923547,-0.05681047
48,0.48,0.0169793905082555,0.2654026144494043,0.9113163759947028,-0.15332718,-0.051923547,-0.05681047
49,0.49,-0.0291709948244299,0.0568569370805366,0.9682802177447672,-0.15332718,-0.051923547,-0.05681047
50,0.5,-0.033435844,0.037584815,0.97354436,-0.15332718,-0.051923547,-0.05681047
51,0.51,-0.033435844,0.037584815,0.97354436,-0.15332718,-0.051923547,-0.05681047
52,0.52,-0.033435844,0.037584815,0.97354436,-0.15332718,-0.051923547,-0.05681047
53,0.53,-0.033435844,0.037584815,0.97354436,-0.15332718,-0.051923547,-0.05681047
54,0.54,-0.033435844,0.037584815,0.97354436,-0.15332718,-0.051923547,-0.05681047
55,0.55,-0.033435844,0.037584815,0.97354436,-0.15332718,-0.051923547,-0.05681047
56,0.56,-0.0185996735708336,0.0476887595479403,0.9890199743732652,-0.15332718,-0.051923547,-0.05681047
57,0.57,-0.0051252022,0.05686534,1.0030752,-0.15332718,-0.051923547,-0.05681047
58,0.58,-0.0051252022,0.05686534,1.0030752,-0.15332718,-0.051923547,-0.05681047
59,0.59,-0.0051252022,0.05686534,1.0030752,-0.1363867220051198,-0.0504064911631224,-0.0474552917413863
60,0.6,-0.0051252022,0.05686534,1.0030752,-0.0392841730943663,-0.041710741104578,0.0061685037132814
61,0.61,-0.0051252022,0.05686534,1.0030752,-0.030543262,-0.040927973,0.010995574
62,0.62,-0.0051252022,0.05686534,1.0030752,-0.030543262,-0.040927973,0.010995574
63,0.63,-0.0051252022,0.05686534,1.0030752,-0.0093056102607362,0.0314031597862899,-0.0188602543000376
64,0.64,-3.4098363871125896e-05,0.0470342427039715,1.0064985524593866,0.01160644,0.10262536,-0.048258353
65,0.65,0.009030119,0.029530926,1.0125935,0.01160644,0.10262536,-0.048258353
66,0.66,0.0093382142547113,0.0323037834866162,1.0142998814271933,0.01160644,0.10262536,-0.048258353
67,0.67,0.0118851926749716,0.0552265908744955,1.028406287174552,0.01160644,0.10262536,-0.048258353
68,0.68,0.012202863,0.058085624,1.0301657,0.01160644,0.10262536,-0.048258353
69,0.69,0.012202863,0.058085624,1.0301657,0.01160644,0.10262536,-0.048258353
70,0.7,0.012202863,0.058085624,1.0301657,0.01160644,0.10262536,-0.048258353
71,0.71,0.012202863,0.058085624,1.0301657,0.01160644,0.10262536,-0.048258353
72,0.72,0.012202863,0.058085624,1.0301657,0.01160644,0.10262536,-0.048258353
73,0.73,0.012202863,0.058085624,1.0301657,0.01160644,0.10262536,-0.048258353
74,0.74,0.012202863,0.058085624,1.0301657,0.01160644,0.10262536,-0.048258353
75,0.75,0.012202863,0.058085624,1.0301657,0.01160644,0.10262536,-0.048258353
76,0.76,0.012202863,0.058085624,1.0301657,0.01160644,0.10262536,-0.048258353
77,0.77,0.012202863,0.058085624,1.0301657,0.01160644,0.10262536,-0.048258353
78,0.78,0.012202863,0.058085624,1.0301657,0.01160644,0.10262536,-0.048258353
79,0.79,0.012202863,0.058085624,1.0301657,0.01160644,0.10262536,-0.048258353
80,0.8,0.012202863,0.058085624,1.0301657,0.01160644,0.10262536,-0.048258353
81,0.81,0.012202863,0.058085624,1.0301657,0.01160644,0.10262536,-0.048258353
82,0.82,0.012202863,0.058085624,1.0301657,0.01160644,0.10262536,-0.048258353
83,0.83,-0.0230393703621001,0.0498036998710838,0.9825886552505564,0.01160644,0.10262536,-0.048258353
84,0.84,-0.036608588,0.046614934,0.9642702,0.01160644,0.10262536,-0.048258353
85,0.85,-0.036608588,0.046614934,0.9642702,0.01160644,0.10262536,-0.048258353
86,0.86,-0.036608588,0.046614934,0.9642702,0.01160644,0.10262536,-0.048258353
87,0.87,-0.036608588,0.046614934,0.9642702,0.01160644,0.10262536,-0.048258353
88,0.88,-0.036608588,0.046614934,0.9642702,0.01160644,0.10262536,-0.048258353
89,0.89,-0.036608588,0.046614934,0.9642702,0.01160644,0.10262536,-0.048258353
90,0.9,0.0070156656599441,0.0361595337276459,0.9929323410824028,0.01160644,0.10262536,-0.048258353
91,0.91,0.022453265,0.032459613,1.0030752,-0.0092196472962594,0.0571550703975392,-0.0246554549165585
92,0.92,0.022453265,0.032459613,1.0030752,-0.025045475,0.022602014,-0.0067195175
93,0.93,0.022453265,0.032459613,1.0030752,-0.025045475,0.022602014,-0.0067195175
94,0.94,0.022453265,0.032459613,1.0030752,-0.025045475,0.022602014,-0.0067195175
95,0.95,0.022453265,0.032459613,1.0030752,-0.025045475,0.022602014,-0.0067195175
96,0.96,0.022453265,0.032459613,1.0030752,-0.025045475,0.022602014,-0.0067195175
97,0.97,0.022453265,0.032459613,1.0030752,-0.0136859064719359,0.0666771419121187,-0.0539753244660864
98,0.98,0.022453265,0.032459613,1.0030752,-0.009773844,0.081855945,-0.070249505
99,0.99,0.022453265,0.032459613,1.0030752,-0.016883194857305,-0.0420498769594012,-0.3190767700423215
100,1.0,0.022453265,0.032459613,1.0030752,-0.0179910685297112,-0.2513710064044849,-0.7090144789618936
101,1.01,0.0187676508771105,0.0323828295264691,1.0012707950182296,0.059864793,-0.018325957,-0.061086524
102,1.02,-0.0185535388219058,0.0316053063008021,0.982999066515704,0.059864793,-0.018325957,-0.061086524
103,1.03,0.0078189610072613,0.040551638161804,0.9916311238218828,0.059864793,-0.018325957,-0.061086524
104,1.04,0.024161667,0.04515059,0.9974619,0.059864793,-0.018325957,-0.061086524
105,1.05,0.024161667,0.04515059,0.9974619,0.059864793,-0.018325957,-0.061086524
106,1.06,0.024161667,0.04515059,0.9974619,0.059864793,-0.018325957,-0.061086524
107,1.07,0.024161667,0.04515059,0.9974619,0.059864793,-0.018325957,-0.061086524
108,1.08,0.024161667,0.04515059,0.9974619,-0.0891774135120299,0.0181818560696958,0.1082796117260429
109,1.09,0.024161667,0.04515059,0.9974619,-0.18203785,0.040927973,0.21380283
110,1.1,0.024161667,0.04515059,0.9974619,-0.18203785,0.040927973,0.21380283
111,1.11,0.024161667,0.04515059,0.9974619,-0.18203785,0.040927973,0.21380283
112,1.12,0.024161667,0.04515059,0.9974619,-0.18203785,0.040927973,0.21380283
113,1.13,0.024161667,0.04515059,0.9974619,-0.18203785,0.040927973,0.21380283
114,1.14,0.024161667,0.04515059,0.9974619,-0.18203785,0.040927973,0.21380283
115,1.15,0.024161667,0.04515059,0.9974619,-0.18203785,0.040927973,0.21380283
116,1.16,0.024161667,0.04515059,0.9974619,-0.18203785,0.040927973,0.21380283
117,1.17,-0.0198559118333462,0.1080328495210081,0.9468106065050385,-0.18203785,0.040927973,0.21380283
118,1.18,-0.1313028,0.2672427,0.818568,-0.18203785,0.040927973,0.21380283
119,1.19,-0.1313028,0.2672427,0.818568,-0.18203785,0.040927973,0.21380283
120,1.2,-0.1313028,0.2672427,0.818568,-0.18203785,0.040927973,0.21380283
121,1.21,-0.1313028,0.2672427,0.818568,-0.18203785,0.040927973,0.21380283
122,1.22,-0.1313028,0.2672427,0.818568,-0.18203785,0.040927973,0.21380283
123,1.23,-0.1313028,0.2672427,0.818568,-0.18203785,0.040927973,0.21380283
124,1.24,-0.1313028,0.2672427,0.818568,-0.18203785,0.040927973,0.21380283
125,1.25,-0.1313028,0.2672427,0.818568,-0.18203785,0.040927973,0.21380283
126,1.26,-0.0510554413505961,0.1113290247739594,0.9281972904757811,-0.18203785,0.040927973,0.21380283
127,1.27,-0.007321717,0.026358182,0.98794377,-0.18203785,0.040927973,0.21380283
128,1.28,-0.007321717,0.026358182,0.98794377,-0.18203785,0.040927973,0.21380283
129,1.29,-0.007321717,0.026358182,0.98794377,-0.139435445421865,-0.0183068733777132,0.1471271530900856
130,1.3,-0.007321717,0.026358182,0.98794377,-0.0036651916,-0.20708331,-0.06536258
131,1.31,-0.007321717,0.026358182,0.98794377,-0.0036651916,-0.20708331,-0.06536258
132,1.32,-0.007321717,0.026358182,0.98794377,-0.0036651916,-0.20708331,-0.06536258
133,1.33,-0.007321717,0.026358182,0.98794377,-0.0036651916,-0.20708331,-0.06536258
134,1.34,-0.0149815425546946,0.0369861901434894,0.9824861265105116,-0.0036651916,-0.20708331,-0.06536258
135,1.35,-0.026846299,0.05344854,0.97403246,-0.0036651916,-0.20708331,-0.06536258
136,1.36,-0.026846299,0.05344854,0.97403246,-0.0036651916,-0.20708331,-0.06536258
137,1.37,-0.026846299,0.05344854,0.97403246,-0.0036651916,-0.20708331,-0.06536258
138,1.38,-0.026846299,0.05344854,0.97403246,-0.2021841879697504,-0.3917768860931719,-0.939555088778614
139,1.39,-0.026846299,0.05344854,0.97403246,-0.34574974,-0.52534413,-1.5717562
140,1.4,-0.026846299,0.05344854,0.97403246,-0.2628239580614592,-0.4279912010573322,-1.2832132976261663
141,1.41,-0.026846299,0.05344854,0.97403246,0.0720821,-0.03481932,-0.11789699
142,1.42,-0.026846299,0.05344854,0.97403246,0.0720821,-0.03481932,-0.11789699
143,1.43,-0.026846299,0.05344854,0.97403246,0.0720821,-0.03481932,-0.11789699
144,1.44,0.0051346394408658,0.0482458971787711,0.988722233717775,0.0720821,-0.03481932,-0.11789699
145,1.45,0.024161667,0.04515059,0.9974619,0.0396658679338782,-0.0947671469962338,-0.1287764076548347
146,1.46,0.024161667,0.04515059,0.9974619,-0.017104227,-0.19975294,-0.14782938
147,1.47,0.024161667,0.04515059,0.9974619,-0.017104227,-0.19975294,-0.14782938
148,1.48,0.024161667,0.04515059,0.9974619,-0.017104227,-0.19975294,-0.14782938
149,1.49,0.024161667,0.04515059,0.9974619,-0.017104227,-0.19975294,-0.14782938
150,1.5,0.024161667,0.04515059,0.9974619,-0.0147971282992945,-0.197702186345402,-0.0939970789418664
151,1.51,0.024161667,0.04515059,0.9974619,-0.01160644,-0.19486602,-0.019547688
152,1.52,0.0168911271777792,0.0452678573746495,1.000041788488645,-0.01160644,-0.19486602,-0.019547688
153,1.53,-0.0061014313,0.045638707,1.0082005,-0.01160644,-0.19486602,-0.019547688
154,1.54,-0.0061014313,0.045638707,1.0082005,-0.01160644,-0.19486602,-0.019547688
155,1.55,0.0305066757935316,0.0651989222027142,1.0074827153349668,-0.01160644,-0.19486602,-0.019547688
156,1.56,0.04368625,0.07224095,1.0072243,-0.0034259807205688,-0.1578903412886607,-0.0990617483650041
157,1.57,0.04368625,0.07224095,1.0072243,0.0036651916,-0.12583824,-0.16798794
158,1.58,0.0417103031313877,0.0678362351405251,0.9926516954282584,0.0036651916,-0.12583824,-0.16798794
159,1.59,0.0326291818746187,0.0475929025004748,0.9256784426323096,0.0036651916,-0.12583824,-0.16798794
160,1.6,0.0319715,0.04612682,0.92082804,0.0036651916,-0.12583824,-0.16798794
161,1.61,0.0319715,0.04612682,0.92082804,0.0036651916,-0.12583824,-0.16798794
162,1.62,0.0319715,0.04612682,0.92082804,0.0036651916,-0.12583824,-0.16798794
163,1.63,0.00885475341016,0.0417468054024086,0.9669398467760798,0.1093363045274014,-0.0454429256462884,-0.2760952743901828
164,1.64,-0.014399378,0.03734076,1.0133257,0.21563543,0.035430185,-0.3848451
165,1.65,-0.014399378,0.03734076,1.0133257,0.21563543,0.035430185,-0.3848451
166,1.66,-0.014399378,0.03734076,1.0133257,0.0422455543274573,-0.1397800620617203,-0.2082695788663662
167,1.67,-0.0153927693676986,0.029517794329932,0.9933336666712534,-0.017104227,-0.19975294,-0.14782938
168,1.68,-0.016351834,0.021965152,0.97403246,-0.017104227,-0.19975294,-0.14782938
169,1.69,-0.016351834,0.021965152,0.97403246,-0.017104227,-0.19975294,-0.14782938
170,1.7,-0.016351834,0.021965152,0.97403246,-0.017104227,-0.19975294,-0.14782938
171,1.71,-0.016351834,0.021965152,0.97403246,-0.017104227,-0.19975294,-0.14782938
172,1.72,-0.016351834,0.021965152,0.97403246,-0.017104227,-0.19975294,-0.14782938
173,1.73,-0.016351834,0.021965152,0.97403246,-0.017104227,-0.19975294,-0.14782938
174,1.74,-0.016351834,0.021965152,0.97403246,-0.017104227,-0.19975294,-0.14782938
175,1.75,-0.016351834,0.021965152,0.97403246,-0.017104227,-0.19975294,-0.14782938
176,1.76,-0.016351834,0.021965152,0.97403246,-0.017104227,-0.19975294,-0.14782938
177,1.77,-0.016351834,0.021965152,0.97403246,-0.017104227,-0.19975294,-0.14782938
178,1.78,-0.0109795896769807,0.0248303494288269,0.9808373267617287,-0.017104227,-0.19975294,-0.14782938
179,1.79,-0.0053692595,0.027822526,0.98794377,-0.017104227,-0.19975294,-0.14782938
180,1.8,-0.0053692595,0.027822526,0.98794377,-0.017104227,-0.19975294,-0.14782938
181,1.81,-0.0049911015950792,0.027361357820963,0.9870859954580165,-0.017104227,-0.19975294,-0.14782938
182,1.82,0.0036092389963856,0.0168731375350614,0.9675778664046392,-0.017104227,-0.19975294,-0.14782938
183,1.83,-0.012091683096071,0.0206771992906835,0.9722491410669948,-0.025868013908464,-0.1009168908728167,-0.0124775621832452
184,1.84,-0.0110028904115179,0.0208953632823035,0.9717146232863692,-0.028099801,-0.07574729,0.021991149
185,1.85,-0.009030119,0.020500809,0.97085977,-0.028099801,-0.07574729,0.021991149
186,1.86,-0.009030119,0.020500809,0.97085977,-0.028099801,-0.07574729,0.021991149
187,1.87,-0.009030119,0.020500809,0.97085977,-0.028099801,-0.07574729,0.021991149
188,1.88,-0.009030119,0.020500809,0.97085977,-0.028099801,-0.07574729,0.021991149
189,1.89,-0.009030119,0.020500809,0.97085977,-0.028099801,-0.07574729,0.021991149
190,1.9,-0.009030119,0.020500809,0.97085977,0.0215276197320824,-0.1180867688762084,-0.0272892269629627
191,1.91,-0.009030119,0.020500809,0.97085977,0.059253927,-0.15027285,-0.064751714
192,1.92,-0.009030119,0.020500809,0.97085977,0.059253927,-0.15027285,-0.064751714
193,1.93,-0.009030119,0.020500809,0.97085977,0.059253927,-0.15027285,-0.064751714
194,1.94,-0.009030119,0.020500809,0.97085977,0.059253927,-0.15027285,-0.064751714
195,1.95,-0.0422877285038862,0.0508951800198596,1.0210765354005642,0.059253927,-0.15027285,-0.064751714
196,1.96,-0.045882765,0.05418071,1.0265048,0.0207433281594164,-0.0723764117617262,-0.0524983411857451
197,1.97,-0.0887463903708815,0.1967898793293751,0.9681401938113092,0.005497787,-0.04153884,-0.047647487
198,1.98,-0.12349297,0.31239328,0.92082804,0.005497787,-0.04153884,-0.047647487
199,1.99,-0.12349297,0.31239328,0.92082804,0.0088160246856714,-0.0378887777671705,-0.047647487
200,2.0,-0.12349297,0.31239328,0.92082804,0.023423241338515,-0.0218208360216073,-0.047647487
201,2.01,-0.0411388041667449,0.0777540406815749,0.9913600813638916,0.023823744,-0.021380283,-0.047647487
202,2.02,-0.02318544,0.026602242,1.0067362,0.023823744,-0.021380283,-0.047647487
203,2.03,-0.02318544,0.026602242,1.0067362,0.023823744,-0.021380283,-0.047647487
204,2.04,-0.0244992979498083,0.0339598499643053,1.0384001975318229,0.023823744,-0.021380283,-0.047647487
205,2.05,-0.025626011,0.040269446,1.065554,0.0151412546193492,-0.0468850954631262,-0.0462004056833191
206,2.06,-0.025626011,0.040269446,1.065554,-0.005497787,-0.10751228,-0.042760566
207,2.07,-0.025626011,0.040269446,1.065554,-0.005497787,-0.10751228,-0.042760566
208,2.08,-0.025626011,0.040269446,1.065554,-0.005497787,-0.10751228,-0.042760566
209,2.09,-0.025626011,0.040269446,1.065554,-0.005497787,-0.10751228,-0.042760566
210,2.1,-0.0246834256727902,0.0351280681364934,1.0437031436412163,-0.027160027492498,-0.0854210865515244,-0.038256536087121
211,2.11,-0.0221395145054186,0.0266101216486328,1.0033194,-0.07230401682195,-0.0361088437516676,0.0037311917436576
212,2.12,-0.0177524975401822,0.0319941841730946,1.0033194,-0.1002544275962522,0.0103088079361566,0.1879044465106514
213,2.13,-0.017572122,0.032215554,1.0033194,-0.10140363,0.012217305,0.19547687
214,2.14,-0.017572122,0.032215554,1.0033194,-0.10140363,0.012217305,0.19547687
215,2.15,-0.017572122,0.032215554,1.0033194,-0.10140363,0.012217305,0.19547687
216,2.16,-0.017572122,0.032215554,1.0033194,-0.10140363,0.012217305,0.19547687
217,2.17,-0.017572122,0.032215554,1.0033194,-0.10140363,0.012217305,0.19547687
218,2.18,-0.017572122,0.032215554,1.0033194,-0.10140363,0.012217305,0.19547687
219,2.19,-0.017572122,0.032215554,1.0033194,-0.10140363,0.012217305,0.19547687
220,2.2,-0.017572122,0.032215554,1.0033194,-0.10140363,0.012217305,0.19547687
221,2.21,-0.017572122,0.032215554,1.0033194,-0.0812946088045252,0.0128513731316942,0.1811650453545113
222,2.22,-0.017572122,0.032215554,1.0033194,0.031521440467386,0.0142724620973348,0.0947377201502109
223,2.23,-0.017572122,0.032215554,1.0033194,-0.0160544249537956,-0.0250504464123439,0.019975645689862
224,2.24,-0.017572122,0.032215554,1.0033194,-0.02565634,-0.032986723,0.004886922
225,2.25,-0.0378096847073277,0.0382321278779028,1.0023622184797676,-0.02565634,-0.032986723,0.004886922
226,2.26,-0.053692598,0.042954076,1.001611,-0.02565634,-0.032986723,0.004886922
227,2.27,-0.053692598,0.042954076,1.001611,-0.0168002888071409,-0.0447150076316729,-0.0048068638234009
228,2.28,-0.053692598,0.042954076,1.001611,0.0194242880855812,-0.0926880984830835,-0.0444580901198922
229,2.29,-0.0384173362641361,0.0405100355242516,0.972282457543812,0.019547688,-0.09285152,-0.044593163
230,2.3,-0.0353883,0.04002539,0.9664667,0.019547688,-0.09285152,-0.044593163
231,2.31,-0.0353883,0.04002539,0.9664667,0.0469274357101208,-0.0363627761541059,-0.0425757082333487
232,2.32,-0.0353883,0.04002539,0.9664667,0.077579886,0.02687807,-0.040317107
233,2.33,-0.0353883,0.04002539,0.9664667,0.077579886,0.02687807,-0.040317107
234,2.34,-0.0353883,0.04002539,0.9664667,0.0679627248691759,0.0220307105099132,-0.0319020905661557
235,2.35,-0.0353883,0.04002539,0.9664667,-0.0581165453588328,-0.0415173094025482,0.0784172767090053
236,2.36,-0.0269937134728695,0.0307913434443173,0.9941688781905454,-0.07391469,-0.049480084,0.092240654
237,2.37,-0.02318544,0.026602242,1.0067362,-0.07391469,-0.049480084,0.092240654
238,2.38,-0.02318544,0.026602242,1.0067362,-0.0744731060554498,-0.059345412272079,0.0927990688366
239,2.39,-0.02318544,0.026602242,1.0067362,-0.0662802494543339,-0.0715411094539058,0.0956275396255245
240,2.4,-0.02318544,0.026602242,1.0067362,-0.0015207983051239,-0.0009823022493442,0.1062596841262636
241,2.41,-0.02318544,0.026602242,1.0067362,0.0061086523,0.007330383,0.10751228
242,2.42,-0.02318544,0.026602242,1.0067362,0.0061086523,0.007330383,0.10751228
243,2.43,-0.02318544,0.026602242,1.0067362,0.0061086523,0.007330383,0.10751228
244,2.44,-0.02318544,0.026602242,1.0067362,0.0061086523,0.007330383,0.10751228
245,2.45,-0.0235300196568953,0.0356597653222602,1.005398900400607,0.0061086523,0.007330383,0.10751228
246,2.46,-0.0322375255807059,0.2645428012340066,0.9716054249280812,0.0061086523,0.007330383,0.10751228
247,2.47,-0.033435844,0.29604146,0.9669548,0.0061086523,0.007330383,0.10751228
248,2.48,-0.0510626395607849,0.2909357590147877,0.94191258694021,0.0061086523,0.007330383,0.10751228
249,2.49,-0.06882414,0.28579104,0.916679,0.0061086523,0.007330383,0.10751228
250,2.5,-0.06882414,0.28579104,0.916679,0.0061086523,0.007330383,0.10751228
251,2.51,-0.06882414,0.28579104,0.916679,0.0061086523,0.007330383,0.10751228
252,2.52,-0.06882414,0.28579104,0.916679,0.0061086523,0.007330383,0.10751228
253,2.53,-0.06882414,0.28579104,0.916679,0.0061086523,0.007330383,0.10751228
254,2.54,-0.06882414,0.28579104,0.916679,0.0061086523,0.007330383,0.10751228
255,2.55,-0.06882414,0.28579104,0.916679,-0.0153131449785758,-0.0229630677148659,0.1090269537223863
256,2.56,-0.06882414,0.28579104,0.916679,-0.054367006,-0.07819075,0.11178834
257,2.57,-0.06882414,0.28579104,0.916679,-0.054367006,-0.07819075,0.11178834
258,2.58,-0.06882414,0.28579104,0.916679,-0.054367006,-0.07819075,0.11178834
259,2.59,-0.06882414,0.28579104,0.916679,-0.054367006,-0.07819075,0.11178834
260,2.6,-0.06882414,0.28579104,0.916679,-0.054367006,-0.07819075,0.11178834
261,2.61,-0.06882414,0.28579104,0.916679,-0.054367006,-0.07819075,0.11178834
262,2.62,-0.06882414,0.28579104,0.916679,-0.054367006,-0.07819075,0.11178834
263,2.63,-0.06882414,0.28579104,0.916679,-0.054367006,-0.07819075,0.11178834
264,2.64,-0.06882414,0.28579104,0.916679,-0.054367006,-0.07819075,0.11178834
265,2.65,-0.06882414,0.28579104,0.916679,-0.054367006,-0.07819075,0.11178834
266,2.66,-0.06882414,0.28579104,0.916679,-0.054367006,-0.07819075,0.11178834
267,2.67,-0.06882414,0.28579104,0.916679,-0.054367006,-0.07819075,0.11178834
268,2.68,-0.06882414,0.28579104,0.916679,-0.0442150094212706,-0.0253627670794725,0.1108483391484358
269,2.69,-0.06882414,0.28579104,0.916679,-0.021380283,0.093462385,0.10873401
270,2.7,-0.06882414,0.28579104,0.916679,-0.021380283,0.093462385,0.10873401
271,2.71,-0.06882414,0.28579104,0.916679,-0.021380283,0.093462385,0.10873401
272,2.72,-0.06882414,0.28579104,0.916679,-0.021380283,0.093462385,0.10873401
273,2.73,-0.06882414,0.28579104,0.916679,-0.021380283,0.093462385,0.10873401
274,2.74,-0.06882414,0.28579104,0.916679,-0.021380283,0.093462385,0.10873401
275,2.75,-0.06882414,0.28579104,0.916679,-0.021380283,0.093462385,0.10873401
276,2.76,-0.06882414,0.28579104,0.916679,-0.0295007082655594,0.0203785689092824,0.148118066589205
277,2.77,-0.06882414,0.28579104,0.916679,-0.03359759,-0.016493361,0.16798794
278,2.78,-0.06882414,0.28579104,0.916679,-0.03359759,-0.016493361,0.16798794
279,2.79,-0.06882414,0.28579104,0.916679,-0.03359759,-0.016493361,0.16798794
280,2.8,-0.06882414,0.28579104,0.916679,-0.03359759,-0.016493361,0.16798794
281,2.81,-0.06882414,0.28579104,0.916679,-0.03359759,-0.016493361,0.16798794
282,2.82,-0.0360156967788449,0.1905665294804907,0.9434414323584353,-0.0284791117840486,-0.0071465760706416,0.1557481014215199
283,2.83,0.021232981,0.024405725,0.9901402,-0.019547688,0.009162978,0.13439035
284,2.84,0.021232981,0.024405725,0.9901402,-0.019547688,0.009162978,0.13439035
285,2.85,0.021232981,0.024405725,0.9901402,-0.019547688,0.009162978,0.13439035
286,2.86,0.021232981,0.024405725,0.9901402,-0.019547688,0.009162978,0.13439035
287,2.87,0.021232981,0.024405725,0.9901402,-0.019547688,0.009162978,0.13439035
288,2.88,0.021232981,0.024405725,0.9901402,-0.019547688,0.009162978,0.13439035
289,2.89,0.021232981,0.024405725,0.9901402,-0.019547688,0.009162978,0.13439035
290,2.9,0.021232981,0.024405725,0.9901402,-0.0112984028991945,0.0153499418256041,0.1166028316389395
291,2.91,0.021232981,0.024405725,0.9901402,0.0,0.023823744,0.092240654
292,2.92,0.021232981,0.024405725,0.9901402,0.0,0.023823744,0.092240654
293,2.93,0.021232981,0.024405725,0.9901402,0.0,0.023823744,0.092240654
294,2.94,0.021232981,0.024405725,0.9901402,0.0,0.023823744,0.092240654
295,2.95,0.021232981,0.024405725,0.9901402,0.0,0.023823744,0.092240654
296,2.96,0.021232981,0.024405725,0.9901402,0.0,0.023823744,0.092240654
297,2.97,0.021232981,0.024405725,0.9901402,-0.0015760399386193,-0.0041947433517501,0.1276139951630888
298,2.98,0.021232981,0.024405725,0.9901402,-0.005497787,-0.07391469,0.21563543
299,2.99,0.021232981,0.024405725,0.9901402,-0.005497787,-0.07391469,0.21563543
300,3.0,0.021232981,0.024405725,0.9901402,-0.0216811632378573,-0.0199701067456414,0.1944429194303317
301,3.01,0.021232981,0.024405725,0.9901402,-0.031154128,0.01160644,0.18203785
302,3.02,0.021232981,0.024405725,0.9901402,-0.031154128,0.01160644,0.18203785
303,3.03,0.021232981,0.024405725,0.9901402,-0.031154128,0.01160644,0.18203785
304,3.04,0.021232981,0.024405725,0.9901402,-0.031154128,0.01160644,0.18203785
305,3.05,0.0083776923813283,0.0226788954084947,0.983808505910892,-0.031154128,0.01160644,0.18203785
306,3.06,-0.007133563983369,0.020595294076271,0.9761686517502984,-0.031154128,0.01160644,0.18203785
307,3.07,-0.011470691,0.020012695,0.97403246,-0.031154128,0.01160644,0.18203785
308,3.08,-0.011470691,0.020012695,0.97403246,-0.031154128,0.01160644,0.18203785
309,3.09,-0.011470691,0.020012695,0.97403246,-0.031154128,0.01160644,0.18203785
310,3.1,-0.011470691,0.0221744045085264,0.9758270818112448,-0.031154128,0.01160644,0.18203785
311,3.11,-0.0116850648975774,0.0337337675919181,0.983127426382306,-0.031154128,0.01160644,0.18203785
312,3.12,-0.013442437789871,0.0401774679303037,0.9696543128819242,-0.031154128,0.01160644,0.18203785
313,3.13,-0.013667206,0.041001618,0.9679311,-0.031154128,0.01160644,0.18203785
314,3.14,-0.013667206,0.041001618,0.9679311,-0.031154128,0.01160644,0.18203785
315,3.15,-0.0219010240275895,0.0365318297350177,0.9868688737038904,-0.031154128,0.01160644,0.18203785
316,3.16,-0.030751213,0.03172744,1.0072243,-0.031154128,0.01160644,0.18203785
317,3.17,-0.023600480373977,0.0326420686986616,0.995666719481176,-0.031154128,0.01160644,0.18203785
318,3.18,-0.00976229,0.03441207,0.97330034,-0.031154128,0.01160644,0.18203785
319,3.19,-0.00976229,0.03441207,0.97330034,-0.031154128,0.01160644,0.18203785
320,3.2,-0.00976229,0.03441207,0.97330034,-0.031154128,0.01160644,0.18203785
321,3.21,-0.0568035348108592,0.2373418314507408,0.9477195096594114,-0.031154128,0.01160644,0.18203785
322,3.22,-0.039993850765312,0.1654709119230694,0.9640765833411772,-0.031154128,0.01160644,0.18203785
323,3.23,-0.010738519,0.039781332,0.98574716,-0.031154128,0.01160644,0.18203785
324,3.24,-0.010738519,0.039781332,0.98574716,-0.031154128,0.01160644,0.18203785
325,3.25,-0.010738519,0.039781332,0.98574716,-0.031154128,0.01160644,0.18203785
326,3.26,-0.010738519,0.039781332,0.98574716,-0.031154128,0.01160644,0.18203785
327,3.27,-0.010738519,0.039781332,0.98574716,-0.031154128,0.01160644,0.18203785
328,3.28,-0.0157335137122129,0.036085036060321,0.9844484960204908,-0.031154128,0.01160644,0.18203785
329,3.29,-0.022941383,0.030751213,0.9825745,-0.031154128,0.01160644,0.18203785
330,3.3,-0.022941383,0.030751213,0.9825745,-0.0300891737466517,0.0109887665363704,0.1835287856809809
331,3.31,-0.022941383,0.030751213,0.9825745,-0.0048988856537268,-0.0036216004791756,0.2187951825368572
332,3.32,-0.0497976068158076,0.1934683550129743,0.9759394349729016,0.0389303299534292,0.0057537060830217,0.2283571193338143
333,3.33,-0.06443111,0.28213018,0.9723241,0.06047566,0.012217305,0.2302962
334,3.34,-0.047933114564518,0.207373632335971,0.9726187104024916,0.06047566,0.012217305,0.2302962
335,3.35,-0.00976229,0.03441207,0.97330034,0.06047566,0.012217305,0.2302962
336,3.36,-0.00976229,0.03441207,0.97330034,0.06047566,0.012217305,0.2302962
337,3.37,-0.00976229,0.03441207,0.97330034,0.06047566,0.012217305,0.2302962
338,3.38,-0.00976229,0.03441207,0.97330034,0.06047566,0.012217305,0.2302962
339,3.39,-0.00976229,0.03441207,0.97330034,0.06047566,0.012217305,0.2302962
340,3.4,-0.00976229,0.03441207,0.97330034,0.0345648139742555,0.0165785364219639,0.2295265691221495
341,3.41,-0.00976229,0.03441207,0.97330034,-0.0624119364488612,0.0329013554732997,0.2266460648929528
342,3.42,-0.00976229,0.03441207,0.97330034,-0.0585453606687059,0.0078375970001357,0.2228039650600828
343,3.43,-0.00976229,0.03441207,0.97330034,-0.0580322,0.004886922,0.22235495
344,3.44,-0.00976229,0.03441207,0.97330034,-0.0300766796577671,-0.0017136866607175,0.2083771895110793
345,3.45,-0.00976229,0.03441207,0.97330034,-0.014049901,-0.005497787,0.2003638
346,3.46,-0.00976229,0.03441207,0.97330034,-0.014049901,-0.005497787,0.2003638
347,3.47,-0.0086996278648216,0.0342602615900621,0.976298555552004,-0.014049901,-0.005497787,0.2003638
348,3.48,-0.0032353718696046,0.0334796559895924,0.9917155133626264,-0.014049901,-0.005497787,0.2003638
349,3.49,-0.002928687,0.033435844,0.9925808,-0.014049901,-0.005497787,0.2003638
350,3.5,-0.002928687,0.033435844,0.9925808,-0.014049901,-0.005497787,0.2003638
351,3.51,-0.002928687,0.033435844,0.9925808,-0.014049901,-0.005497787,0.2003638
352,3.52,-0.002928687,0.033435844,0.9925808,-0.014049901,-0.005497787,0.2003638
353,3.53,-0.002928687,0.033435844,0.9925808,-0.014049901,-0.005497787,0.2003638
354,3.54,-0.002928687,0.033435844,0.9925808,-0.014049901,-0.005497787,0.2003638
355,3.55,-0.002928687,0.033435844,0.9925808,-0.0780645550758556,0.0348077383516421,0.1932510593644923
356,3.56,-0.002928687,0.033435844,0.9925808,-0.096516706,0.04642576,0.19120082
357,3.57,-0.002928687,0.033435844,0.9925808,-0.0618212480070091,0.0248504318873394,0.1897430305752527
358,3.58,-0.002928687,0.033435844,0.9925808,-0.0398981862705077,-0.0993290270464295,-0.0167171250177386
359,3.59,-0.0059633020117645,0.0494677743825219,0.9776940122387174,-0.0830603608762139,-0.3282537402196809,-0.4857721572043899
360,3.6,-0.0376855250483475,0.2170568983174256,0.822075589529117,-0.1020363247484214,-0.017647193858604,0.1194611849864402
361,3.61,-0.0187766397556648,0.1007010431677467,0.9943134854719742,-0.10445796,0.021991149,0.1966986
362,3.62,-0.008542004,0.03929322,1.0799533,-0.10445796,0.021991149,0.1966986
363,3.63,-0.008542004,0.03929322,1.0799533,-0.10445796,0.021991149,0.1966986
364,3.64,-0.008542004,0.03929322,1.0799533,-0.10445796,0.021991149,0.1966986
365,3.65,-0.0088987298450605,0.0392779316185456,1.0795863803485053,-0.10445796,0.021991149,0.1966986
366,3.66,-0.0185480052148598,0.0388643877033676,1.0696613670507944,-0.10445796,0.021991149,0.1966986
367,3.67,-0.025626011,0.038561042,1.0623811,-0.10445796,0.021991149,0.1966986
368,3.68,-0.025626011,0.038561042,1.0623811,-0.10445796,0.021991149,0.1966986
369,3.69,-0.025626011,0.038561042,1.0623811,-0.10445796,0.021991149,0.1966986
370,3.7,-0.025626011,0.038561042,1.0623811,-0.10445796,0.021991149,0.1966986
371,3.71,-0.025626011,0.038561042,1.0623811,-0.0601684452921574,0.0057359552931645,0.100816518572845
372,3.72,-0.025626011,0.038561042,1.0623811,0.01038471,-0.020158553,-0.051923547
373,3.73,-0.025626011,0.038561042,1.0623811,0.01038471,-0.020158553,-0.051923547
374,3.74,-0.025626011,0.038561042,1.0623811,0.01038471,-0.020158553,-0.051923547
375,3.75,-0.0452985483008336,0.2508173774324665,0.970437974997414,0.01038471,-0.020158553,-0.051923547
376,3.76,-0.04881145,0.28871974,0.9540198,0.01038471,-0.020158553,-0.051923547
377,3.77,-0.04881145,0.28871974,0.9540198,0.01038471,-0.020158553,-0.051923547
378,3.78,-0.04881145,0.28871974,0.9540198,0.0214172426591431,-0.0252504906338505,-0.1926590650631222
379,3.79,-0.04881145,0.28871974,0.9540198,0.0505989577892413,-0.0387189731738146,-0.564913009256185
380,3.8,-0.04881145,0.28871974,0.9540198,0.0580322,-0.0421497,-0.6597345
381,3.81,-0.04881145,0.28871974,0.9540198,0.0580322,-0.0421497,-0.6597345
382,3.82,-0.04881145,0.28871974,0.9540198,0.0580322,-0.0421497,-0.6597345
383,3.83,-0.04881145,0.28871974,0.9540198,0.0580322,-0.0421497,-0.6597345
384,3.84,-0.04881145,0.28871974,0.9540198,0.0743980597441461,-0.043393184533404,-0.6101555698464179
385,3.85,-0.04881145,0.28871974,0.9540198,0.2674682157573894,-0.0580627317871159,-0.0252665429716999
386,3.86,-0.04881145,0.28871974,0.9540198,0.30726522,-0.061086524,0.095294975
387,3.87,-0.04881145,0.28871974,0.9540198,0.30726522,-0.061086524,0.095294975
388,3.88,-0.04881145,0.28871974,0.9540198,0.3078487946838767,0.0646748970356621,0.0489003907864954
389,3.89,-0.04881145,0.28871974,0.9540198,0.30848694,0.20219639,-0.0018325958
390,3.9,-0.04881145,0.28871974,0.9540198,0.30848694,0.20219639,-0.0018325958
391,3.91,-0.04881145,0.28871974,0.9540198,0.30848694,0.20219639,-0.0018325958
392,3.92,-0.04881145,0.28871974,0.9540198,0.30848694,0.20219639,-0.0018325958
393,3.93,-0.04881145,0.28871974,0.9540198,0.30848694,0.20219639,-0.0018325958
394,3.94,-0.04881145,0.28871974,0.9540198,0.30848694,0.20219639,-0.0018325958
395,3.95,-0.04881145,0.28871974,0.9540198,0.30848694,0.20219639,-0.0018325958
396,3.96,-0.04881145,0.28871974,0.9540198,0.3041354150830851,0.2106434699982978,-4.079153090213965e-05
397,3.97,-0.04881145,0.28871974,0.9540198,0.29810223,0.22235495,0.002443461
398,3.98,-0.04881145,0.28871974,0.9540198,0.29810223,0.22235495,0.002443461
399,3.99,-0.0422186924735315,0.1474699013849677,0.9581403198829114,0.29810223,0.22235495,0.002443461
400,4.0,-0.03904916,0.079562664,0.9601213,0.29810223,0.22235495,0.002443461
401,4.01,-0.03904916,0.079562664,0.9601213,0.29810223,0.22235495,0.002443461
402,4.02,-0.03904916,0.079562664,0.9601213,0.2033251571451455,0.1890435953653459,0.0591703239803029
403,4.03,-0.03904916,0.079562664,0.9601213,-0.11728613,0.076358154,0.2510656
404,4.04,-0.03904916,0.079562664,0.9601213,-0.11728613,0.076358154,0.2510656
405,4.05,-0.03904916,0.079562664,0.9601213,-0.11728613,0.076358154,0.2510656
406,4.06,-0.03904916,0.079562664,0.9601213,-0.11728613,0.076358154,0.2510656
407,4.07,-0.03904916,0.079562664,0.9601213,-0.11728613,0.076358154,0.2510656
408,4.08,-0.03904916,0.079562664,0.9601213,-0.11728613,0.076358154,0.2510656
409,4.09,-0.03904916,0.079562664,0.9601213,-0.11728613,0.076358154,0.2510656
410,4.1,-0.03904916,0.079562664,0.9601213,-0.11728613,0.076358154,0.2510656
411,4.11,-0.03904916,0.079562664,0.9601213,-0.11728613,0.076358154,0.2510656
412,4.12,-0.03904916,0.079562664,0.9601213,-0.0740307436346263,0.088485837813363,0.2587464828712922
413,4.13,-0.03904916,0.079562664,0.9601213,-0.0001802985613106,-0.0617018971181311,0.2606485847638577
414,4.14,-0.03904916,0.079562664,0.9601213,0.057421334,-0.23579398,0.258396
415,4.15,-0.0324457671756297,0.0781502715895303,0.9559574898917776,0.057421334,-0.23579398,0.258396
416,4.16,0.0449926853681695,0.0615870463566283,0.9071281956118764,0.057421334,-0.23579398,0.258396
417,4.17,0.04881145,0.060770255,0.90472025,0.057421334,-0.23579398,0.258396
418,4.18,0.04881145,0.060770255,0.90472025,0.057421334,-0.23579398,0.258396
419,4.19,0.04881145,0.060770255,0.90472025,-0.019849689042842,-0.0778383678158366,0.2574650217010344
420,4.2,0.04881145,0.060770255,0.90472025,-0.09468412,0.07513642,0.2565634
421,4.21,0.0452976830412301,0.0583258954445481,0.9105765265258112,-0.09468412,0.07513642,0.2565634
422,4.22,0.0152134042931262,0.0373977021153723,0.960716976218629,-0.09468412,0.07513642,0.2565634
423,4.23,0.01513155,0.03734076,0.9608534,-0.09468412,0.07513642,0.2565634
424,4.24,0.01513155,0.03734076,0.9608534,-0.09468412,0.07513642,0.2565634
425,4.25,0.01513155,0.03734076,0.9608534,-0.09468412,0.07513642,0.2565634
426,4.26,0.01513155,0.03734076,0.9608534,-0.09468412,0.07513642,0.2565634
427,4.27,0.01513155,0.03734076,0.9608534,-0.09468412,0.07513642,0.2565634
428,4.28,0.01513155,0.03734076,0.9608534,-0.09468412,0.07513642,0.2565634
429,4.29,0.028765711725652,0.0614109517312948,0.9537838024754004,-0.09468412,0.07513642,0.2565634
430,4.3,0.034900185,0.07224095,0.95060295,-0.09468412,0.07513642,0.2565634
431,4.31,0.034900185,0.07224095,0.95060295,-0.09468412,0.07513642,0.2565634
432,4.32,0.034900185,0.07224095,0.95060295,-0.09468412,0.07513642,0.2565634
433,4.33,0.034900185,0.07224095,0.95060295,-0.09468412,0.07513642,0.2565634
434,4.34,0.034900185,0.07224095,0.95060295,-0.09468412,0.07513642,0.2565634
435,4.35,0.034900185,0.07224095,0.95060295,-0.09468412,0.07513642,0.2565634
436,4.36,0.034900185,0.07224095,0.95060295,-0.09468412,0.07513642,0.2565634
437,4.37,0.034900185,0.07224095,0.95060295,-0.09468412,0.07513642,0.2565634
438,4.38,0.034900185,0.07224095,0.95060295,-0.09468412,0.07513642,0.2565634
439,4.39,0.034900185,0.07224095,0.95060295,-0.09468412,0.07513642,0.2565634
440,4.4,0.034900185,0.07224095,0.95060295,-0.09468412,0.07513642,0.2565634
441,4.41,0.034900185,0.07224095,0.95060295,-0.09468412,0.07513642,0.2565634
442,4.42,0.034900185,0.07224095,0.95060295,-0.09468412,0.07513642,0.2565634
443,4.43,0.034900185,0.07224095,0.95060295,-0.1617135568356048,0.0268128736859276,0.1988869074682252
444,4.44,0.034900185,0.07224095,0.95060295,-0.2791646686766201,-0.1015138048205538,0.0801766898642529
445,4.45,0.034900185,0.07224095,0.95060295,-0.1140511907042586,-0.2607324714245557,0.1034993844387001
446,4.46,0.034900185,0.07224095,0.95060295,0.3431024086168553,-0.3319383316501177,-0.5499191334709016
447,4.47,0.034900185,0.07224095,0.95060295,0.3494149,-0.33292156,-0.5589417
448,4.48,0.0208671779467639,0.0842450857174651,1.0238113327961242,0.0214494794266373,-0.0629319488396504,0.0170079206856189
449,4.49,0.014643434,0.08956901,1.0562798,-0.056582207628846,-0.0487647699912589,-0.0146792766916847
450,4.5,0.014643434,0.08956901,1.0562798,0.0012217305,-0.13927728,-0.26083946
451,4.51,0.014643434,0.08956901,1.0562798,0.0012217305,-0.13927728,-0.26083946
452,4.52,0.014643434,0.08956901,1.0562798,0.0012217305,-0.13927728,-0.26083946
453,4.53,0.014643434,0.08956901,1.0562798,-0.0129290490038378,-0.1292486838546184,-0.2430586976682185
454,4.54,0.014643434,0.08956901,1.0562798,-0.27977628,0.059864793,0.092240654
455,4.55,0.014643434,0.08956901,1.0562798,-0.27977628,0.059864793,0.092240654
456,4.56,0.014643434,0.08956901,1.0562798,-0.27977628,0.059864793,0.092240654
457,4.57,0.014643434,0.08956901,1.0562798,-0.27977628,0.059864793,0.092240654
458,4.58,0.014643434,0.08956901,1.0562798,-0.2612893815592323,0.0280472042896846,0.0326298363255418
459,4.59,0.014643434,0.08956901,1.0562798,-0.18997909,-0.09468412,-0.19730948
460,4.6,0.014643434,0.08956901,1.0562798,-0.18997909,-0.09468412,-0.19730948
461,4.61,0.014643434,0.08956901,1.0562798,-0.18997909,-0.09468412,-0.19730948
462,4.62,0.0209359888481284,0.0908674758620285,1.0542821413235417,-0.18997909,-0.09468412,-0.19730948
463,4.63,0.030019043,0.09274176,1.0513986,-0.162380222810492,-0.0844535037108832,-0.2036143940104747
464,4.64,0.030019043,0.09274176,1.0513986,-0.0634207518726999,-0.0477702453587638,-0.2262215159079287
465,4.65,0.030019043,0.09274176,1.0513986,-0.048258353,-0.0421497,-0.22968534
466,4.66,0.030019043,0.0985334554095029,1.0459846492022098,-0.014853623461524,-0.0071692757401096,-0.1222229477213675
467,4.67,0.030019043,0.10396838,1.0409042,0.0317077023216452,0.0341855909524495,-0.1331826330321254
468,4.68,0.030019043,0.10396838,1.0409042,0.05681047,0.048258353,-0.31764993
469,4.69,0.030019043,0.10396838,1.0409042,0.05681047,0.048258353,-0.31764993
470,4.7,0.030019043,0.10396838,1.0409042,0.05681047,0.048258353,-0.31764993
471,4.71,-0.0035284963122231,0.0677953861927719,0.9939376062356854,0.05681047,0.048258353,-0.31764993
472,4.72,-0.026114125,0.04344219,0.9623177,0.05681047,0.048258353,-0.31764993
473,4.73,-0.026114125,0.04344219,0.9623177,0.05681047,0.048258353,-0.31764993
474,4.74,-0.026114125,0.04344219,0.9623177,0.05681047,0.048258353,-0.31764993
475,4.75,-0.026114125,0.04344219,0.9623177,0.05681047,0.048258353,-0.31764993
476,4.76,-0.026114125,0.04344219,0.9623177,0.05681047,0.048258353,-0.31764993
477,4.77,-0.026114125,0.04344219,0.9623177,0.05681047,0.048258353,-0.31764993
478,4.78,-0.026114125,0.04344219,0.9623177,0.05681047,0.048258353,-0.31764993
479,4.79,-0.026114125,0.04344219,0.9623177,0.05681047,0.048258353,-0.31764993
480,4.8,-0.026114125,0.04344219,0.9623177,0.05681047,0.048258353,-0.31764993
481,4.81,-0.026114125,0.04344219,0.9623177,0.05681047,0.048258353,-0.31764993
482,4.82,-0.026114125,0.04344219,0.9623177,0.05681047,0.048258353,-0.31764993
483,4.83,-0.026114125,0.04344219,0.9623177,0.05681047,0.048258353,-0.31764993
484,4.84,-0.026114125,0.04344219,0.9623177,0.1038930603597873,0.04782037631565,-0.3463374623341804
485,4.85,-0.026114125,0.04344219,0.9623177,0.1881465,0.047036625,-0.39767328
486,4.86,-0.026114125,0.04344219,0.9623177,0.1881465,0.047036625,-0.39767328
487,4.87,-0.026114125,0.04344219,0.9623177,0.1881465,0.047036625,-0.39767328
488,4.88,-0.026114125,0.04344219,0.9623177,0.1881465,0.047036625,-0.39767328
489,4.89,-0.026114125,0.04344219,0.9623177,0.1881465,0.047036625,-0.39767328
490,4.9,-0.026114125,0.04344219,0.9623177,0.1881465,0.047036625,-0.39767328
491,4.91,-0.026114125,0.04344219,0.9623177,0.1881465,0.047036625,-0.39767328
492,4.92,-0.026114125,0.04344219,0.9623177,0.1881465,0.047036625,-0.39767328
493,4.93,-0.026114125,0.04344219,0.9623177,0.094133071093896,-0.0446146585199141,-0.3216121714964834
494,4.94,-0.026114125,0.04344219,0.9623177,0.06658431,-0.07147124,-0.29932398
495,4.95,-0.026114125,0.04344219,0.9623177,0.0838319489292931,-0.0416798601207374,-0.3552481346162924
496,4.96,-0.026114125,0.04344219,0.9623177,0.106901415,-0.0018325958,-0.43004912
497,4.97,-0.026114125,0.04344219,0.9623177,0.106901415,-0.0018325958,-0.43004912
498,4.98,-0.026114125,0.04344219,0.9623177,0.106901415,-0.0018325958,-0.43004912
499,4.99,-0.026114125,0.04344219,0.9623177,0.106901415,-0.0018325958,-0.43004912
500,5.0,-0.026114125,0.04344219,0.9623177,0.106901415,-0.0018325958,-0.43004912
501,5.01,-0.026114125,0.04344219,0.9623177,0.106901415,-0.0018325958,-0.43004912
502,5.02,-0.026114125,0.04344219,0.9623177,0.106901415,-0.0018325958,-0.43004912
503,5.03,-0.0285706531249362,0.0458987168261785,0.9743626062729998,0.106901415,-0.0018325958,-0.43004912
504,5.04,-0.033679903,0.051007964,0.9994144,0.106901415,-0.0018325958,-0.43004912
505,5.05,-0.033679903,0.051007964,0.9994144,0.106901415,-0.0018325958,-0.43004912
506,5.06,-0.033679903,0.051007964,0.9994144,0.106901415,-0.0018325958,-0.43004912
507,5.07,-0.033679903,0.051007964,0.9994144,0.106901415,-0.0018325958,-0.43004912
508,5.08,-0.033679903,0.051007964,0.9994144,0.2045110792544171,-0.034611962075598,-0.3641261923423095
509,5.09,-0.033679903,0.051007964,0.9994144,0.2706133,-0.05681047,-0.31948254
510,5.1,-0.0345385504371603,0.0512791155786168,1.0080912853276411,0.2706133,-0.05681047,-0.31948254
511,5.11,-0.0378995340497851,0.0523404778710175,1.0420550149478824,0.2706133,-0.05681047,-0.31948254
512,5.12,-0.038316987,0.052472305,1.0462735,0.2706133,-0.05681047,-0.31948254
513,5.13,-0.038316987,0.052472305,1.0462735,0.2706133,-0.05681047,-0.31948254
514,5.14,-0.038316987,0.052472305,1.0462735,0.2706133,-0.05681047,-0.31948254
515,5.15,-0.038316987,0.052472305,1.0462735,0.2706133,-0.05681047,-0.31948254
516,5.16,-0.038316987,0.052472305,1.0462735,0.2706133,-0.05681047,-0.31948254
517,5.17,-0.0390193756794843,0.0524533216987642,1.0430652905890931,0.2516073566340455,-0.0528667365030481,-0.2947748119130358
518,5.18,-0.0462088869344292,0.0522590123912871,1.0102266951765542,0.057066288801515,-0.0124994623840344,-0.0418714062150026
519,5.19,-0.047347106,0.05222825,1.0050278,0.026267206,-0.0061086523,-0.0018325958
520,5.2,-0.047347106,0.05222825,1.0050278,0.026267206,-0.0061086523,-0.0018325958
521,5.21,-0.047347106,0.05222825,1.0050278,0.026267206,-0.0061086523,-0.0018325958
522,5.22,-0.0475002544158902,0.0528408439773161,1.00137137645249,0.026267206,-0.0061086523,-0.0018325958
523,5.23,-0.0490556289385455,0.0590623452544326,0.9642367577443908,0.026267206,-0.0061086523,-0.0018325958
524,5.24,-0.049299564,0.060038086,0.9584128,0.026267206,-0.0061086523,-0.0018325958
525,5.25,-0.0813970131698579,0.0684059001785052,0.9597866566707844,0.026267206,-0.0061086523,-0.0018325958
526,5.26,-0.11202228,0.076389916,0.9610975,0.0509740536962325,-0.0360419519008783,-0.0849806422657801
527,5.27,-0.1014188096413819,0.0743039885101965,0.9565779678053478,0.08979719,-0.08307768,-0.21563543
528,5.28,-0.067359805,0.06760386,0.94206095,0.0755541313818927,-0.0862802599868651,-0.2224619869060647
529,5.29,-0.067359805,0.06760386,0.94206095,-0.0074047940826902,-0.1049337389585056,-0.2622233781026153
530,5.3,-0.067359805,0.06760386,0.94206095,0.0640874558412318,0.0835499531574242,-0.0345239096866253
531,5.31,-0.067359805,0.06760386,0.94206095,0.081855945,0.12705997,0.018325957
532,5.32,-0.067359805,0.06760386,0.94206095,0.081855945,0.12705997,0.018325957
533,5.33,-0.067359805,0.06760386,0.94206095,0.081855945,0.12705997,0.018325957
534,5.34,-0.067359805,0.06760386,0.94206095,0.081855945,0.12705997,0.018325957
535,5.35,-0.067359805,0.06760386,0.94206095,0.0761948653320175,-0.0261664809053668,-0.1330134644662105
536,5.36,0.0824491775683218,0.0454519137231863,0.9141391802442445,0.07269296,-0.12095132,-0.226631
537,5.37,0.28749946,0.01513155,0.8759214,0.07269296,-0.12095132,-0.226631
538,5.38,0.28749946,0.01513155,0.8759214,0.07269296,-0.12095132,-0.226631
539,5.39,0.28749946,0.01513155,0.8759214,0.07269296,-0.12095132,-0.226631
540,5.4,0.28749946,0.01513155,0.8759214,-0.0149008491978928,-0.0674783530711854,-0.2541313806100179
541,5.41,0.0255278319897975,0.0592823362055919,0.9447719356973352,-0.032375857,-0.05681047,-0.25961772
542,5.42,-0.12666571,0.084931925,0.98477095,-0.032375857,-0.05681047,-0.25961772
543,5.43,-0.12666571,0.084931925,0.98477095,-0.032375857,-0.05681047,-0.25961772
544,5.44,-0.12666571,0.084931925,0.98477095,-0.032375857,-0.05681047,-0.25961772
545,5.45,-0.12666571,0.084931925,0.98477095,-0.032375857,-0.05681047,-0.25961772
546,5.46,-0.12666571,0.084931925,0.98477095,-0.032375857,-0.05681047,-0.25961772
547,5.47,-0.12666571,0.084931925,0.98477095,-0.032375857,-0.05681047,-0.25961772
548,5.48,-0.1211730120331213,0.087044501474033,0.9785740736286472,-0.032375857,-0.05681047,-0.25961772
549,5.49,-0.107629254,0.09225364,0.96329397,-0.032375857,-0.05681047,-0.25961772
550,5.5,-0.107629254,0.09225364,0.96329397,-0.032375857,-0.05681047,-0.25961772
551,5.51,-0.107629254,0.09225364,0.96329397,-0.0724378969555066,0.0945350195391478,0.0809096155229032
552,5.52,-0.107629254,0.09225364,0.96329397,-0.076358154,0.10934488,0.1142318
553,5.53,-0.107629254,0.09225364,0.96329397,-0.0682912583740388,0.1100463490350852,0.11528400642343
554,5.54,-0.107629254,0.09225364,0.96329397,-0.062308256,0.11056661,0.1160644
555,5.55,-0.107629254,0.09225364,0.96329397,-0.062308256,0.11056661,0.1160644
556,5.56,-0.107629254,0.09225364,0.96329397,-0.062308256,0.11056661,0.1160644
557,5.57,-0.107629254,0.09225364,0.96329397,-0.062308256,0.11056661,0.1160644
558,5.58,-0.107629254,0.09225364,0.96329397,0.0498578828177752,0.0506259745643075,-0.0453598881269351
559,5.59,-0.107629254,0.09225364,0.96329397,0.053145275,0.04886922,-0.05009095
560,5.6,-0.107629254,0.09225364,0.96329397,0.0059415005940159,-0.0084117665162271,-0.0713061301911952
561,5.61,-0.107629254,0.09225364,0.96329397,-0.0012217305,-0.017104227,-0.07452556
562,5.62,-0.107629254,0.09225364,0.96329397,-0.0012217305,-0.017104227,-0.07452556
563,5.63,-0.107629254,0.09225364,0.96329397,-0.0461660979435458,0.0585338572098006,0.0383834626860965
564,5.64,-0.107629254,0.09225364,0.96329397,-0.076358154,0.10934488,0.1142318
565,5.65,-0.107629254,0.09225364,0.96329397,-0.0710058053986452,0.0977226372083312,0.1085736040372473
566,5.66,-0.107629254,0.09225364,0.96329397,-0.05497787,0.06291912,0.09162979
567,5.67,-0.107629254,0.09225364,0.96329397,-0.05497787,0.06291912,0.09162979
568,5.68,-0.107629254,0.09225364,0.96329397,-0.05497787,0.06291912,0.09162979
569,5.69,-0.107629254,0.09225364,0.96329397,-0.05497787,0.06291912,0.09162979
570,5.7,-0.095274465623807,0.0892374482199022,0.9669482081625989,-0.05497787,0.06291912,0.09162979
571,5.71,-0.0580578018499697,0.0801516919981593,0.9779559687899704,-0.05497787,0.06291912,0.09162979
572,5.72,-0.055645052,0.079562664,0.9786696,-0.05497787,0.06291912,0.09162979
573,5.73,-0.0533460330132243,0.079562664,0.980393848343834,-0.05497787,0.06291912,0.09162979
574,5.74,-0.051740136,0.079562664,0.98159826,-0.05497787,0.06291912,0.09162979
575,5.75,-0.051740136,0.079562664,0.98159826,-0.0506101451677175,0.063023113411097,0.092409740668348
576,5.76,-0.051740136,0.079562664,0.98159826,-0.0068357945465913,0.0640653594807224,0.1002265870436283
577,5.77,-0.051740136,0.079562664,0.98159826,-0.0036651916,0.06414085,0.100792766
578,5.78,-0.051740136,0.079562664,0.98159826,-0.0036651916,0.06414085,0.100792766
579,5.79,-0.051740136,0.079562664,0.98159826,-0.0036651916,0.06414085,0.100792766
580,5.8,-0.051740136,0.079562664,0.98159826,-0.0036651916,0.06414085,0.100792766
581,5.81,-0.051740136,0.079562664,0.98159826,-0.0036651916,0.06414085,0.100792766
582,5.82,-0.051740136,0.079562664,0.98159826,-0.0036651916,0.06414085,0.100792766
583,5.83,-0.051740136,0.079562664,0.98159826,-0.0036651916,0.06414085,0.100792766
584,5.84,-0.051740136,0.079562664,0.98159826,-0.0036651916,0.06414085,0.100792766
585,5.85,-0.051740136,0.079562664,0.98159826,-0.0036651916,0.06414085,0.100792766
586,5.86,-0.051740136,0.079562664,0.98159826,-0.0036651916,0.06414085,0.100792766
587,5.87,-0.051740136,0.079562664,0.98159826,-0.0036651916,0.06414085,0.100792766
588,5.88,-0.051740136,0.079562664,0.98159826,-0.0036651916,0.06414085,0.100792766
589,5.89,-0.051740136,0.079562664,0.98159826,-0.0036651916,0.06414085,0.100792766
590,5.9,-0.051740136,0.079562664,0.98159826,-0.0036651916,0.06414085,0.100792766
591,5.91,-0.029518662342204,0.080951503893408,1.04320332374351,-0.0036651916,0.06414085,0.100792766
592,5.92,0.002928687,0.08297946,1.1331578,-0.0036651916,0.06414085,0.100792766
593,5.93,0.002928687,0.08297946,1.1331578,-0.0036651916,0.06414085,0.100792766
594,5.94,0.002928687,0.08297946,1.1331578,-0.0036651916,0.06414085,0.100792766
595,5.95,0.002928687,0.08297946,1.1331578,-0.0036651916,0.06414085,0.100792766
596,5.96,0.002928687,0.08297946,1.1331578,-0.0036651916,0.06414085,0.100792766
597,5.97,0.002928687,0.08297946,1.1331578,0.015517830638055,0.0779952540515538,0.0997270424324842
598,5.98,0.002928687,0.08297946,1.1331578,0.029321533,0.087964594,0.09896017
599,5.99,0.002928687,0.08297946,1.1331578,0.029321533,0.087964594,0.09896017
600,6.0,0.002928687,0.08297946,1.1331578,0.0145247861566551,0.091608568631634,0.0701396416260617
601,6.01,0.002928687,0.08297946,1.1331578,-0.0473886760061812,0.1068559123799986,-0.0504529934905786
602,6.02,0.002928687,0.08297946,1.1331578,-0.052534413,0.108123146,-0.06047566
603,6.03,-0.0227750039722023,0.0784064175673503,1.1331578,-0.052534413,0.108123146,-0.06047566
604,6.04,-0.036852647,0.07590181,1.1331578,-0.052534413,0.108123146,-0.06047566
605,6.05,-0.036852647,0.07590181,1.1331578,-0.052534413,0.108123146,-0.06047566
606,6.06,-0.036852647,0.07590181,1.1331578,-0.052534413,0.108123146,-0.06047566
607,6.07,-0.0379779069643711,0.0763706679582817,1.1318684343711496,-0.052534413,0.108123146,-0.06047566
608,6.08,-0.048567392,0.08078295,1.1197346,-0.0433790350083626,0.0907157927220068,-0.0600172168954263
609,6.09,-0.048567392,0.08078295,1.1197346,0.3187799220218255,-0.5978662531063991,-0.0418825995413704
610,6.1,-0.048567392,0.08078295,1.1197346,0.3622431,-0.6805039,-0.03970624
611,6.11,-0.048567392,0.08078295,1.1197346,0.3622431,-0.6805039,-0.03970624
612,6.12,-0.048567392,0.08078295,1.1197346,0.3458294972405986,-0.7356875293054033,-0.0314994427896922
613,6.13,-0.0396819386497755,0.0808602156844139,1.0773162141339332,0.3268129,-0.7996226,-0.021991149
614,6.14,-0.020500809,0.08102701,0.98574716,0.3268129,-0.7996226,-0.021991149
615,6.15,-0.020500809,0.08102701,0.98574716,0.3268129,-0.7996226,-0.021991149
616,6.16,-0.0500721023557903,0.0653716174433408,0.9805287639204924,0.3268129,-0.7996226,-0.021991149
617,6.17,-0.057841565,0.061258372,0.9791577,0.3268129,-0.7996226,-0.021991149
618,6.18,-0.057841565,0.061258372,0.9791577,0.3870565953485715,-0.8087004106763664,-0.0564455937982928
619,6.19,-0.057841565,0.061258372,0.9791577,0.50518554,-0.82650065,-0.124005646
620,6.2,-0.057841565,0.061258372,0.9791577,0.50518554,-0.82650065,-0.124005646
621,6.21,-0.057841565,0.061258372,0.9791577,0.50518554,-0.82650065,-0.124005646
622,6.22,-0.057841565,0.061258372,0.9791577,0.50518554,-0.82650065,-0.124005646
623,6.23,-0.057841565,0.061258372,0.9791577,0.50518554,-0.82650065,-0.124005646
624,6.24,-0.057841565,0.061258372,0.9791577,0.50518554,-0.82650065,-0.124005646
625,6.25,-0.057841565,0.061258372,0.9791577,0.4296854196880969,-0.7125086559912784,-0.1094166482519637
626,6.26,-0.057841565,0.061258372,0.9791577,-0.012406520315658,-0.045027047114067,-0.0239905815053797
627,6.27,-0.057841565,0.061258372,0.9791577,-0.054367006,0.018325957,-0.015882496
628,6.28,-0.057841565,0.061258372,0.9791577,-0.054367006,0.018325957,-0.015882496
629,6.29,-0.057841565,0.061258372,0.9791577,-0.054367006,0.018325957,-0.015882496
630,6.3,-0.057841565,0.061258372,0.9791577,-0.054367006,0.018325957,-0.015882496
631,6.31,-0.057841565,0.061258372,0.9791577,-0.054367006,0.018325957,-0.015882496
632,6.32,-0.057841565,0.061258372,0.9791577,-0.054367006,0.018325957,-0.015882496
633,6.33,-0.057841565,0.061258372,0.9791577,-0.054367006,0.018325957,-0.015882496
634,6.34,-0.057841565,0.061258372,0.9791577,-0.054367006,0.018325957,-0.015882496
635,6.35,-0.057841565,0.061258372,0.9791577,-0.054367006,0.018325957,-0.015882496
636,6.36,-0.057841565,0.061258372,0.9791577,-0.054367006,0.018325957,-0.015882496
637,6.37,-0.057841565,0.061258372,0.9791577,-0.054367006,0.018325957,-0.015882496
638,6.38,-0.057841565,0.061258372,0.9791577,-0.054367006,0.018325957,-0.015882496
639,6.39,-0.057841565,0.061258372,0.9791577,-0.054367006,0.018325957,-0.015882496
640,6.4,-0.057841565,0.061258372,0.9791577,-0.0335440968298445,-0.4111038737767257,-0.2749741174037937
641,6.41,-0.057841565,0.061258372,0.9791577,-0.017104227,-0.7501425,-0.47952923
642,6.42,0.0465506815866743,0.0841469028420355,1.0366724776388945,-0.017104227,-0.7501425,-0.47952923
643,6.43,0.2894519,0.13740423,1.1704986,-0.017104227,-0.7501425,-0.47952923
644,6.44,0.2894519,0.13740423,1.1704986,-0.017104227,-0.7501425,-0.47952923
645,6.45,0.2894519,0.13740423,1.1704986,-0.017104227,-0.7501425,-0.47952923
646,6.46,0.2894519,0.13740423,1.1704986,-0.017104227,-0.7501425,-0.47952923
647,6.47,0.2894519,0.13740423,1.1704986,-0.017104227,-0.7501425,-0.47952923
648,6.48,0.2894519,0.13740423,1.1704986,-0.017104227,-0.7501425,-0.47952923
649,6.49,0.2894519,0.13740423,1.1704986,-0.017104227,-0.7501425,-0.47952923
650,6.5,0.2894519,0.13740423,1.1704986,-0.017104227,-0.7501425,-0.47952923
651,6.51,0.2894519,0.13740423,1.1704986,-0.017104227,-0.7501425,-0.47952923
652,6.52,0.2894519,0.13740423,1.1704986,-0.017104227,-0.7501425,-0.47952923
653,6.53,0.2894519,0.13740423,1.1704986,-0.017104227,-0.7501425,-0.47952923
654,6.54,0.2894519,0.13740423,1.1704986,-0.017104227,-0.7501425,-0.47952923
655,6.55,0.2894519,0.13740423,1.1704986,-0.017104227,-0.7501425,-0.47952923
656,6.56,0.2894519,0.13740423,1.1704986,-0.017104227,-0.7501425,-0.47952923
657,6.57,0.2894519,0.13740423,1.1704986,-0.017104227,-0.7501425,-0.47952923
658,6.58,0.2843291472431937,0.1352403093100173,1.1548212103316893,-0.017104227,-0.7501425,-0.47952923
659,6.59,0.2393062183975133,0.1162220096032155,1.0170355249724747,-0.017104227,-0.7501425,-0.47952923
660,6.6,0.2483705377296645,0.0573792949487947,1.0026159882182983,-0.017104227,-0.7501425,-0.47952923
661,6.61,0.25601605,0.029774986,1.0052718,-0.017104227,-0.7501425,-0.47952923
662,6.62,0.25601605,0.029774986,1.0052718,-0.017104227,-0.7501425,-0.47952923
663,6.63,0.25601605,0.029774986,1.0052718,-0.017104227,-0.7501425,-0.47952923
664,6.64,0.25601605,0.029774986,1.0052718,-0.017104227,-0.7501425,-0.47952923
665,6.65,0.25601605,0.029774986,1.0052718,-0.017104227,-0.7501425,-0.47952923
666,6.66,0.25601605,0.029774986,1.0052718,-0.017104227,-0.7501425,-0.47952923
667,6.67,0.25601605,0.029774986,1.0052718,-0.017104227,-0.7501425,-0.47952923
668,6.68,0.25601605,0.029774986,1.0052718,-0.017104227,-0.7501425,-0.47952923
669,6.69,0.25601605,0.029774986,1.0052718,-0.0127513157466964,-0.74802684026396,-0.4939254509010897
670,6.7,0.25601605,0.029774986,1.0052718,0.1938368199614361,-0.6476181309594576,-1.177166680535958
671,6.71,0.25601605,0.029774986,1.0052718,0.20158553,-0.643852,-1.2027937
672,6.72,0.25601605,0.029774986,1.0052718,0.20158553,-0.643852,-1.2027937
673,6.73,0.25601605,0.029774986,1.0052718,0.20158553,-0.643852,-1.2027937
674,6.74,0.25601605,0.029774986,1.0052718,0.20158553,-0.643852,-1.2027937
675,6.75,0.25601605,0.029774986,1.0052718,0.20158553,-0.643852,-1.2027937
676,6.76,0.25601605,0.029774986,1.0052718,0.20158553,-0.643852,-1.2027937
677,6.77,0.25601605,0.029774986,1.0052718,0.1931526405544167,-0.5786792862282087,-1.2643225558628193
678,6.78,0.25601605,0.029774986,1.0052718,0.15210545,-0.26145032,-1.563815
679,6.79,0.25601605,0.029774986,1.0052718,0.15210545,-0.26145032,-1.563815
680,6.8,0.25601605,0.029774986,1.0052718,0.15210545,-0.26145032,-1.563815
681,6.81,0.25601605,0.029774986,1.0052718,0.15210545,-0.26145032,-1.563815
682,6.82,0.25601605,0.029774986,1.0052718,0.15210545,-0.26145032,-1.563815
683,6.83,0.25601605,0.029774986,1.0052718,0.15210545,-0.26145032,-1.563815
684,6.84,0.25601605,0.029774986,1.0052718,0.15210545,-0.26145032,-1.563815
685,6.85,0.1441045438841137,0.1372010686256613,1.1113521883129,-0.0157359752879101,-0.0060394656994877,-0.1351982397612996
686,6.86,0.1342315,0.1466784,1.1207108,-0.030543262,0.016493361,-0.009162978
687,6.87,0.1342315,0.1466784,1.1207108,-0.030543262,0.016493361,-0.009162978
688,6.88,0.1342315,0.1466784,1.1207108,-0.030543262,0.016493361,-0.009162978
689,6.89,0.1342315,0.1466784,1.1207108,-0.030543262,0.016493361,-0.009162978
690,6.9,0.1342315,0.1466784,1.1207108,-0.030543262,0.016493361,-0.009162978
691,6.91,0.1342315,0.1466784,1.1207108,-0.030543262,0.016493361,-0.009162978
692,6.92,0.1342315,0.1466784,1.1207108,-0.030543262,0.016493361,-0.009162978
693,6.93,0.1342315,0.1466784,1.1207108,-0.030543262,0.016493361,-0.009162978
694,6.94,0.1342315,0.1466784,1.1207108,-0.030543262,0.016493361,-0.009162978
695,6.95,0.1342315,0.1466784,1.1207108,-0.030543262,0.016493361,-0.009162978
696,6.96,0.1342315,0.1466784,1.1207108,-0.0312831613804247,0.0118632826877188,-0.01263016555045
697,6.97,0.1342315,0.1466784,1.1207108,-0.3087655407542718,-1.7245419377646578,-1.3129197409815776
698,6.98,0.1342315,0.1466784,1.1207108,-0.2230173078281505,-1.256282406181478,-1.6459263052041564
699,6.99,0.188679426216809,0.1373174827497388,1.0933150995724312,-0.12156218,-0.66950834,-1.6878207
700,7.0,0.2889638,0.12007617,1.0428566,-0.12156218,-0.66950834,-1.6878207
701,7.01,0.2889638,0.12007617,1.0428566,-0.12156218,-0.66950834,-1.6878207
702,7.02,0.2889638,0.12007617,1.0428566,-0.12156218,-0.66950834,-1.6878207
703,7.03,0.1139877843475386,0.2120290674314616,0.9804686014510388,-0.3499042838952222,-1.1603230217826437,-1.7128899977583163
704,7.04,-0.064919226,0.30604777,0.916679,-0.5833763,-1.6621643,-1.7385225
705,7.05,-0.064919226,0.30604777,0.916679,-0.5303624953803059,-1.7669938625593016,-1.7012331407961645
706,7.06,-0.0527129018201152,0.2996331372793793,0.9210311858260584,-0.36713,-2.08977,-1.5864171
707,7.07,0.228707000628362,0.1517421516004356,1.0213719348146322,-0.36713,-2.08977,-1.5864171
708,7.08,0.2889638,0.12007617,1.0428566,-0.36713,-2.08977,-1.5864171
709,7.09,0.2889638,0.12007617,1.0428566,-0.36713,-2.08977,-1.5864171
710,7.1,0.2889638,0.12007617,1.0428566,-0.36713,-2.08977,-1.5864171
711,7.11,0.2889638,0.12007617,1.0428566,-0.36713,-2.08977,-1.5864171
712,7.12,0.2889638,0.12007617,1.0428566,-0.36713,-2.08977,-1.5864171
713,7.13,0.1808869496250018,-0.0091538600022096,1.0512113032798094,-0.36713,-2.08977,-1.5864171
714,7.14,0.14057697,-0.05735345,1.0543274,-0.1004524108195378,-0.9934669992569458,-0.6477119218686228
715,7.15,0.14057697,-0.05735345,1.0543274,0.0486217590554559,-0.063704234963618,0.0039098837102768
716,7.16,0.14057697,-0.05735345,1.0543274,-0.044593163,0.06536258,-0.11911872
717,7.17,0.14057697,-0.05735345,1.0543274,-0.044593163,0.06536258,-0.11911872
718,7.18,0.14057697,-0.05735345,1.0543274,-0.044593163,0.06536258,-0.11911872
719,7.19,0.14057697,-0.05735345,1.0543274,-0.044593163,0.06536258,-0.11911872
720,7.2,0.14057697,-0.05735345,1.0543274,-0.044593163,0.06536258,-0.11911872
721,7.21,0.0172065351634285,0.1756092095347258,0.975458923048031,-0.044593163,0.06536258,-0.11911872
722,7.22,-0.049543623,0.30165476,0.93278676,0.2478101132045551,0.3035278170777873,-0.4250212257434562
723,7.23,-0.049543623,0.30165476,0.93278676,0.6963864,0.66889745,-0.8943067
724,7.24,-0.049543623,0.30165476,0.93278676,0.6963864,0.66889745,-0.8943067
725,7.25,-0.049543623,0.30165476,0.93278676,0.6963864,0.66889745,-0.8943067
726,7.26,-0.049543623,0.30165476,0.93278676,0.6963864,0.66889745,-0.8943067
727,7.27,-0.0169869743862579,0.2439076305348001,0.91714502853717,0.6963864,0.66889745,-0.8943067
728,7.28,0.037828874,0.1466784,0.89080894,0.6963864,0.66889745,-0.8943067
729,7.29,0.037828874,0.1466784,0.89080894,0.6963864,0.66889745,-0.8943067
730,7.3,0.037828874,0.1466784,0.89080894,0.6963864,0.66889745,-0.8943067
731,7.31,0.037828874,0.1466784,0.89080894,0.6963864,0.66889745,-0.8943067
732,7.32,0.037828874,0.1466784,0.89080894,0.6963864,0.66889745,-0.8943067
733,7.33,0.037828874,0.1466784,0.89080894,0.6963864,0.66889745,-0.8943067
734,7.34,0.037828874,0.1466784,0.89080894,0.6963864,0.66889745,-0.8943067
735,7.35,0.037828874,0.1466784,0.89080894,0.6963864,0.66889745,-0.8943067
736,7.36,0.037828874,0.1466784,0.89080894,0.6963864,0.66889745,-0.8943067
737,7.37,0.037828874,0.1466784,0.89080894,0.3507113252476785,0.6743889483994112,-0.8182928638564507
738,7.38,0.037828874,0.1466784,0.89080894,0.0249758913047714,0.517584355726126,-0.7245438526178999
739,7.39,0.037828874,0.1466784,0.89080894,0.1881465,0.06841691,-0.6994407
740,7.4,0.037828874,0.1466784,0.89080894,0.1881465,0.06841691,-0.6994407
741,7.41,0.037828874,0.1466784,0.89080894,0.1881465,0.06841691,-0.6994407
742,7.42,0.037828874,0.1466784,0.89080894,0.1881465,0.06841691,-0.6994407
743,7.43,0.037828874,0.1466784,0.89080894,0.1881465,0.06841691,-0.6994407
744,7.44,0.037828874,0.1466784,0.89080894,0.2387767901298842,0.0663231754128046,-0.806792161792504
745,7.45,0.037828874,0.1466784,0.89080894,0.4976638335309917,0.055617316221496,-1.3557106545949842
746,7.46,0.037828874,0.1466784,0.89080894,0.1481382284039546,-0.0229190178929675,-0.8040251079385062
747,7.47,-0.0285888308596638,0.195111273435676,0.885287280378934,0.5093699942044813,0.3294241204579198,-0.9199545713208008
748,7.48,-0.064919226,0.22160399,0.88226694,0.75625116,0.5326745,-1.0622946
749,7.49,-0.064919226,0.22160399,0.88226694,0.75625116,0.5326745,-1.0622946
750,7.5,-0.064919226,0.22160399,0.88226694,0.75625116,0.5326745,-1.0622946
751,7.51,-0.064919226,0.22160399,0.88226694,0.75625116,0.5326745,-1.0622946
752,7.52,-0.064919226,0.22160399,0.88226694,0.75625116,0.5326745,-1.0622946
753,7.53,-0.064919226,0.22160399,0.88226694,0.75625116,0.5326745,-1.0622946
754,7.54,-0.064919226,0.22160399,0.88226694,0.75625116,0.5326745,-1.0622946
755,7.55,-0.064919226,0.22160399,0.88226694,0.75625116,0.5326745,-1.0622946
756,7.56,-0.064919226,0.22160399,0.88226694,0.75625116,0.5326745,-1.0622946
757,7.57,-0.064919226,0.22160399,0.88226694,0.75625116,0.5326745,-1.0622946
758,7.58,-0.1259567291808598,0.273201017560339,0.8378316330639121,0.75625116,0.5326745,-1.0622946
759,7.59,-0.1564407,0.29897013,0.8156393,0.75625116,0.5326745,-1.0622946
760,7.6,-0.1564407,0.29897013,0.8156393,0.75625116,0.5326745,-1.0622946
761,7.61,-0.1564407,0.29897013,0.8156393,0.75625116,0.5326745,-1.0622946
762,7.62,-0.0230470539143353,0.2760676969152012,1.068090725288469,0.75625116,0.5326745,-1.0622946
763,7.63,0.029774986,0.26699865,1.168058,0.75625116,0.5326745,-1.0622946
764,7.64,0.029774986,0.26699865,1.168058,0.75625116,0.5326745,-1.0622946
765,7.65,0.029774986,0.26699865,1.168058,0.75625116,0.5326745,-1.0622946
766,7.66,0.0250128503109712,0.2685144836430208,1.1551532802906712,0.75625116,0.5326745,-1.0622946
767,7.67,-0.0519386713523982,0.2930088939320259,0.9466254509472232,0.75625116,0.5326745,-1.0622946
768,7.68,-0.05686534,0.2945771,0.93327487,0.75625116,0.5326745,-1.0622946
769,7.69,-0.05686534,0.2945771,0.93327487,0.75625116,0.5326745,-1.0622946
770,7.7,-0.05686534,0.2945771,0.93327487,0.75625116,0.5326745,-1.0622946
771,7.71,-0.05686534,0.2945771,0.93327487,0.75625116,0.5326745,-1.0622946
772,7.72,-0.05686534,0.2945771,0.93327487,0.75625116,0.5326745,-1.0622946
773,7.73,-0.05686534,0.2945771,0.93327487,0.75625116,0.5326745,-1.0622946
774,7.74,-0.05686534,0.2945771,0.93327487,0.75625116,0.5326745,-1.0622946
775,7.75,-0.05686534,0.2945771,0.93327487,0.75625116,0.5326745,-1.0622946
776,7.76,-0.05686534,0.2945771,0.93327487,0.75625116,0.5326745,-1.0622946
777,7.77,-0.05686534,0.2945771,0.93327487,1.112784369835469,-0.3413530502900741,-0.3225404350442613
778,7.78,-0.05686534,0.2945771,0.93327487,1.278541,-0.7476991,0.021380283
779,7.79,-0.05686534,0.2945771,0.93327487,1.0422510792384918,-0.4529691819250863,-0.4205880760014145
780,7.8,-0.05686534,0.2945771,0.93327487,0.7079928,-0.03604105,-1.0458013
781,7.81,-0.05686534,0.2945771,0.93327487,0.7079928,-0.03604105,-1.0458013
782,7.82,-0.05686534,0.2945771,0.93327487,0.7079928,-0.03604105,-1.0458013
783,7.83,-0.05686534,0.2945771,0.93327487,0.5967027277840998,-0.2042382168155666,-0.9787977938122724
784,7.84,-0.05686534,0.2945771,0.93327487,0.41172317,-0.48380527,-0.86742866
785,7.85,-0.05686534,0.2945771,0.93327487,0.41172317,-0.48380527,-0.86742866
786,7.86,-0.05686534,0.2945771,0.93327487,0.41172317,-0.48380527,-0.86742866
787,7.87,-0.05686534,0.2945771,0.93327487,0.41172317,-0.48380527,-0.86742866
788,7.88,-0.0296438743838816,0.3887179937894875,0.8664972497752231,0.41172317,-0.48380527,-0.86742866
789,7.89,-0.0340062844408445,0.3847543817775765,0.8812160757513915,0.2013211535544184,-0.1717448880916376,-0.7700830484144643
790,7.9,-0.05759751,0.3141017,0.94303715,-0.0066123893218992,-0.0249442170344207,-0.8156710526255992
791,7.91,-0.05759751,0.3141017,0.94303715,-0.007941248,-0.21563543,-0.9841039
792,7.92,-0.05759751,0.3141017,0.94303715,-0.007941248,-0.21563543,-0.9841039
793,7.93,-0.05759751,0.3141017,0.94303715,0.035964202797636,-0.1380306201785391,-0.9595515090254456
794,7.94,-0.05759751,0.3141017,0.94303715,0.2706133,0.27672195,-0.82833326
795,7.95,-0.05759751,0.3141017,0.94303715,0.2706133,0.27672195,-0.82833326
796,7.96,-0.05759751,0.3141017,0.94303715,0.2706133,0.27672195,-0.82833326
797,7.97,-0.05759751,0.3141017,0.94303715,0.2706133,0.27672195,-0.82833326
798,7.98,-0.05759751,0.3141017,0.94303715,0.2706133,0.27672195,-0.82833326
799,7.99,-0.05759751,0.3141017,0.94303715,0.2706133,0.27672195,-0.82833326
800,8.0,-0.05759751,0.3141017,0.94303715,0.2706133,0.27672195,-0.82833326
801,8.01,-0.1382128697250778,0.331297532591813,0.8356026512879051,0.2706133,0.27672195,-0.82833326
802,8.02,-0.18231077,0.34070393,0.77683425,0.1287949814316906,0.1832341427482601,-0.995537323996347
803,8.03,-0.18231077,0.34070393,0.77683425,-0.0558231094915444,-0.0010756662527507,-1.2267562958481657
804,8.04,-0.18231077,0.34070393,0.77683425,0.1033828472044528,-0.2461563691510026,-1.1148296335142072
805,8.05,-0.18231077,0.34070393,0.77683425,0.11728613,-0.267559,-1.1050552
806,8.06,-0.18231077,0.34070393,0.77683425,0.1370138288928971,0.0368112609210546,-1.275558914182762
807,8.07,-0.18231077,0.34070393,0.77683425,0.15149458,0.2602286,-1.400714
808,8.08,-0.18231077,0.34070393,0.77683425,0.15149458,0.2602286,-1.400714
809,8.09,-0.1719542014404201,0.3328511486296154,0.8024790743681776,0.15149458,0.2602286,-1.400714
810,8.1,-0.121428694848022,0.2945406064248793,0.9275897937363904,0.15149458,0.2602286,-1.400714
811,8.11,-0.11568313,0.29018408,0.9418169,0.15149458,0.2602286,-1.400714
812,8.12,-0.11568313,0.29018408,0.9418169,0.15149458,0.2602286,-1.400714
813,8.13,-0.11568313,0.29018408,0.9418169,0.15149458,0.2602286,-1.400714
814,8.14,-0.11568313,0.29018408,0.9418169,0.15149458,0.2602286,-1.400714
815,8.15,-0.11568313,0.29018408,0.9418169,0.15149458,0.2602286,-1.400714
816,8.16,-0.11568313,0.29018408,0.9418169,0.15149458,0.2602286,-1.400714
817,8.17,-0.11568313,0.29018408,0.9418169,0.15149458,0.2602286,-1.400714
818,8.18,-0.11568313,0.29018408,0.9418169,0.15149458,0.2602286,-1.400714
819,8.19,-0.11568313,0.29018408,0.9418169,0.15149458,0.2602286,-1.400714
820,8.2,-0.11568313,0.29018408,0.9418169,0.15149458,0.2602286,-1.400714
821,8.21,-0.11568313,0.29018408,0.9418169,0.15149458,0.2602286,-1.400714
822,8.22,-0.11568313,0.29018408,0.9418169,0.15149458,0.2602286,-1.400714
823,8.23,-0.11568313,0.29018408,0.9418169,0.15149458,0.2602286,-1.400714
824,8.24,-0.11568313,0.29018408,0.9418169,0.15149458,0.2602286,-1.400714
825,8.25,-0.11568313,0.29018408,0.9418169,0.15149458,0.2602286,-1.400714
826,8.26,-0.1332955023355694,0.3613451737190213,0.9402157865076348,0.15149458,0.2602286,-1.400714
827,8.27,-0.1398448,0.38780698,0.9396204,0.15149458,0.2602286,-1.400714
828,8.28,-0.1682414367773262,0.3523421876078609,0.9466885759383654,0.15149458,0.2602286,-1.400714
829,8.29,-0.19573392,0.3180066,0.9535317,0.15149458,0.2602286,-1.400714
830,8.3,-0.19573392,0.3180066,0.9535317,0.15149458,0.2602286,-1.400714
831,8.31,-0.19573392,0.3180066,0.9535317,0.15149458,0.2602286,-1.400714
832,8.32,-0.19573392,0.3180066,0.9535317,0.15149458,0.2602286,-1.400714
833,8.33,-0.19573392,0.3180066,0.9535317,0.15149458,0.2602286,-1.400714
834,8.34,-0.1874570786184899,0.3114685929010699,1.0294143022413018,0.15149458,0.2602286,-1.400714
835,8.35,-0.1666911,0.29506522,1.2197981,0.1342908028245475,0.1768163451660949,-1.2302402099438132
836,8.36,-0.1666911,0.29506522,1.2197981,0.0540029871914173,-0.212457921138863,-0.4346609550670663
837,8.37,-0.1666911,0.29506522,1.2197981,0.050701816,-0.2284636,-0.40194935
838,8.38,-0.1666911,0.29506522,1.2197981,0.0049635318659222,-0.128795102530245,-0.1742819136349328
839,8.39,-0.1666911,0.29506522,1.2197981,-0.0315851293288318,-0.1196977480387641,-0.1722904779263195
840,8.4,-0.1754805014086548,0.2971353092297129,1.1802966897670937,-0.032375857,-0.24740042,-0.49846604
841,8.41,-0.222415318567923,0.3081894476155504,0.9693617943612348,-0.032375857,-0.24740042,-0.49846604
842,8.42,-0.22990192,0.3099527,0.93571544,-0.032375857,-0.24740042,-0.49846604
843,8.43,-0.22990192,0.3099527,0.93571544,0.1836810750911836,-0.2676557483455718,-0.5952415529151264
844,8.44,-0.22990192,0.3099527,0.93571544,0.31948254,-0.28038713,-0.6560693
845,8.45,-0.22990192,0.3099527,0.93571544,0.31948254,-0.28038713,-0.6560693
846,8.46,-0.22990192,0.3099527,0.93571544,0.31948254,-0.28038713,-0.6560693
847,8.47,-0.22990192,0.3099527,0.93571544,0.31948254,-0.28038713,-0.6560693
848,8.48,-0.22990192,0.3099527,0.93571544,0.31948254,-0.28038713,-0.6560693
849,8.49,-0.22990192,0.3099527,0.93571544,0.31948254,-0.28038713,-0.6560693
850,8.5,-0.22990192,0.3099527,0.93571544,0.31948254,-0.28038713,-0.6560693
851,8.51,-0.22990192,0.3099527,0.93571544,0.31948254,-0.28038713,-0.6560693
852,8.52,-0.22990192,0.3099527,0.93571544,0.31948254,-0.28038713,-0.6560693
853,8.53,-0.1409900476028649,0.1841779125838959,0.9666998693488028,0.31948254,-0.28038713,-0.6560693
854,8.54,-0.052716363,0.059305906,0.9974619,0.31948254,-0.28038713,-0.6560693
855,8.55,-0.052716363,0.059305906,0.9974619,0.31948254,-0.28038713,-0.6560693
856,8.56,-0.052716363,0.059305906,0.9974619,0.31948254,-0.28038713,-0.6560693
857,8.57,-0.052716363,0.059305906,0.9974619,0.31948254,-0.28038713,-0.6560693
858,8.58,-0.047803188716331,0.1978863249941145,0.9840229664361992,0.31948254,-0.28038713,-0.6560693
859,8.59,-0.044418417,0.2933568,0.97476465,0.31948254,-0.28038713,-0.6560693
860,8.6,-0.044418417,0.2933568,0.97476465,0.2344229239329442,-0.2698741476918403,-0.5804800593405733
861,8.61,-0.044418417,0.2933568,0.97476465,-0.1978424308403283,-0.2164481126674256,-0.1963423046517829
862,8.62,-0.044418417,0.2933568,0.97476465,-0.27855456,-0.20647246,-0.12461651
863,8.63,-0.044418417,0.2933568,0.97476465,0.0018214741064126,-0.524187487564735,-0.3733210426234168
864,8.64,-0.1028548930506323,0.2986439045129993,0.9218008133116024,0.23518312,-0.788627,-0.58032197
865,8.65,-0.19817449,0.30726805,0.835408,0.23518312,-0.788627,-0.58032197
866,8.66,-0.19817449,0.30726805,0.835408,0.23518312,-0.788627,-0.58032197
867,8.67,-0.19817449,0.30726805,0.835408,0.23518312,-0.788627,-0.58032197
868,8.68,-0.19817449,0.30726805,0.835408,0.23518312,-0.788627,-0.58032197
869,8.69,-0.1856645199925083,0.3523039693647619,0.9073403083211924,0.23518312,-0.788627,-0.58032197
870,8.7,-0.18353106,0.35998443,0.9196077,0.23518312,-0.788627,-0.58032197
871,8.71,-0.18353106,0.35998443,0.9196077,0.23518312,-0.788627,-0.58032197
872,8.72,-0.18353106,0.35998443,0.9196077,0.23518312,-0.788627,-0.58032197
873,8.73,-0.18353106,0.35998443,0.9196077,0.1709446952698402,-0.7458895046736821,-0.5622576677625345
874,8.74,-0.18353106,0.35998443,0.9196077,-0.1891707320527426,-0.5063065532426193,-0.4609906465543542
875,8.75,-0.18353106,0.35998443,0.9196077,-0.21013765,-0.49235737,-0.4550946
876,8.76,-0.18353106,0.35998443,0.9196077,-0.21013765,-0.49235737,-0.4550946
877,8.77,-0.18353106,0.35998443,0.9196077,-0.21013765,-0.49235737,-0.4550946
878,8.78,-0.18353106,0.35998443,0.9196077,-0.0816110121146473,-0.7080664086949453,-0.4032645057730676
879,8.79,-0.18353106,0.35998443,0.9196077,0.051923547,-0.93218035,-0.3494149
880,8.8,-0.1738905370865046,0.342427714091208,0.9246238930758433,0.051923547,-0.93218035,-0.3494149
881,8.81,-0.153512,0.3053156,0.93522733,-0.0001615732599521,-0.9686289327358012,-0.3551409611182972
882,8.82,-0.153512,0.3053156,0.93522733,-0.2306482756928357,-1.129920940917768,-0.3804798859109935
883,8.83,-0.153512,0.3053156,0.93522733,-0.23701571,-1.1343768,-0.3811799
884,8.84,-0.153512,0.3053156,0.93522733,-0.23701571,-1.1343768,-0.3811799
885,8.85,-0.1692184911892741,0.3060022195485853,0.9001237917251693,-0.23701571,-1.1343768,-0.3811799
886,8.86,-0.1776712869089095,0.3017366161870984,0.8551367964645101,-0.23701571,-1.1343768,-0.3811799
887,8.87,-0.0670709006442122,0.2718984141468348,0.9615598026561908,-0.23701571,-1.1343768,-0.3811799
888,8.88,-0.062478654,0.2706595,0.9659786,-0.23701571,-1.1343768,-0.3811799
889,8.89,-0.062478654,0.2706595,0.9659786,-0.23701571,-1.1343768,-0.3811799
890,8.9,-0.062478654,0.2706595,0.9659786,-0.23701571,-1.1343768,-0.3811799
891,8.91,-0.062478654,0.2706595,0.9659786,-0.23701571,-1.1343768,-0.3811799
892,8.92,-0.062478654,0.2706595,0.9659786,-0.23701571,-1.1343768,-0.3811799
893,8.93,-0.062478654,0.2706595,0.9659786,-0.23701571,-1.1343768,-0.3811799
894,8.94,-0.062478654,0.2706595,0.9659786,0.0211556652214982,-0.687127953974083,-0.3418749616019374
895,8.95,-0.062478654,0.2706595,0.9659786,0.1441642,-0.47403142,-0.3231477
896,8.96,-0.062478654,0.2706595,0.9659786,0.13036346874187,-0.3561501819427699,-0.3425070613050101
897,8.97,-0.062478654,0.2706595,0.9659786,0.1226873980691974,-0.1222580206994957,-0.3676826331791182
898,8.98,-0.062478654,0.2706595,0.9659786,0.3366920877763937,-0.3496059486973437,-0.2044848059050907
899,8.99,-0.062478654,0.2706595,0.9659786,0.3549127,-0.36896262,-0.19058995
900,9.0,-0.062478654,0.2706595,0.9659786,0.2223430461598041,-0.5421214856028247,-0.2609664460675437
901,9.01,-0.062478654,0.2706595,0.9659786,0.10751228,-0.6921103,-0.321926
902,9.02,-0.062478654,0.2706595,0.9659786,0.10751228,-0.6921103,-0.321926
903,9.03,-0.0576541481114351,0.2737471830728504,0.9609008060248424,0.10751228,-0.6921103,-0.321926
904,9.04,0.0310542247337226,0.3305205288994796,0.8675352155201604,0.10751228,-0.6921103,-0.321926
905,9.05,-0.023715302918644,0.1453146968304313,0.9609197475823016,0.10751228,-0.6921103,-0.321926
906,9.06,0.0037199744498912,0.2016193637810404,0.95807660808573,0.10751228,-0.6921103,-0.321926
907,9.07,0.05051985,0.3219115,0.9200958,0.1810041357366399,-0.5557162190578859,-0.2861331317372932
908,9.08,0.05051985,0.3219115,0.9200958,0.31948254,-0.29871312,-0.21868975
909,9.09,0.05051985,0.3219115,0.9200958,0.31948254,-0.29871312,-0.21868975
910,9.1,0.05051985,0.3219115,0.9200958,0.31948254,-0.29871312,-0.21868975
911,9.11,0.0239212792310723,0.2951018296758725,0.8888530969690016,0.31948254,-0.29871312,-0.21868975
912,9.12,0.019768637,0.29091623,0.8839754,0.31948254,-0.29871312,-0.21868975
913,9.13,0.019768637,0.29091623,0.8839754,0.2439595184128542,-0.3732841530038532,-0.2136125797173778
914,9.14,0.019768637,0.29091623,0.8839754,0.0874638495302266,-0.2197490846560073,-0.1624423721934002
915,9.15,0.019768637,0.29091623,0.8839754,-0.035430185,0.09590584,-0.096516706
916,9.16,0.019768637,0.29091623,0.8839754,-0.035430185,0.09590584,-0.096516706
917,9.17,0.019768637,0.29091623,0.8839754,-0.035430185,0.09590584,-0.096516706
918,9.18,0.019768637,0.29091623,0.8839754,-0.035430185,0.09590584,-0.096516706
919,9.19,0.019768637,0.29091623,0.8839754,-0.035430185,0.09590584,-0.096516706
920,9.2,-0.0168524451729191,0.2940242995553569,0.916272174630415,-0.035430185,0.09590584,-0.096516706
921,9.21,-0.04637088,0.29652956,0.942305,-0.009523065963546,-0.0085076979250122,-0.1322371291914035
922,9.22,-0.0364107014090726,0.2999430223952426,0.9374140677474828,0.08552113,-0.3915646,-0.26328292
923,9.23,0.0402723696288719,0.3262231515063983,0.8997589492234872,0.08552113,-0.3915646,-0.26328292
924,9.24,0.04905551,0.32923323,0.895446,0.08552113,-0.3915646,-0.26328292
925,9.25,0.04905551,0.32923323,0.895446,0.08552113,-0.3915646,-0.26328292
926,9.26,0.04905551,0.32923323,0.895446,0.08552113,-0.3915646,-0.26328292
927,9.27,-0.0430542095388701,0.3469584569038331,0.8963681363120943,0.08552113,-0.3915646,-0.26328292
928,9.28,-0.17035197,0.37145513,0.89764255,0.08552113,-0.3915646,-0.26328292
929,9.29,-0.17035197,0.37145513,0.89764255,0.08552113,-0.3915646,-0.26328292
930,9.3,-0.17035197,0.37145513,0.89764255,0.08552113,-0.3915646,-0.26328292
931,9.31,-0.17035197,0.37145513,0.89764255,0.08552113,-0.3915646,-0.26328292
932,9.32,-0.17035197,0.37145513,0.89764255,-0.1287569515554625,-0.2636650715617653,-0.3971140310798057
933,9.33,-0.17035197,0.37145513,0.89764255,-0.267559,-0.18081611,-0.48380527
934,9.34,-0.1246319566637359,0.3699400468073736,0.9201906232645868,-0.267559,-0.18081611,-0.48380527
935,9.35,-0.04515059,0.36730617,0.95938903,-0.267559,-0.18081611,-0.48380527
936,9.36,-0.04515059,0.36730617,0.95938903,-0.267559,-0.18081611,-0.48380527
937,9.37,-0.04515059,0.36730617,0.95938903,-0.267559,-0.18081611,-0.48380527
938,9.38,-0.04515059,0.36730617,0.95938903,-0.267559,-0.18081611,-0.48380527
939,9.39,-0.04515059,0.36730617,0.95938903,-0.2965934285150018,-0.1810926261250304,-0.4945895029895821
940,9.4,-0.04515059,0.36730617,0.95938903,-0.3409866209528782,-0.1514068414509218,-0.5115165337977946
941,9.41,-0.04515059,0.36730617,0.95938903,-0.35796702,-0.096516706,-0.5186246
942,9.42,-0.04515059,0.36730617,0.95938903,-0.35796702,-0.096516706,-0.5186246
943,9.43,-0.04515059,0.36730617,0.95938903,-0.35796702,-0.096516706,-0.5186246
944,9.44,-0.04515059,0.36730617,0.95938903,-0.35796702,-0.096516706,-0.5186246
945,9.45,-0.04515059,0.36730617,0.95938903,-0.35796702,-0.096516706,-0.5186246
946,9.46,-0.04515059,0.36730617,0.95938903,-0.35796702,-0.096516706,-0.5186246
947,9.47,-0.04515059,0.36730617,0.95938903,-0.35796702,-0.096516706,-0.5186246
948,9.48,-0.04515059,0.36730617,0.95938903,-0.35796702,-0.096516706,-0.5186246
949,9.49,-0.04515059,0.36730617,0.95938903,-0.35796702,-0.096516706,-0.5186246
950,9.5,-0.04515059,0.36730617,0.95938903,-0.35796702,-0.096516706,-0.5186246
951,9.51,-0.04515059,0.36730617,0.95938903,-0.35796702,-0.096516706,-0.5186246
952,9.52,-0.0684268961353452,0.3431021848967817,0.960232373573834,-0.35796702,-0.096516706,-0.5186246
953,9.53,-0.11251039,0.29726174,0.9618296,-0.35796702,-0.096516706,-0.5186246
954,9.54,-0.11251039,0.29726174,0.9618296,-0.35796702,-0.096516706,-0.5186246
955,9.55,-0.11251039,0.29726174,0.9618296,-0.35796702,-0.096516706,-0.5186246
956,9.56,-0.11251039,0.29726174,0.9618296,-0.35796702,-0.096516706,-0.5186246
957,9.57,-0.1220077105651937,0.3121222395666281,0.9461869640581242,-0.2192539268195856,-0.0548468449095035,-0.2974107647450055
958,9.58,-0.13325526,0.32972133,0.9276616,-0.05497787,-0.005497787,-0.035430185
959,9.59,-0.13325526,0.32972133,0.9276616,-0.05497787,-0.005497787,-0.035430185
960,9.6,-0.13325526,0.32972133,0.9276616,-0.05497787,-0.005497787,-0.035430185
961,9.61,-0.13325526,0.32972133,0.9276616,-0.05497787,-0.005497787,-0.035430185
962,9.62,-0.13325526,0.32972133,0.9276616,-0.05497787,-0.005497787,-0.035430185
963,9.63,-0.13325526,0.32972133,0.9276616,-0.05497787,-0.005497787,-0.035430185
964,9.64,-0.13325526,0.32972133,0.9276616,-0.05497787,-0.005497787,-0.035430185
965,9.65,-0.13325526,0.32972133,0.9276616,-0.05497787,-0.005497787,-0.035430185
966,9.66,-0.13325526,0.32972133,0.9276616,-0.05497787,-0.005497787,-0.035430185
967,9.67,-0.13325526,0.32972133,0.9276616,-0.05497787,-0.005497787,-0.035430185
968,9.68,-0.095010042006015,0.3111514105748817,0.9395994211964744,-0.05497787,-0.005497787,-0.035430185
969,9.69,-0.04881145,0.28871974,0.9540198,-0.0507335895654977,-0.0335277241004896,-0.0083728956016147
970,9.7,-0.04881145,0.28871974,0.9540198,-0.0257196753635863,-0.1987237926771513,0.1510908170328365
971,9.71,-0.0833923817932454,0.3036570513293479,0.9311022665471724,-0.02565634,-0.19914207,0.15149458
972,9.72,-0.09005712,0.3065359,0.9266854,-0.02565634,-0.19914207,0.15149458
973,9.73,-0.0698132455515517,0.3162529565500809,0.957803106652382,-0.02565634,-0.19914207,0.15149458
974,9.74,-0.047347106,0.3270367,0.99233675,-0.02565634,-0.19914207,0.15149458
975,9.75,-0.0552006879183763,0.3260146600965442,0.9914760979264948,-0.02565634,-0.19914207,0.15149458
976,9.76,-0.0825279735120155,0.3224583750001244,0.988481377141269,-0.02565634,-0.19914207,0.15149458
977,9.77,-0.08297946,0.32239962,0.9884319,-0.0158492876018841,0.0048446166699374,-0.0122831946471759
978,9.78,-0.0614450519043003,0.325202038641564,0.9907917955447202,0.0105574261274405,0.0258129414981916,-0.0093407822453871
979,9.79,-0.047347106,0.3270367,0.99233675,0.026267206,0.0067195175,0.018936822
980,9.8,-0.047347106,0.3270367,0.99233675,0.0727709010215514,-0.0332573434928146,0.0285231096310023
981,9.81,-0.047347106,0.3270367,0.99233675,0.16554448,-0.11301007,0.047647487
982,9.82,-0.047944143558635,0.3272252389828094,0.9925174302412768,0.16554448,-0.11301007,0.047647487
983,9.83,-0.0626893977000679,0.3318816549433863,0.9969797559985596,0.16554448,-0.11301007,0.047647487
984,9.84,-0.0288746845217795,0.1267830834796933,1.0084535739741631,0.16554448,-0.11301007,0.047647487
985,9.85,-0.0134231495,0.04075756,1.0128375,0.16554448,-0.11301007,0.047647487
986,9.86,-0.0134231495,0.04075756,1.0128375,0.16554448,-0.11301007,0.047647487
987,9.87,-0.0134231495,0.04075756,1.0128375,0.16554448,-0.11301007,0.047647487
988,9.88,-0.0134231495,0.04075756,1.0128375,0.16554448,-0.11301007,0.047647487
989,9.89,-0.0134231495,0.04075756,1.0128375,0.16554448,-0.11301007,0.047647487
990,9.9,-0.0536990362754592,0.1822864710765276,0.9569301343620724,0.16554448,-0.11301007,0.047647487
991,9.91,-0.08322352,0.2860351,0.9159469,0.16554448,-0.11301007,0.047647487
992,9.92,-0.08322352,0.2860351,0.9159469,0.16554448,-0.11301007,0.047647487
993,9.93,-0.08322352,0.2860351,0.9159469,0.1653444488108201,-0.113068902715919,0.0475611990412647
994,9.94,-0.08322352,0.2860351,0.9159469,0.1173252399676637,-0.1271922026078487,0.0268470317749179
995,9.95,-0.08322352,0.2860351,0.9159469,0.0843577783218584,-0.119322466776279,0.0118450605140612
996,9.96,-0.08322352,0.2860351,0.9159469,0.06963864,-0.10995574,0.004886922
997,9.97,-0.08322352,0.2860351,0.9159469,0.0787762763205325,-0.1150535793761476,-0.0450334280700494
998,9.98,-0.08322352,0.2860351,0.9159469,0.12767084,-0.1423316,-0.31215215
999,9.99,-0.08322352,0.2860351,0.9159469,0.12767084,-0.1423316,-0.31215215
