id,timestamp,acc_x,acc_y,acc_z,gyro_x,gyro_y,gyro_z
0,4.77e-07,-0.07036996,0.5290248,1.8445283,0.82739264,-0.8924478,-0.34039465
1,0.010000477,0.03725827,0.46142936,1.9489552,1.5567442,-1.4519839,-0.7510367
2,0.020000477,0.077291094,0.47460085,1.5184728,2.0729974857142857,-1.7724169857142855,-1.1416299285714286
3,0.030000477,0.0737368877142857,0.4289971385714285,1.16475,2.3440390571428575,-1.6478040714285715,-1.386492442857143
4,0.040000477,-0.0153210099999999,0.422860025,1.11274785,2.3659132,-1.4625719,-1.4054577666666666
5,0.050000477,-0.2188411542857143,0.1902070871428571,0.9931459642857144,1.8651348285714284,-1.9719022857142856,-0.979319057142857
6,0.060000477,0.0369838685714285,0.0731445105714285,1.1291207357142858,1.4893764571428572,-2.2900663285714287,-0.5933290285714286
7,0.070000477,0.1774537314285714,0.3077139491428572,1.0470341285714286,1.5811782,-2.2607458,-0.4772244
8,0.080000477,0.1536065185714285,0.5472313714285715,0.8299656571428571,1.7190551285714284,-2.0260058,-0.5417996857142857
9,0.090000477,0.0257789423333333,0.6551906666666666,0.5690931666666666,1.7656540000000005,-1.6181344,-0.69361705
10,0.100000477,0.0740504905714285,0.6191911714285714,0.32305021,1.3331740999999997,-1.6059175,-0.7559235
11,0.110000477,0.06631485,0.5978397,0.52618927,0.8982509,-1.6242428999999998,-0.8255601
12,0.120000477,0.1428611185714285,0.6080842714285714,0.5098555385714285,0.74920416,-1.735417,-0.85854584
13,0.130000477,0.242260055,0.62973695,0.4855872916666666,0.703390635,-1.8433334166666664,-1.0122757233333333
14,0.140000477,0.2316903357142857,0.6476640714285714,0.8095202142857143,0.7312277985714285,-2.072953842857143,-1.315285071428571
15,0.150000477,0.1719612499999999,0.6486049,1.0801545,0.9351053666666664,-2.5242246166666664,-1.6375796833333334
16,0.160000477,0.06043036,0.5346348,1.1116502,1.3630183857142857,-3.136177142857143,-1.7900005857142856
17,0.170000477,0.03471457,0.5118460628571428,0.9235904342857144,1.7045692,-3.6021662,-1.977618
18,0.180000477,0.0133544374999999,0.510893615,0.713273315,1.8633896000000003,-3.7817554,-2.221957
19,0.190000477,-0.01911697,0.4658198700000001,0.5803386999999999,2.0051062,-3.8294015,-2.50539
20,0.200000477,-0.06475988,0.46460027,0.4959130999999999,2.085738,-3.6363738,-2.7265167
21,0.210000477,-0.14716016,0.4261049985714286,0.2750029742857143,2.0710776857142856,-3.2688181714285713,-2.721280842857143
22,0.220000477,-0.14308763,0.40846896,0.26236287,1.901262,-1.543611,-2.2940369
23,0.230000477,-0.0370927599999999,0.4567514028571429,0.1950679985714285,1.6481967857142856,-1.3071258571428572,-2.0863487571428574
24,0.240000477,0.0793818022857143,0.5627331771428572,0.1832162565714285,1.4178201285714285,-0.9004761142857143,-1.9222926428571427
25,0.250000477,0.21053056,0.6171092,0.096895896,1.0114612833333332,-0.16961192,-1.8208338333333336
26,0.260000477,0.2800773,0.62006664,0.025885658,0.5390727,0.33169007,-1.8591136
27,0.270000477,-0.02903625,0.7801115733333334,0.4858972763333333,0.1328592783333333,0.6738918116666667,-1.9935001
28,0.280000477,-1.3137962,1.2658056,1.8159596,-0.4688252865714286,-1.949017177142857,-1.8413117714285712
29,0.290000477,-1.2762026,1.207479,1.0638121,-0.5323534,-3.267422,-1.3899829
30,0.300000477,-0.9550949428571428,0.6056668628571428,0.8903873285714285,0.24988016,-1.7563604,0.0751342142857143
31,0.310000477,-0.50455034,0.6040988342857142,0.97362392,0.8127322657142857,-1.3579134,0.8816489285714286
32,0.320000477,0.27324766,0.7852592499999999,0.89419854,1.4492351,-1.4544274,0.3816268
33,0.330000477,0.3999754385714286,0.7512851428571429,0.8809572971428572,1.5609328857142857,-1.7345444,-0.1149047428571428
34,0.340000477,0.31254873,0.7155600533333333,0.8039086666666666,1.5925806,-2.1756342666666666,-0.8031113866666667
35,0.350000477,0.1384706208571428,0.7755025428571428,0.8711309671428572,1.7672247857142858,-2.2637125428571427,-1.201842
36,0.360000477,0.082413346,0.7872106,0.8746851699999999,2.2079074,-2.2143214,-1.3679924
37,0.370000477,-0.2118067754285714,0.7619521285714287,0.7295460528571428,2.5882252571428572,-2.2712174,-1.470265685714286
38,0.380000477,-0.9091384,0.8074860999999999,0.55667883,3.00827,-2.4904242,-1.3753225999999998
39,0.390000477,-1.1730693285714284,0.8168943142857142,0.5143200657142858,3.092043285714286,-2.620272942857143,-1.0538424285714287
40,0.400000477,-1.1102476,0.6764419,0.481522,3.6850889,-3.3089595,0.42927292
41,0.410000477,-1.0082296,0.6061329,0.4385621800000001,4.079696,-3.4604497,0.93749785
42,0.420000477,-1.0542470285714285,0.5902783285714285,0.4160652157142857,4.550921285714286,-3.5704021999999997,1.2760818142857142
43,0.430000477,-1.0923046,0.53134198,0.306161155,5.2335867,-3.74754795,1.6876183500000002
44,0.440000477,-0.8782917142857143,0.5159882942857144,0.03684884,6.603193714285715,-4.179155271428571,2.184673357142857
45,0.450000477,-0.5142983,0.50512093,-0.3065118,7.3098564,-4.630833,1.9783815
46,0.460000477,-0.46402097,0.49801686,-0.5900954,7.494332300000001,-4.8411174,1.3870814
47,0.470000477,-0.6482738957142857,0.5067325371428572,-0.6535921571428572,7.3477287,-5.184413400000001,0.71392775
48,0.480000477,-0.8984061,0.5285369,-0.5805827,7.1412625,-5.590016000000001,0.23624517
49,0.490000477,-1.0823236714285716,0.5872729000000001,-0.5246124857142858,7.165696428571429,-5.633647857142857,0.11843892
50,0.500000477,-1.3826286428571426,0.6569982428571429,-0.6290001142857143,7.284375571428571,-5.181970114285714,0.1812689314285714
51,0.510000477,-1.574608357142857,0.7283133428571428,-1.0689256285714286,7.004083757142857,-4.5308505285714284,0.4582445357142857
52,0.520000477,-1.51895045,0.8281733333333333,-1.6607829166666666,6.501501766666666,-3.7870493333333335,0.7000818600000001
53,0.530000477,-1.3669917714285715,0.8902435714285714,-1.500213871428571,5.510649285714286,-2.4659903142857145,1.0046910028571427
54,0.540000477,-1.2276326,0.9517019,-1.1657996999999998,4.573958814285715,-1.4491915285714287,1.2769543571428572
55,0.550000477,-1.0381094,0.9052619,-0.9135289285714286,4.2563182571428575,-1.509578157142857,1.3659635285714289
56,0.560000477,-0.8781609500000002,0.8067544,-0.8236456,4.1737666,-1.6767757,1.3540957
57,0.570000477,-0.7058643699999999,0.7642824,-0.9098092,4.1554413,-1.7390821,1.312558
58,0.580000477,-0.52932967,0.7219781083333333,-1.0490957,4.055669383333333,-1.6108042666666669,1.2250033333333332
59,0.590000477,-0.3632224,0.67863715,-1.1804347,3.7620556,-1.3261492999999998,0.9387195
60,0.600000477,-0.3424894799999999,0.6857108,-1.201442,3.419981,-1.147782,0.5868715
61,0.610000477,-0.3349433133333333,0.6743025500000001,-1.26407275,2.8506714999999994,-0.96819293,0.04566083
62,0.620000477,-0.31378138,0.6523681828571428,-1.2998057857142855,2.704831714285714,-0.9114713657142858,-0.0948340414285714
63,0.630000477,-0.3586141371428571,0.6239824228571429,-1.256610742857143,2.3794682285714286,-0.7509057828571429,-0.42853114
64,0.640000477,-0.68537027,0.6023522166666667,-1.1153699333333331,1.9875952,-0.5308262666666667,-0.77788855
65,0.650000477,-0.9603303885714284,0.56096912,-1.001931237142857,1.7888662,-0.4453076399999999,-0.79257435
66,0.660000477,-1.0936047857142857,0.5369346057142856,-0.8825471657142857,1.705791,-0.41843036,-0.65452284
67,0.670000477,-1.1666229,0.50829184,-0.7409274,1.7326683,-0.36467582,-0.37826717
68,0.680000477,-1.144017042857143,0.48526786,-0.6536922857142857,1.9037055,-0.3121429399999999,-0.0056503373
69,0.690000477,-1.051995228571429,0.4544603328571429,-0.6477250428571428,2.1120916714285713,-0.2168507685714285,0.3053581775285714
70,0.700000477,-0.8728514257142856,0.4533103857142856,-0.7706764999999999,2.3133221,-0.0229504028571428,0.6503996185714286
71,0.710000477,-0.562146605,0.47561715,-0.9084929666666668,2.327837,0.149250345,0.7654424833333334
72,0.720000477,-0.0520849214285714,0.4810123785714286,-0.9745385428571428,2.257996857142857,0.3208693428571428,0.5369565428571429
73,0.730000477,0.2476407514285714,0.4622656514285714,-1.0987662171428572,2.160261328571429,0.1767093871428571,-0.0046249871428571
74,0.740000477,0.16415593,0.45850238,-1.3144364,1.9843373,-0.21562909,-0.59221643
75,0.750000477,-0.03789855,0.45655105,-1.4291383,1.6373761,-0.5552602,-0.9171871499999998
76,0.760000477,-0.2019150985714286,0.4069749614285714,-1.4021419,1.2959997571428572,-0.6536938342857143,-1.0491301071428571
77,0.770000477,-0.4141487242857143,0.38572372,-1.3466029857142858,0.9258263071428572,-0.5453120685714286,-1.0431961714285714
78,0.780000477,-0.6159897514285715,0.4355219457142857,-1.3325211142857143,0.6181337857142858,-0.2877090557142857,-0.9386540714285714
79,0.790000477,-0.88645416,0.5180485,-1.3022101,0.17622943,0.44530764,-0.4344651
80,0.800000477,-0.94160986,0.5258539,-1.2683057000000002,-0.09009997,0.8852704000000001,0.2509055
81,0.810000477,-0.6826618,0.45411184,-1.1169859,-0.20371756,0.9072609,0.75790876
82,0.820000477,-0.5193646666666666,0.42562949,-0.8707063166666668,-0.1517955433333333,0.6934643500000001,1.0826758766666666
83,0.830000477,-0.32782837,0.4297942314285713,-0.63897022,0.0359090942857142,0.4586372114285714,1.292836385714286
84,0.840000477,0.0042206342857142,0.3962992842857143,-0.3711714628571428,0.63558656,0.1643179,1.4823736
85,0.850000477,0.31840274,0.29254755,-0.2686742,1.2183349,0.08246438,1.3259966
86,0.860000477,0.5048465,0.40920067,-0.3392271,1.759720042857143,-0.0222522914285714,1.0327900057142858
87,0.870000477,0.5707563285714287,0.2246951671428571,-0.5268425571428572,2.2635817285714284,-0.3318645871428571,0.4770935314285714
88,0.880000477,0.3691940171428571,0.1809818157142857,-0.8794285142857143,2.488548142857143,-0.5732365428571429,-0.0786029542857142
89,0.890000477,-0.31879908,0.24348982,-1.312729,2.1162803,-0.3732277,-0.37582377
90,0.900000477,-0.3537314285714285,0.2372176771428571,-1.3126593142857144,2.046469185714286,-0.3435579685714285,-0.3517389357142857
91,0.910000477,-0.5042541285714286,0.2301092457142857,-1.2683449,1.4604048285714286,-0.1018369622857142,-0.0621973391428571
92,0.920000477,-0.4867103,0.2174872833333333,-1.23413195,0.9406029333333334,0.2486148413333333,0.333573482
93,0.930000477,-0.3808715257142857,0.1826195457142857,-1.1701989857142858,0.443606,0.6429821771428571,0.7601775999999999
94,0.940000477,-0.2456037633333333,0.1445663583333333,-1.1085352166666669,0.0835842666666666,0.9876891066666668,1.1067024833333334
95,0.950000477,-0.13724232,0.09600734,-0.9766205685714284,-0.152057332,1.280924857142857,1.380274842857143
96,0.960000477,0.0468624933333333,0.0881453875,-0.7572189883333333,-0.18946445,1.3873868333333337,1.5731862666666665
97,0.970000477,0.32085059,0.0809150028571428,-0.4924155,-0.0653170221428571,1.3584151714285717,1.6439863571428572
98,0.980000477,0.4604449742857143,0.0347537704285714,-0.2927697028571429,0.5781669,0.8522846,1.4102936
99,0.990000477,0.40724936,0.021891521,-0.36361876,1.1010522,0.49295375,1.2270395
100,1.000000477,0.076315425,0.04384402,-0.84291506,1.3848343714285714,0.3494918899999999,1.2364639571428573
101,1.010000477,0.034475007,0.0532783685714285,-1.0324382942857144,1.3701739714285714,0.3151099157142857,1.3706758428571428
102,1.020000477,0.127550994,0.0255589828571428,-1.153621357142857,1.1385755714285717,0.3632795857142857,1.5450290857142857
103,1.030000477,0.2189965099999999,-0.0066670546666666,-1.2224900333333333,0.7724163333333335,0.5097520400000001,1.6668494666666664
104,1.040000477,0.38819337,-0.04643564,-1.1343344,0.36541756,0.6534974914285715,1.7474812714285717
105,1.050000477,0.5268295,-0.09939604,-0.9466406,-0.1805053699999999,0.8021952,1.7694718
106,1.060000477,0.5812141857142857,-0.0698908342857142,-0.7916402428571429,-0.3260615385714285,0.8294214857142858,1.730726714285714
107,1.070000477,0.8398312428571428,-0.0928059337142857,-0.6877709785714285,-0.4319999285714285,0.8559497142857142,1.669816457142857
108,1.080000477,0.973756025,-0.1336510926666666,-0.5541786666666667,-0.4160888,0.93393455,1.43065525
109,1.090000477,0.72278607,-0.0945177149999999,-0.5081089,-0.3086087571428572,0.9990625571428572,1.3029590714285717
110,1.100000477,0.5742669471428571,-0.0721470621428571,-0.4137654314285714,-0.1639252285714285,0.9467041714285714,1.4474681
111,1.110000477,0.5735242933333333,-0.0574169675,-0.2916582783333333,0.12247488,0.7288935,1.7731369
112,1.120000477,0.7003501142857144,-0.0536486005714285,-0.2679424657142857,0.4324362428571429,0.6084693342857143,2.020268157142857
113,1.130000477,0.8767454285714287,-0.0429859562857142,-0.36221624,0.6767751157142856,0.5422360457142857,2.1570980142857143
114,1.140000477,1.1227484666666665,-0.0077900884166666,-0.68585302,0.9190196833333334,0.4821621,2.2451182500000004
115,1.150000477,1.3272552,0.0728265443857142,-0.9839641657142858,0.7954540142857143,0.5111046285714286,2.1680932428571427
116,1.160000477,1.7997958,0.1449518314285714,-1.0538855,0.1779747142857142,0.6368955571428572,1.638575985714286
117,1.170000477,1.9617782428571429,0.13293458,-0.9634795857142856,-0.0649679657142857,0.7095209257142857,1.172063217142857
118,1.180000477,1.7072642,0.112201676,-0.7511719,-0.27335414,0.84739786,0.20448112
119,1.190000477,1.2943438,0.14586218,-0.58911973,-0.07543964,0.78509146,-0.2121167
120,1.200000477,1.0661598,0.13439809,-0.5686307,0.14760688,0.57343288,-0.3451068714285714
121,1.210000477,0.9416860166666666,0.0227553934833333,-0.7357898666666666,0.5003857166666666,0.046424395,-0.4680617166666667
122,1.220000477,0.8951871971428572,-0.0649776624942857,-0.8788274142857143,0.6144687142857143,-0.2299403668571428,-0.52242712
123,1.230000477,0.8530723857142857,-0.1627708271428571,-1.0345334000000002,0.6191809857142857,-0.3732276785714285,-0.5740000714285715
124,1.240000477,0.8079740000000001,-0.21507353,-1.0899112,0.4667891166666666,-0.280786115,-0.6270346833333333
125,1.250000477,0.72961575,-0.27779058,-1.0469513,0.2685546342857143,-0.11946427,-0.63270688
126,1.260000477,0.7863721125,-0.3090957749999999,-0.993876545,0.1847813,-0.07986827875,-0.61420691
127,1.270000477,0.9294270757142856,-0.3623817614285714,-0.988141342857143,0.0769231267142857,-0.1170208782857142,-0.68785764
128,1.280000477,0.82797515,-0.33099493,-1.0759774,-0.049784053,-0.211964,-0.7705838
129,1.290000477,0.790316107142857,-0.31155127,-1.0885478285714285,-0.1827742304285714,-0.268511,-0.7663951657142858
130,1.300000477,0.7423451000000001,-0.26885206,-1.00806695,-0.3767909533333333,-0.3121429466666667,-0.72904622
131,1.310000477,0.7209392714285714,-0.2489387328571428,-0.9566847457142856,-0.5004147999999999,-0.3069071214285714,-0.6862869142857143
132,1.320000477,0.6828447,-0.1996966033333333,-0.7912656866666667,-0.5337787166666667,-0.144567185,-0.4957789166666666
133,1.330000477,0.6920438714285714,-0.12640981,-0.5996038028571429,-0.3759765,-0.0796719371428571,-0.3260833642857142
134,1.340000477,0.87874025,-0.07500438,-0.50957245,0.018630842,-0.18142164,-0.10827268
135,1.350000477,1.4917943,-0.13723361,-0.6132675,0.3872335374285714,-0.4903358400000001,-0.2088006828571428
136,1.360000477,1.6862874,-0.17089412,-0.66281307,0.5549547,-0.6823163600000001,-0.40880954
137,1.370000477,1.7346090857142855,-0.2064623942857142,-0.8939676814285714,0.6334922142857142,-1.0037965657142858,-1.1189194485714289
138,1.380000477,1.4157011,-0.1521517428571428,-1.0697225785714284,0.48217664,-1.0846029714285714,-1.5650343000000002
139,1.390000477,1.182569,-0.08866371,-1.1264986,0.29962057,-1.0427163,-1.6660858
140,1.400000477,1.098374142857143,-0.0659925285714285,-1.0895408857142856,0.0399232271428571,-0.9519618428571428,-1.573237057142857
141,1.410000477,1.13192575,-0.098786253,-1.00667458,-0.24525518,-0.87839835,-1.44557
142,1.420000477,1.2405863285714285,-0.2010352442857143,-0.7715258742857143,-0.3161134485714285,-0.9350325857142856,-1.3854451571428572
143,1.430000477,1.1513476,-0.28852293,-0.5093285,-0.1253254916666666,-1.04271625,-1.4001636500000003
144,1.440000477,1.0291715714285714,-0.3042294299999999,-0.5212455628571429,0.11305037,-1.0140936857142857,-1.3542047857142856
145,1.450000477,0.9292818583333332,-0.31497773,-0.6009039983333333,0.3008423,-0.8606838,-1.2678134
146,1.460000477,0.72107863,-0.2499841,-0.6923575,0.32527617,-0.77883023,-1.1786298
147,1.470000477,0.5721413757142858,-0.1654669685714285,-0.7915096085714285,0.229984,-0.76050484,-0.9709417
148,1.480000477,0.4787931916666666,-0.05010455,-0.939013135,0.0396032650833333,-0.62815464,-0.704205075
149,1.490000477,0.5129916157142856,0.0467231108571428,-1.06958771,-0.3063399088428571,-0.2519308685714286,-0.3533315071428571
150,1.500000477,0.6617103883333333,0.03893012,-1.00115595,-0.6190936933333333,0.12074414,-0.13596442
151,1.510000477,0.91671292,0.0191387492285714,-0.8220775571428571,-0.9215503714285712,0.5474936714285714,-0.0681312842857142
152,1.520000477,1.2673859166666668,-0.0184614426333333,-0.3660122166666666,-0.85854584,0.89870906,-0.4772244
153,1.530000477,0.9764332942857143,0.0553995754285714,-0.2100427371428571,-0.43706122,0.71789825,-0.83533365
154,1.540000477,0.6395799999999999,0.16074108,-0.3316352,-0.0496095245714285,0.4748246642857143,-0.93167295
155,1.550000477,0.4062737,0.21467716,-0.5835096,0.28496024,0.32924667,-0.97582847
156,1.560000477,0.0105406871428571,0.3031100257142857,-0.7559151571428571,0.37414396,0.3915531,-0.91718715
157,1.570000477,-0.28879735,0.34599578,-0.8414515000000001,0.36803547,0.3475721,-0.64719266
158,1.580000477,-0.3691591714285714,0.3334297228571428,-0.7947371428571428,0.3460449814285714,0.1894499171428571,-0.2973080857142857
159,1.590000477,-0.2642837171428571,0.2700462457142857,-0.6748085142857142,0.4827002285714286,0.0950303822857142,0.2165235414285714
160,1.600000477,-0.0771081593333333,0.1957431233333333,-0.5730111,0.824745575,0.1529154376666666,0.589722105
161,1.610000477,0.1445641844285714,0.1567382328571429,-0.6242655285714286,1.1617878428571429,0.1238274614285714,0.7874039285714286
162,1.620000477,0.2933359214285714,0.1487194728571428,-0.9086723257142856,1.3193865142857142,-0.0843841891428571,0.7507531114285715
163,1.630000477,0.25471,0.21565282,-1.3254128,1.1047173,-0.38055784,0.4756973
164,1.640000477,0.0356815267428571,0.3874050142857143,-1.532498,0.5654264142857143,-0.3658975171428572,0.2338017885714285
165,1.650000477,-0.105250046,0.45825842,-1.3517557,-0.18050537,-0.018936265,-0.028862532
166,1.660000477,-0.2619490751428571,0.35638838,-1.024820242857143,-0.4485800471428571,0.3423362535714286,-0.1115887045714285
167,1.670000477,-0.50646245,0.33843437,-0.6847961000000001,-0.3967453,0.87794024,0.15072656
168,1.680000477,-0.4405788414285714,0.3244004642857143,-0.6174227857142858,-0.0553689416285714,1.244448577142857,0.4858199342857143
169,1.690000477,-0.3049394114285714,0.24530612,-0.6921745342857143,0.6172612,1.1858072,0.7273664
170,1.700000477,-0.3381701333333333,0.18466524,-0.9655238133333331,0.8616000933333333,0.7932360666666667,0.7070048
171,1.710000477,-0.3817600671428571,0.16074108,-1.2388048285714286,0.9874346228571428,0.3476593632857143,0.6821636642857143
172,1.720000477,-0.36948294,0.1540740266666666,-1.4815193999999998,0.8595639333333334,-0.2917813663333333,0.60641863
173,1.730000477,-0.3398064,0.19126116,-1.6563467,0.41201648,-0.56503373,0.4964661
174,1.740000477,-0.32050648,0.23763582,-1.6399736,-0.049784053,-0.35368055,0.47081053
175,1.750000477,-0.3190429942857143,0.2669058257142857,-1.5184509714285712,-0.3473539294285714,-0.1049784607142857,0.4760463514285714
176,1.760000477,-0.3062547942857143,0.2860271485714286,-1.3500962857142855,-0.6539992514285714,0.2798553071428571,0.5383527657142857
177,1.770000477,-0.2211815966666666,0.291653205,-1.2129315500000002,-0.8176190750000001,0.6893665800000001,0.6051969333333332
178,1.780000477,-0.1684985071428571,0.2668448285714285,-1.1547189428571427,-0.8374279814285714,0.6918935714285714,0.4713341142857143
179,1.790000477,-0.15406387,0.2566613,-1.1404324,-0.83899873,0.6494833,0.3645231
180,1.800000477,-0.2668535557142857,0.2627592142857143,-1.2028271857142856,-0.8473760757142857,0.1310049142857142,0.2440989257142856
181,1.810000477,-0.1672353599999999,0.17906532,-1.116742,-0.8935677166666666,-0.3656938999999999,0.1924677883333333
182,1.820000477,-0.1371290742857143,0.1322071885714285,-1.0096451371428572,-0.75714517,-0.72996247,0.11774081
183,1.830000477,-0.14089237,0.072656676,-1.0342677,-0.52990997,-0.75806147,0.14583978
184,1.840000477,-0.15113688,0.029696856,-1.2333951,-0.3539860000000001,-0.5711422,0.21058959
185,1.850000477,-0.1940226428571428,0.0085806402857142,-1.4624589857142856,-0.36009446,-0.31947312,0.2997733
186,1.860000477,-0.2432713116666666,0.0129885635,-1.6673889666666668,-0.58122116,-0.12155861,0.37307495
187,1.870000477,-0.24827668,0.043356188,-1.7536998999999998,-1.157861,-0.10445488,0.432938
188,1.880000477,-0.25335828,0.0401039646666666,-1.7057042333333332,-1.3187174166666666,-0.146196105,0.4370103333333333
189,1.890000477,-0.2435725857142857,0.0459216678571428,-1.3722186,-1.5760294857142856,-0.3709588142857143,0.4718577
190,1.900000477,-0.2775989457142857,0.0577080715714285,-1.0810343428571427,-1.577425742857143,-0.6187882571428572,0.5154896485714285
191,1.910000477,-0.3883254949999999,0.0875762508333333,-0.8197124750000001,-1.22383245,-1.0247980833333334,0.6734082066666667
192,1.920000477,-0.4149632328571428,0.1070402221428571,-0.7527791128571428,-0.7716309971428572,-1.275536357142857,0.9120167857142858
193,1.930000477,-0.4774364199999999,0.140496,-0.8746547000000001,-0.25502872,-1.4593141,1.1989405
194,1.940000477,-0.4332961771428571,0.1898629885714285,-1.0551878428571428,-0.0372180493428571,-1.6279079285714284,1.426175585714286
195,1.950000477,-0.20995127,0.25275865,-1.2714766,0.04082495985,-1.7934475666666667,1.57705485
196,1.960000477,0.0594634042857142,0.3596464214285714,-1.4057788857142857,-0.1445526391428571,-1.8774827,1.3839399142857145
197,1.970000477,0.22614126,0.4675273,-1.462067,-0.501811,-1.8453696,0.8532009
198,1.980000477,0.2374572342857142,0.4840439285714286,-1.4476411142857142,-0.6840180314285714,-1.8254734285714285,0.5767488942857143
199,1.990000477,0.0695162508333333,0.417661575,-1.2526442999999998,-1.2722929783333334,-1.5808727333333332,-0.300078715
200,2.000000477,-0.206684535,0.3274712214285714,-0.9369492428571428,-1.6294351,-1.1465602999999998,-0.909857
201,2.010000477,-0.6066055166666667,0.349324225,-0.5749319416666667,-1.5439164333333333,-0.7759796333333333,-1.0330445
202,2.020000477,-1.0477353142857144,0.4411755585714285,-0.2366819285714285,-1.1226063285714285,-0.4756755,-0.8681448285714285
203,2.030000477,-1.309182,0.5134903233333333,-0.0783785583333333,-0.437264825,-0.4695379333333333,-0.3925457166666666
204,2.040000477,-1.233760971428571,0.5062664600000001,-0.1706502057142857,0.5191765328571429,-0.7880802099999998,0.2901742642857143
205,2.050000477,-1.0307003,0.4772839199999999,-0.45173368,1.338061,-1.1465603,0.8177718
206,2.060000477,-0.8064451142857143,0.4994455028571428,-0.78452314,1.4916453571428572,-1.2442958,0.906780942857143
207,2.070000477,-0.31855518,0.5849122,-1.426699,1.2867497,-1.1551121,0.6601732
208,2.080000477,-0.3363610799999999,0.6664108,-1.606801,0.7817827,-0.9046648,0.286538275
209,2.090000477,-0.4603012371428571,0.7479922285714286,-1.5579959999999995,0.2633188125714286,-0.68214186,-0.0478860642857142
210,2.100000477,-0.6528937666666667,0.8040611133333333,-1.332323666666667,-0.4480564576666666,-0.4233171366666666,-0.46500746
211,2.110000477,-0.8451145942857143,0.8138976099999999,-0.9232202142857144,-0.9100315228571428,-0.2308129985714286,-0.7155857785714286
212,2.120000477,-0.9425855,0.81675494,-0.5866806,-0.9587248,-0.007941014,-0.7754706
213,2.130000477,-0.9942399166666666,0.8098439900000001,-0.427652,-0.7724163833333334,0.1610600643333333,-0.7469643916666667
214,2.140000477,-1.0853246285714284,0.7927553428571429,-0.3525423428571428,-0.4515470214285714,0.2960864014285714,-0.6531266142857143
215,2.150000477,-1.1126869,0.7935829,-0.45392892,0.15546063,0.33413345,-0.41736138
216,2.160000477,-0.94160986,0.8065104499999999,-0.65988606,0.4327852699999999,0.2987043,-0.33306447
217,2.170000477,-0.8225175,0.8099253,-0.6908939500000001,0.5244124,0.299926,-0.3929275
218,2.180000477,-0.55121105,0.7975262166666667,-0.6896744083333334,0.5806103333333333,0.28933798,-0.5183548066666667
219,2.190000477,-0.4027108071428572,0.7497562999999999,-0.6633880271428572,0.7033033571428572,0.27461947,-0.7989227571428571
220,2.200000477,-0.3687817033333333,0.6354791666666667,-0.7270952883333334,1.2232217,0.23884128,-1.8798825
221,2.210000477,-0.5124384385714286,0.5330755285714285,-0.9559573857142856,1.356211785714286,0.2158036114285714,-2.2380135
222,2.220000477,-0.7478485,0.40163928,-1.2455909,1.3448674857142855,0.1334264942857143,-2.5500692
223,2.230000477,-0.94600034,0.26836932,-1.4120336,1.1601007666666667,-0.0130314066666666,-2.6939381499999997
224,2.240000477,-1.026126877142857,0.1531186885714286,-1.411824542857143,0.8341991999999999,-0.2166762442857142,-2.657752785714286
225,2.250000477,-1.0455792166666666,-0.002149515,-1.2759585333333334,0.6026008333333333,-0.3103104066666666,-2.4274053
226,2.260000477,-0.9890690285714284,-0.0889729611428571,-1.1429238428571429,0.46577105,-0.3475721,-2.0826838
227,2.270000477,-0.93754965,-0.1214959016666666,-1.07077885,0.4433733166666667,-0.3516444,-1.9493154666666663
228,2.280000477,-0.8043588142857142,-0.1627751685714285,-0.9185161571428572,0.4816530771428571,-0.2800298314285714,-1.5954021571428572
229,2.290000477,-0.7052139333333334,-0.1616252799999999,-0.8293472333333334,0.5496607333333333,-0.2327328033333333,-1.388354
230,2.300000477,-0.4922412571428571,-0.0828314914285714,-0.7761210714285713,0.7989445642857144,-0.2405865628571428,-1.180200542857143
231,2.310000477,-0.4313753542857143,-0.0378637057142857,-0.9725437285714286,0.95567054,-0.35978904,-1.1859599
232,2.320000477,-0.4481359,-0.055460554,-1.3366328,0.7455390933333333,-0.2327328133333333,-1.1436079
233,2.330000477,-0.45277032,-0.06841862,-1.3800805,0.46332765,-0.029931515,-1.0772291
234,2.340000477,-0.47719246,-0.0903711239999999,-1.3764218,0.1538317,0.2469859141666666,-0.96625855
235,2.350000477,-0.4734291657142857,-0.1608543377142857,-1.1684740571428571,-0.2400193414285714,0.6794803371428572,-0.6990274057142857
236,2.360000477,-0.495161025,-0.1522751483333333,-0.9806822666666668,-0.31733516,0.8999307,-0.46256408
237,2.370000477,-0.5414732571428571,-0.1300206471428571,-0.8950435314285714,-0.2785899885714286,0.912496757142857,-0.3756492457142857
238,2.380000477,-0.5726858671428572,-0.1271633385714285,-0.9005316485714285,-0.1997034242857143,0.8761949571428571,-0.1848903757142857
239,2.390000477,-0.54600745,-0.16138138,-0.96496487,-0.1422256016666666,0.7763359416666668,0.2969226749999999
240,2.400000477,-0.3773695708571428,-0.1562547692857143,-0.9199056128571428,-0.14926489,0.7053322385714286,0.5674989271428571
241,2.410000477,-0.032532386,-0.107201375,-0.8392563000000001,-0.12308572,0.57496,0.79211617
242,2.420000477,0.0703525362857142,-0.0287342534285714,-0.9963909428571428,-0.1314630571428571,0.5245869,0.7626209671428571
243,2.430000477,0.13366634,0.006524771,-1.1204008,-0.26724568,0.5896203,0.7383615999999998
244,2.440000477,0.18613891,0.024330689,-1.0872281,-0.4630658628571428,0.6566390142857143,0.6776259657142857
245,2.450000477,0.1877650266666666,0.0174197148333333,-0.9851388166666668,-0.648414385,0.6596641333333334,0.5748581683333333
246,2.460000477,0.1673660357142857,-0.0155583994285714,-0.7923415085714286,-0.7313150471428571,0.59101652,0.4694143042857143
247,2.470000477,0.1340147971428571,-0.0653827294285714,-0.6159287999999999,-0.6594096328571428,0.5001311771428572,0.3868626571428571
248,2.480000477,0.0189899309166666,-0.07565482,-0.52807455,-0.477987975,0.409471275,0.3551567833333333
249,2.490000477,-0.1534802123857142,0.0036935942857142,-0.6313042542857144,-0.3257124728571429,0.4149398057142857,0.5130462585714286
250,2.500000477,-0.27779058,0.1536675,-0.9481041,-0.29167956,0.5925982,0.8538117500000001
251,2.510000477,-0.0326282078571428,0.1302515057142857,-1.0158955285714286,-0.5937871714285714,1.1158216142857145,1.4375199285714284
252,2.520000477,0.44798344,0.08802343,-0.7819054,-0.8438855,1.3592879,1.6998352
253,2.530000477,0.7155426057142857,0.12338263,-0.4829855028571428,-0.7224141628571428,1.2252505571428571,1.5867412
254,2.540000477,0.8747592342857143,0.1663076071428571,-0.2537038314285714,-0.2979625685714285,0.8636289485714286,1.2600251714285715
255,2.550000477,0.8365122,0.15342359,-0.2789492,0.5207473,0.37200597,0.7041542
256,2.560000477,0.6831060285714285,0.1421337328571428,-0.4292715714285714,0.7764305142857143,0.3048127771428571,0.5531876571428571
257,2.570000477,0.3763938933333333,0.1060021233333333,-0.7283047166666666,1.0792653,0.2738631916666666,0.4011739483333333
258,2.580000477,0.0379856571428571,0.0684012041428571,-1.0048321714285715,1.0928493714285714,0.2521053928571429,0.4798859642857143
259,2.590000477,-0.2160491999999999,0.026769854,-1.2243702,0.8693374500000001,0.1936385733333333,0.7715509733333333
260,2.600000477,-0.13503838,0.017744938,-1.2741597,0.5851480357142858,0.2165017242857143,1.0081816028571429
261,2.610000477,-0.023019636,0.06314393,-1.3024539999999998,0.08582404,0.49051034,1.2734638
262,2.620000477,0.14073992,0.09314568,-1.2831845,-0.3429907300000001,0.82296395,1.3931899
263,2.630000477,0.5119201,0.06119259,-1.1887279,-0.7351547,1.0062182,1.4017417
264,2.640000477,0.6913005166666667,0.03006781,-1.0567588166666666,-0.9560777833333334,0.9624407833333332,1.2144152833333333
265,2.650000477,0.6879538857142856,0.0259335682857142,-0.9113031857142858,-1.0962526857142856,0.7695584428571429,0.9814788571428572
266,2.660000477,0.43139714,0.014330104,-0.6823569,-1.0870028,0.52960455,0.89351684
267,2.670000477,0.33743839,0.0127039931666666,-0.606691925,-1.0411891333333332,0.5010983583333334,0.9495111816666668
268,2.680000477,0.2443827257142857,0.0109849617142857,-0.46814143,-0.8269562857142857,0.42384072,1.2181385142857142
269,2.690000477,0.3110750516666666,-0.0095178319999999,-0.264420905,-0.5372401666666667,0.3520516266666667,1.5068074333333332
270,2.700000477,0.4759467728571428,-0.0465401722857142,-0.0622161714285714,-0.0417557728571428,0.3482702057142857,1.770344457142857
271,2.710000477,0.6891459383333333,-0.0648513416666666,0.1089037166666666,0.5926236533333333,0.4520269716666666,1.9291065000000005
272,2.720000477,1.2037898000000002,-0.1804068699999999,0.16766222,1.511716037142857,0.5214017471428571,2.008574871428572
273,2.730000477,1.3770795142857144,-0.2398615342857143,-0.0983376228571428,2.406869042857142,0.3873644142857143,1.8673818714285717
274,2.740000477,1.327303,-0.18897444,-1.0257305,3.372335,0.028709821,1.5593404
275,2.750000477,1.122535,-0.01545822,-1.9218498,3.2758212,-0.0849077699999999,1.4689349
276,2.760000477,1.0278344,0.2322696599999999,-2.5278304,2.283067116666667,-0.1215586033333333,1.4577360666666668
277,2.770000477,1.162249828571429,0.3314479028571428,-2.611502542857143,1.511367042857143,-0.09119077,1.4129115571428572
278,2.780000477,1.42223235,0.32841855,-2.3434447,-0.0351236999999999,0.1643179099999999,1.015279066666667
279,2.790000477,1.6045884142857143,0.26185764,-1.6005419714285714,-1.1945117999999997,0.4880669699999999,0.27045262
280,2.800000477,1.478879842857143,0.1378216362857142,-1.147540842857143,-1.3756716857142857,0.5048216528571429,-0.2091497257142857
281,2.810000477,1.2545549,-0.062290218,-0.76556295,-1.3582189,0.2596101,-0.76447535
282,2.820000477,1.0007596,-0.20068243,-0.58204615,-1.1676345,-0.070247434,-1.0918895
283,2.830000477,0.6952235,-0.29193774,-0.4522215,-0.9037485,-0.30725616,-1.2360494
284,2.840000477,0.4531971628571428,-0.3283423114285714,-0.3825484457142857,-0.5466646714285714,-0.4318690114285714,-1.165889257142857
285,2.850000477,0.2588870483333333,-0.3661443233333333,-0.3522359866666666,-0.17663667,-0.45263782,-0.9801044416666668
286,2.860000477,0.2201478671428571,-0.38628996,-0.3763895585714286,0.0453335897142857,-0.4442604942857143,-0.8349845785714286
287,2.870000477,0.2636913471428571,-0.3886245928571429,-0.6190343657142857,0.3683845342857142,-0.4058643857142857,-0.5476245599999999
288,2.880000477,0.3847937916666666,-0.3600108383333333,-0.8927959916666667,0.47798797,-0.30969957,-0.2096733199999999
289,2.890000477,0.5068457485714285,-0.3197137685714286,-1.034912242857143,0.2779791357142857,-0.2007942128571428,-0.1332301485714286
290,2.900000477,0.73595756,-0.2797419,-1.0930821,-0.05955761,-0.037261683,-0.10949437
291,2.910000477,0.8235847,-0.23409903,-1.0093577,-0.2564249728571429,0.0611719881428571,-0.1932677071428571
292,2.920000477,0.7886436142857143,-0.1590162471428571,-0.9152232457142856,-0.3792925142857143,0.1142284371428571,-0.3067107614285714
293,2.930000477,0.7786734699999999,-0.13430661,-0.7467814,-0.35276428,0.086129464,-0.4124746000000001
294,2.940000477,0.7674533,-0.15040511,-0.64061666,-0.1244819422857142,0.0411012931428571,-0.4773989542857143
295,2.950000477,0.7526150500000001,-0.1658531683333333,-0.60928861,0.1680848106666666,-0.0142531028333333,-0.496364305
296,2.960000477,0.7806596357142856,-0.1942273585714285,-0.6216869999999999,0.3523279785714286,-0.0698983784285714,-0.4924083442857143
297,2.970000477,0.8257696833333333,-0.23509501,-0.7593024399999999,0.68689776,-0.2494292933333333,-0.4686725599999999
298,2.980000477,0.8885622942857143,-0.2289114257142857,-1.0061649657142857,0.82372755,-0.5002839,-0.46256408
299,2.990000477,0.936579,-0.19092578,-1.1946124,0.6331432,-0.64810896,-0.52242714
300,3.000000477,0.9885638,-0.22239104,-1.1550674,0.3582619,-0.73607093,-0.65940964
301,3.010000477,0.9779011571428572,-0.2510599485714286,-1.055497057142857,0.18233791,-0.65177405,-0.7901309
302,3.020000477,0.9271374566666668,-0.2675460999999999,-0.9477788466666668,0.15057385,-0.45874628,-0.8573241
303,3.030000477,0.8290771171428571,-0.2815887428571428,-0.7533627557142857,0.3725731899999999,-0.3519352828571428,-0.8091544714285714
304,3.040000477,0.7466899000000001,-0.32684833,-0.7965709,0.68201095,-0.28282228,-0.64352757
305,3.050000477,0.72278607,-0.3439225,-0.9471284,0.75409096,-0.21807247,-0.4381302000000001
306,3.060000477,0.7327460116666668,-0.3567535416666667,-1.03031415,0.6706084933333334,-0.19669282,-0.313924575
307,3.070000477,0.9744296428571428,-0.3457083214285714,-1.1360244428571429,0.3886297642857143,-0.3364023114285714,-0.1939658142857143
308,3.080000477,1.3067836,-0.26583868,-1.2563537,-0.23495803,-0.5978449428571428,-0.3919021428571428
309,3.090000477,1.25610985,-0.14084663,-1.2549970666666668,-0.7807645916666667,-0.5890603383333333,-0.8766676166666668
310,3.100000477,1.0722576,-0.11012838,-1.0847889,-1.2165023,-0.40377003,-1.2788087
311,3.110000477,0.74989134,-0.11305538,-0.77239263,-1.4231723,-0.0759486741666666,-1.4620628666666666
312,3.120000477,0.54068924,-0.0942389478571428,-0.4898195085714286,-1.381605585714286,0.1911951991428571,-1.5030769857142856
313,3.130000477,0.15147226,-0.005914979,0.029544408,-0.7880947666666667,0.1700191599999999,-1.2922473666666667
314,3.140000477,0.0862158348571428,0.0379900201428571,-0.0005880128571428,0.1067673685714285,-0.0672804628571428,-0.8686684485714286
315,3.150000477,0.0816119034285714,0.0539055842857142,-0.2206400432857143,0.7139495114285713,-0.1381387442857143,-0.4575245942857143
316,3.160000477,0.0265310191666666,0.0907065074999999,-0.5739511866666667,1.05259165,0.0171037233333333,-0.0516674958333333
317,3.170000477,0.0599294559999999,0.1682110257142857,-0.8204703571428571,1.098259742857143,0.2615298937142857,0.3526552097142857
318,3.180000477,0.41618788,0.2277114416666666,-0.8721342249999999,1.0045383166666666,0.4115074416666667,0.7025252583333333
319,3.190000477,0.77184385,0.22275689,-0.73873216,1.0521845,0.18264332,0.5477773
320,3.200000477,0.8023588083333334,0.2168368316666666,-0.7787751099999999,1.125486083333333,-0.21949778,0.18839548
321,3.210000477,0.7097844428571428,0.1895188914285714,-0.8967858142857142,1.1160615428571428,-0.5250668285714285,-0.2374232377142857
322,3.220000477,0.5274393057142858,0.0863944114285714,-1.04349298,0.9319347457142858,-0.5060433000000001,-0.5761380614285715
323,3.230000477,0.065583095,0.024330689,-1.1758003,0.53785104,-0.20463383,-0.6533011
324,3.240000477,-0.18287653,0.06631485,-1.2741597,0.2100878314285714,0.0487805157142857,-0.37881256
325,3.250000477,-0.2109269299999999,0.0512733166666666,-1.3280500333333334,-0.2446443116666666,0.3801506233333334,0.051769305
326,3.260000477,-0.1681544042857143,0.0439267797142857,-1.2600430142857142,-0.6004192085714285,0.5937435571428572,0.3772636257142857
327,3.270000477,-0.0084100441666666,0.0748468461666666,-0.9274118666666666,-1.0118685233333335,0.8032132666666666,0.7713473833333332
328,3.280000477,0.2219032052857143,0.0689282391428571,-0.5675113171428572,-0.9627389,0.6992237914285715,0.8275453142857143
329,3.290000477,0.5107005,0.023842854,-0.2962672999999999,-0.52624494,0.30603448,0.608862
330,3.300000477,0.2579164666666667,0.0822050006666666,-0.5047143833333333,0.1507774516666666,-0.0604738783333333,0.1578531083333333
331,3.310000477,0.052625023,0.090462595,-0.7558063,0.4045117614285714,-0.2070772157142857,-0.0161220054285714
332,3.320000477,-0.2468131999999999,0.053631175,-1.1487255,0.33138463,-0.20219044,0.04566083
333,3.330000477,-0.4615818,0.13073933,-1.522101,-0.1440290642857142,0.23761958,0.4812821985714285
334,3.340000477,-0.42106113,0.1915050699999999,-1.5599387,-0.7048159466666667,0.7976901833333333,0.9091952516666668
335,3.350000477,-0.3122917328571429,0.1808424271428571,-1.3986660714285717,-1.217898457142857,1.2908729099999998,1.2441431928571427
336,3.360000477,-0.1688513142857143,0.1443333257142857,-1.0856208142857142,-1.4470535000000002,1.509556257142857,1.3736428428571428
337,3.370000477,-0.0726363526666666,0.1364307133333333,-0.8174663999999999,-1.4180819,1.5119996666666669,1.3687559666666669
338,3.380000477,0.0995397837142857,0.1705238828571428,-0.5501453428571429,-0.9810643057142856,1.1496799428571427,1.1764263714285714
339,3.390000477,0.08802343,0.2300744,-0.6515929,-0.20860434,0.4734065999999999,0.77623415
340,3.400000477,-0.0860285385714285,0.2547448228571429,-1.0061520142857143,-0.0012653262857142,0.1969546114285714,0.6599986785714285
341,3.410000477,-0.2002301833333333,0.272881785,-1.37621345,-0.0554852946666666,0.15739498,0.6536575
342,3.420000477,-0.33953202,0.3562402700000001,-1.6170455,-0.5543438471428571,0.3292466671428571,0.7554653714285714
343,3.430000477,-0.2979268028571428,0.36355781,-1.3574572142857144,-1.0149227,0.52960455,0.9155073
344,3.440000477,-0.2119026,0.34941062,-1.1111319,-1.0597182,0.598961175,0.95724855
345,3.450000477,-0.1008334114285714,0.3071520628571428,-0.8559341228571428,-0.8828052,0.6459927857142856,0.9586156857142856
346,3.460000477,-0.103059875,0.2346986466666666,-0.7739425400000001,-0.4166996466666666,0.5206963866666667,0.86053108
347,3.470000477,-0.16650362,0.16613774,-0.87099594,0.1697719128571428,0.28910527,0.7531964857142858
348,3.480000477,-0.25315502,0.15171617,-1.1033266,0.54518116,0.14721419,0.7493568700000001
349,3.490000477,-0.2337113857142857,0.1594518071428571,-1.3386626285714287,0.6216243657142858,0.0257428485714285,0.7587813785714286
350,3.500000477,-0.24364227,0.17540658,-1.5064903,0.54884624,-0.08246438,0.7310315
351,3.510000477,-0.28879735,0.19735907,-1.6297292,0.12247488,-0.24250636,0.6919372
352,3.520000477,-0.39298025,0.21614066,-1.6485108,-0.1853921314285714,-0.3158080342857143,0.7003145371428571
353,3.530000477,-0.38180075,0.1937816266666666,-1.6056222166666665,-0.6423059,-0.41720867,0.7676823
354,3.540000477,-0.3166474,0.1624572128571428,-1.4812928571428572,-0.8517392142857142,-0.4339633499999999,0.7837388428571429
355,3.550000477,-0.2534773342857143,0.1613203842857142,-1.3025149857142857,-1.1999222,-0.4369303314285714,0.7600030714285715
356,3.560000477,-0.2382761,0.1780083566666666,-1.1359605666666666,-1.3631056499999998,-0.42942563,0.6907155349999999
357,3.570000477,-0.2729819342857142,0.1710509257142857,-0.9411132285714288,-1.4980156142857144,-0.4048172142857143,0.5278811014285714
358,3.580000477,-0.3804591799999999,0.1780896566666666,-0.8565947,-1.4856823,-0.40132666,0.4667382066666666
359,3.590000477,-0.4632413071428571,0.1836997442857142,-0.7438500428571428,-1.3487943285714283,-0.4898122442857143,0.5751781557142858
360,3.600000477,-0.39615116,0.1722356699999999,-0.63451874,-1.2604833,-0.58091575,0.62840915
361,3.610000477,-0.2018410414285714,0.1955471214285714,-0.7013171014285715,-0.9920596285714286,-0.9072827142857144,0.4863434971428572
362,3.620000477,-0.1206472799999999,0.21711633,-0.82998747,-0.8842013999999999,-0.9303204,0.3229855
363,3.630000477,-0.17726645,0.25519782,-1.0328041,-0.8145648,-0.6090147,0.12995775
364,3.640000477,-0.37536161,0.3395058857142857,-1.3942625285714283,-0.9098570142857144,-0.1377896862857142,0.0262882474285714
365,3.650000477,-0.54633269,0.38057099,-1.6282759333333334,-1.1244680166666667,0.311328472,-0.0097226516666666
366,3.660000477,-0.7523087142857143,0.42293411,-1.7288073285714287,-1.6036049428571428,0.8735552,0.0887691948571428
367,3.670000477,-0.7644348,0.45118487,-1.5545723,-1.9153116,1.1186141,0.26556584
368,3.680000477,-0.7270851,0.52146333,-1.1801908,-1.8737739,1.0489775,0.53800374
369,3.690000477,-0.5324599333333334,0.6148123050000001,-0.7805739916666666,-1.440072316666667,0.5784978166666667,0.77827029
370,3.700000477,-0.3672034857142857,0.6345274457142857,-0.5977352614285715,-0.8606401185714285,-0.0311532057142857,0.8874083585714285
371,3.710000477,-0.08939546,0.6959552,-0.51054806,0.09681929,-1.0085088,0.91672903
372,3.720000477,0.051649354,0.7176638,-0.7689778,0.5936417150000001,-1.3658544666666668,0.8760059216666667
373,3.730000477,0.1060514797142857,0.7159215142857143,-0.8991901214285714,0.8526991285714286,-1.439068885714286,0.8128850142857142
374,3.740000477,0.270783055,0.7093300166666667,-1.325280675,0.8290215166666667,-1.0915840833333337,0.589314875
375,3.750000477,0.3556740571428571,0.6776397428571429,-1.4835795857142855,0.5514641814285713,-0.6318778714285714,0.3421835428571428
376,3.760000477,0.3834892742857143,0.6152406285714286,-1.4677597857142857,0.2254462768571428,-0.1421528857142857,0.0535145857142857
377,3.770000477,0.295459305,0.530732185,-1.3190708,-0.0687203189999999,0.3745257325,-0.3746784549999999
378,3.780000477,0.00015244792,0.47460085,-1.1121075,-0.1867883642857142,0.6122871028571428,-0.8037440571428572
379,3.790000477,-0.504999,0.5185364,-1.0081381,-0.09987353,0.34512872,-0.9074136
380,3.800000477,-0.6200666571428571,0.5570316628571429,-0.9598164657142856,0.0015271181,0.009162709,-0.7632536
381,3.810000477,-0.6294836057142856,0.6128624285714286,-0.8856309785714285,0.1771020757142856,-0.2541997185714285,-0.5946380042857143
382,3.820000477,-0.5972604,0.6751918,-0.89294845,0.30695075,-0.35368055,-0.50654507
383,3.830000477,-0.5643012,0.6998579000000001,-0.97838026,0.36925718,-0.33779854,-0.46256408
384,3.840000477,-0.51468448,0.6925403933333333,-1.0065322866666666,0.3269051,-0.2848584466666666,-0.4731521133333333
385,3.850000477,-0.3897483371428571,0.67910756,-0.9938297857142856,0.2373141571428571,-0.20114328,-0.5413633928571429
386,3.860000477,-0.22533327,0.640418465,-0.913711885,0.156071465,-0.127667075,-0.81822987
387,3.870000477,-0.1623570314285714,0.5559296471428571,-0.8245907528571429,0.2004887957142857,-0.0479078757142857,-1.3641527999999998
388,3.880000477,-0.2801426528571428,0.4874631085714286,-0.8743367285714286,0.32597427,0.0126532639999999,-1.6681802285714284
389,3.890000477,-0.39740124,0.4362754499999999,-0.92981035,0.4242334,0.021379653,-1.8505617
390,3.900000477,-0.4962397628571429,0.4282261928571428,-0.9702918142857144,0.4467474999999999,0.0041014024285714,-1.8636513
391,3.910000477,-0.8439822,0.43359238,-1.1716537,0.434007,-0.117893524,-1.6831895999999995
392,3.920000477,-0.8607340285714286,0.4304562828571429,-1.189659957142857,0.3366204857142857,-0.1304595262857142,-1.5177372857142857
393,3.930000477,-0.8332142916666667,0.4452038166666667,-1.1243135833333333,0.2727433,-0.04214846,-1.3398934999999998
394,3.940000477,-0.7942406071428572,0.4337448314285714,-1.0743875857142855,0.3015403714285714,0.0128277935714285,-1.240412642857143
395,3.950000477,-0.7150025285714285,0.3867734457142857,-1.0278561285714285,0.3863608928571428,0.0784502414285714,-1.0967762285714286
396,3.960000477,-0.5892111933333334,0.3422354133333333,-0.98627706,0.52481959,0.1081199633333333,-0.9672766
397,3.970000477,-0.4319328628571428,0.2804170485714286,-0.9999059142857144,0.83472276,0.00671932,-0.87320614
398,3.980000477,-0.45179462,0.27056456,-1.2331512,1.1157125,-0.42453885,-0.8255601
399,3.990000477,-0.42593947,0.29864547,-1.4615792000000003,1.0448543,-0.6994201,-0.75714517
400,4.000000477,-0.34248948,0.3389222,-1.6780552999999998,0.7394306,-0.75317466,-0.7033906
401,4.010000477,-0.2646626571428571,0.3523027999999999,-1.7688444714285716,0.3038092485714285,-0.5803921799999999,-0.7054849685714286
402,4.020000477,-0.22483527,0.3677450333333333,-1.74472075,-0.2472913266666666,-0.253298,-0.747575255
403,4.030000477,-0.2280620971428571,0.3461351514285714,-1.5561274142857144,-0.7094990657142858,0.0367380985714285,-0.779484757142857
404,4.040000477,-0.227421815,0.31073458,-1.3535851,-0.99354305,0.22112671,-0.7730272149999999
405,4.050000477,-0.2091237057142857,0.2312460742857142,-0.9578738142857144,-1.1247006714285714,0.3426853185714286,-0.7117679471428572
406,4.060000477,-0.20043853,0.19809082,-0.4753936,-0.6220606785714285,0.1683320542857142,-0.50988293
407,4.070000477,-0.109640546,0.2078475,-0.3784977,-0.07177455,-0.06902574,-0.37704548
408,4.080000477,-0.044240385,0.23300138,-0.49393123,0.4214410071428571,-0.3967889314285714,-0.3780926428571428
409,4.090000477,-0.1110837215,0.2707475,-0.8253073383333334,0.7815791,-0.7680386383333334,-0.42102647
410,4.100000477,-0.13869712,0.26129574,-1.1145468,0.7741616285714287,-0.9777919285714286,-0.3810596028571428
411,4.110000477,-0.093054205,0.2073596599999999,-1.2290046,0.5793886,-0.8961129,-0.3538333
412,4.120000477,-0.0977931621428571,0.1945366142857142,-1.2133939714285713,0.4076532742857143,-0.7823207857142858,-0.3545313971428571
413,4.130000477,-0.1043092192857142,0.1711554514285714,-1.0869797857142856,0.1078145442857142,-0.5128499000000001,-0.3463285771428572
414,4.140000477,-0.1033800116666666,0.14611624,-0.9249320066666668,-0.0267754724999999,-0.2203122466666666,-0.315349895
415,4.150000477,-0.09371627,0.1006809571428571,-0.7629103885714287,0.0521401797142857,-0.0966011328571428,-0.2965881557142857
416,4.160000477,-0.10842097,0.1014388399999999,-0.7211396,0.2776301,-0.18386503,-0.27075803
417,4.170000477,-0.20068243,0.112689495,-0.9185901,0.34971005,-0.26205346,-0.1107160699999999
418,4.180000477,-0.21970794,0.07241276,-1.0523175,0.2519745,-0.21807247,0.16660859
419,4.190000477,-0.14211196,0.046283185,-1.0342677,0.07849387,-0.22662434,0.4732539
420,4.200000477,-0.1159998075714285,0.0450287571428571,-0.9903365571428572,0.07849387,-0.22662434,0.4732539
421,4.210000477,0.0977902623333333,0.0415674666666666,-0.6239388133333333,0.0035632766666666,-0.3760782966666666,0.8210296
422,4.220000477,0.1742523257142857,0.0331465321428571,-0.5005605671428571,0.1109560414285714,-0.32994478,0.8219603857142858
423,4.230000477,0.17662616,0.028965104,-0.49344343,0.33016294,-0.060473878,0.8092198999999999
424,4.240000477,0.2359995466666666,0.0253876593333333,-0.5225711433333333,0.45721918,0.1374406339999999,0.8222513
425,4.250000477,0.3162336185714286,0.0331813777142857,-0.6588102142857143,0.6263365857142856,0.3123174685714285,0.806951
426,4.260000477,0.22248249,0.10707942,-1.1470182,0.49753508,0.4379774999999999,0.92528087
427,4.270000477,0.3133153271428571,0.0704309357142857,-1.0733815,0.2294604114285714,0.4652038285714285,1.040469152857143
428,4.280000477,0.4165182,0.06533918,-0.8597758000000001,0.043413788,0.40795871,1.1067898285714286
429,4.290000477,0.50923705,0.013110521,-0.6696427000000001,0.0565033726666666,0.349811845,1.1075169333333337
430,4.300000477,0.5416692357142857,-0.0360473984285714,-0.5575281571428572,0.2678565,0.37200597,1.0560021
431,4.310000477,0.5844243,-0.07280912,-0.4885651,0.5647283,0.36467582,0.9936958
432,4.320000477,0.6235207285714285,-0.1014519114285714,-0.5653465857142858,0.7942323357142856,0.2250535914285714,0.9230120142857142
433,4.330000477,0.55651624,-0.1371421433333333,-0.7387219666666667,0.9943575833333332,-0.0458135466666666,0.8352827
434,4.340000477,0.43408892,-0.1377432221428571,-0.9322887142857142,0.9631752714285714,-0.2323837571428571,0.84848864
435,4.350000477,0.23373315,-0.052289635,-1.1450667,0.5457047571428572,-0.1576858599999999,1.0868935942857143
436,4.360000477,0.28105298,-0.044484302,-1.0667086,0.1499629999999999,0.2378231949999999,1.3614258166666666
437,4.370000477,0.4851937971428571,-0.0663714674285714,-0.8498057285714286,-0.1839959285714285,0.6953623185714287,1.6762740285714286
438,4.380000477,0.7191272999999999,-0.10866488,-0.636714,-0.31977853,1.0697463,1.9258487
439,4.390000477,1.0069271857142856,-0.14594057,-0.3964560514285714,-0.1407130248571428,1.0990669285714283,1.9520279
440,4.400000477,1.3158085,-0.13650186,-0.26794246,0.4083514,0.8718318000000002,1.748703
441,4.410000477,1.3780507857142854,-0.1368503171428571,-0.40897856,0.9361233999999998,0.5114755114285715,1.3486853142857145
442,4.420000477,1.0944105571428573,-0.1221194928571428,-0.9195222857142856,1.3131035142857144,-0.0020070671428571,0.8118378285714286
443,4.430000477,0.8254546733333333,-0.078317575,-1.1940229,1.2623159000000002,-0.159431135,0.6809419999999999
444,4.440000477,0.6176841171428572,-0.0864249,-1.3129642428571429,0.8788783042857143,-0.2058555291428571,0.7137532371428571
445,4.450000477,0.5736615,-0.16943061,-1.1523843,0.41445985,-0.0922379339999999,0.9069555
446,4.460000477,0.6012415071428572,-0.1784598842857143,-1.108174408571429,0.41445985,-0.092237934,0.9069555
447,4.470000477,0.7837245899999999,-0.23393642,-0.82485505,0.4340069666666666,0.2449497466666666,1.0796216333333335
448,4.480000477,0.8084966914285714,-0.2231227714285714,-0.8823598657142858,0.6963222571428572,0.3095250271428572,1.0305211428571428
449,4.490000477,0.8074860999999999,-0.17479677,-1.356634,0.66368556,0.211964,0.93138933
450,4.500000477,0.9464097428571429,-0.1802195771428571,-1.4058093571428572,0.4045118028571428,0.1753131642857142,0.81794628
451,4.510000477,1.0624270571428571,-0.1913787657142857,-1.4012011,0.1427201,0.1344736642857143,0.6594750942857143
452,4.520000477,1.051037,-0.19677977,-1.2605003,-0.3344388599999999,0.12644538,0.20570281
453,4.530000477,0.9600472857142855,-0.2244817414285714,-1.1581642285714284,-0.4314763114285714,0.14529438,0.0709673597142857
454,4.540000477,0.83370715,-0.240943935,-1.056464065,-0.5354076,0.149657575,-0.097888269
455,4.550000477,0.6322146142857142,-0.2405540971428571,-0.9348716657142856,-0.5543438928571428,0.1259217985714285,-0.1796545385714285
456,4.560000477,0.52559978,-0.2237732066666666,-0.8885681066666667,-0.5266521566666666,0.1162645933333333,-0.1363716499999999
457,4.570000477,0.53393358,-0.2088013814285714,-0.8415952371428571,-0.49221201,0.1372660992857143,-0.0271172548571428
458,4.580000477,0.6566542,-0.18434003,-0.8346219,-0.45660833,0.16187452,0.029778805
459,4.590000477,0.6908330000000001,-0.16894278,-0.80462015,-0.44316968,0.12888877,-0.0019852535
460,4.600000477,0.7733073,-0.16528404,-0.7301646,-0.36498123,0.12644538,-0.061848287
461,4.610000477,0.8606599,-0.16821103,-0.6757406600000001,-0.27824092,0.13621894,-0.11193776
462,4.620000477,0.8932924714285715,-0.1675141328571428,-0.6449374542857143,-0.1323356931428571,0.1194642714285714,-0.1992016514285714
463,4.630000477,0.8759555333333333,-0.14048584,-0.6842980566666667,0.2979916556666667,0.0107916346666666,-0.4218409233333333
464,4.640000477,0.80428475,-0.14333153,-0.91883403,0.66735065,-0.11300674,-0.57618165
465,4.650000477,0.7437629,-0.15430778,-1.1169859,0.7052231399999999,-0.1899735,-0.5958815
466,4.660000477,0.7015304771428571,-0.1235481457142857,-1.2916651,0.4769408228571428,-0.3093505028571429,-0.5308262428571429
467,4.670000477,0.746938157142857,-0.1188745308571428,-1.2378728571428572,0.154064414,-0.3650248628571429,-0.5185875085714285
468,4.680000477,0.7820883,-0.0879319599999999,-1.093326,0.028404398,-0.33046836,-0.5395308
469,4.690000477,0.813584,-0.064485475,-0.95493376,0.0346873974285714,-0.3974870228571428,-0.5793231942857142
470,4.700000477,0.8831308,-0.08573671,-0.91712666,0.12613995,-0.5870242,-0.6655181
471,4.710000477,0.9632574142857144,-0.11249785,-0.9265349257142858,0.19211146,-0.7434011,-0.8023479
472,4.720000477,1.0210250166666666,-0.1579563666666666,-1.02115719,0.175007735,-0.76355907,-0.89764005
473,4.730000477,0.9977585714285714,-0.20063453,-1.1375489857142858,0.0793665085714285,-0.7434011114285715,-1.0489556142857144
474,4.740000477,0.9283207428571428,-0.2114147857142857,-1.2859635285714286,-0.37964156,-0.4758500199999999,-1.1590827
475,4.750000477,1.0244195,-0.1836082799999999,-1.2980635,-0.9575031,-0.16187452,-1.2568183
476,4.760000477,1.0095754357142857,-0.1724098842857143,-1.233852442857143,-1.129936528571429,-0.0857804062857142,-1.3405915571428573
477,4.770000477,0.8887103916666668,-0.1733332816666666,-0.8964445333333333,-1.4050505333333334,0.034818293,-1.5231476333333334
478,4.780000477,0.69815046,-0.20946345,-0.34093451,-1.2182476,-0.0308041557142857,-1.5976709285714286
479,4.790000477,0.569271,-0.20995127,-0.20620105,-0.62642384,-0.31336465,-1.5231476
480,4.800000477,0.46850294,-0.22458628,-0.31578064,-0.1321611654285714,-0.54583567,-1.3639782285714286
481,4.810000477,0.4602925542857142,-0.2369781085714286,-0.41271574,0.0814608458571428,-0.6341467314285715,-1.2662426857142857
482,4.820000477,0.4056029466666667,-0.1792889133333333,-0.7804519933333333,0.3289412533333333,-0.64688725,-0.9970045333333334
483,4.830000477,0.3192346657142857,-0.0755923888571428,-1.0835475,0.2263189128571428,-0.4854490428571428,-0.7459754142857143
484,4.840000477,0.33035463,0.04018527,-1.2412004,-0.22631892,-0.1692046933333333,-0.4625895333333333
485,4.850000477,0.4736469985714286,0.1073494671428571,-1.135358,-0.75714517,0.24128467,-0.23044212
486,4.860000477,0.5583303433333333,0.1582053666666666,-0.9391503,-0.9566886116666669,0.4214846116666667,-0.2385867616666666
487,4.870000477,0.5704906,0.16613774,-0.90343684,-0.9965973,0.4575246,-0.24021569
488,4.880000477,0.714837,0.0495455742857142,-0.5741841885714286,-0.6992019557142858,0.2554214198571428,-0.5664735371428572
489,4.890000477,0.7211549166666668,-0.0482599274999999,-0.3945403066666667,-0.1051675383333333,-0.1066946478333333,-1.1165269166666667
490,4.900000477,0.18418758,-0.07719963,-0.75775766,0.36437038,-0.24983653,-1.2274976
491,4.910000477,-0.0976886283333333,0.0200113283333333,-0.92227436,0.3776054133333333,-0.139884025,-0.9963936833333332
492,4.920000477,-0.2426143485714285,0.1541596914285714,-0.9961427,0.2702999128571429,-0.0341201834714285,-0.6010082571428572
493,4.930000477,-0.18017821,0.22944936,-0.9307861,0.1737860466666666,0.0083482454933333,-0.2927485543333333
494,4.940000477,0.2593356914285714,0.2602503742857142,-0.641583642857143,0.1062437914285714,0.0280117095714285,0.2460187248571428
495,4.950000477,0.57735074,0.22592781,-0.43340942,0.2495311228571428,0.0679785745714285,0.2070990314285714
496,4.960000477,0.6627521,0.17882141,-0.37776592,0.4718795083333333,0.131535771,-0.0524819633333333
497,4.970000477,0.79940635,-0.01984872,-0.4053590000000001,0.9935431,0.15576605,-0.7632536
498,4.980000477,0.4577401300000001,-0.05668014,-0.67305756,1.2965233,0.033596598,-1.3301198
499,4.990000477,0.012134855,-0.064485475,-0.96447706,1.3270657,-0.05803049,-1.5891192
500,5.000000477,-0.40057215,-0.031312805,-1.1628727,1.1144909,0.009162709,-1.4864968
501,5.010000477,-0.7036735071428571,0.0337345475714285,-1.3126463285714287,0.8181426371428573,0.1756622127142857,-1.0655357971428572
502,5.020000477,-0.7658983733333334,0.0738660976666666,-1.4119625333333332,0.4388937533333334,0.3377985433333333,-0.5733819566666667
503,5.030000477,-0.6326414514285714,0.0891384742857142,-1.3803288428571427,-0.23181652,0.6229333071428572,0.09103806
504,5.040000477,-0.44008666,0.14000817,-1.0803984,-0.6398625000000001,0.70934635,0.3645231
505,5.050000477,-0.1753151,0.15415533,-0.708456,-0.7033906,0.55785626,0.33520243
506,5.060000477,-0.0780446257142857,0.1698618214285714,-0.531477,-0.5349712857142858,0.4137617528571429,0.1816179799999999
507,5.070000477,-0.1238182,0.1932125,-0.4727105199999999,-0.120642334,0.13988402,-0.13759334
508,5.080000477,-0.2488951942857142,0.18840386,-0.5800164314285714,0.1348663494285714,0.013176848,-0.2538288542857143
509,5.090000477,-0.390785,0.105372004,-0.6984554,0.39613444,-0.048256934,-0.22311196
510,5.100000477,-0.4916096857142857,0.0285905191428571,-0.7842269685714286,0.6453601342857143,0.0679785751428571,-0.0482351165714285
511,5.110000477,-0.6525424228571428,-0.0003048957428571,-0.9953630042857142,0.9696327071428572,0.2224356742857142,0.2720233748571428
512,5.120000477,-0.7117081866666667,-0.0262616930666666,-1.2315353333333334,1.1201920666666667,0.2400629733333333,0.5730256333333333
513,5.130000477,-0.6613103857142857,-0.0931500321428571,-1.6044664571428573,0.9945902485714286,0.0213796528571428,0.9357525857142858
514,5.140000477,-0.5809181,-0.117689796,-1.9147763,0.6343649,-0.23517619,1.0498937
515,5.150000477,-0.5773638200000001,-0.102218508,-2.0055654714285716,0.1694228514285714,-0.3419872042857143,1.038374814285714
516,5.160000477,-0.50304765,-0.04326472,-1.9855427,-0.5274666,-0.37811446,1.0633323
517,5.170000477,-0.4466724,0.04704543,-1.7798294,-1.0784508,-0.35123718,1.1036483
518,5.180000477,-0.39910865,0.14293517,-1.5526211,-1.4999354,-0.37689275,1.1916103
519,5.190000477,-0.34761176,0.18540716,-1.4493834,-1.7491611,-0.3463504,1.2954544
520,5.200000477,-0.1868880885714285,0.23682566,-1.2400288285714287,-1.9402690285714288,-0.2163271857142857,1.3661381142857143
521,5.210000477,0.0154937883333333,0.2358470933333333,-0.968776,-2.060693266666666,-0.0910162386666666,1.3382135999999998
522,5.220000477,0.1270021785714285,0.1428393514285714,-0.7312970571428572,-1.9507408,0.0356909302857142,1.1247661142857142
523,5.230000477,-0.0385998116666666,0.06461251,-0.5484923500000001,-1.6477604999999995,0.12725984,0.9668185
524,5.240000477,-0.2253354371428571,0.07387626,-0.5223606199999999,-1.1014884785714285,0.0564597371428571,0.8788564714285715
525,5.250000477,-0.3308076342857143,0.1333832157142857,-0.7089568371428571,-0.3527642842857142,-0.5866751594285714,0.9092243071428572
526,5.260000477,-0.36029541,0.19589557,-1.0630498,0.2104368799999999,-1.5521629,0.90817714
527,5.270000477,-0.3694945757142857,0.2486077042857143,-1.375794571428571,0.1685502114285714,-2.0317651857142858,0.8254509657142857
528,5.280000477,-0.4027623449999999,0.3188041766666666,-1.6593346166666667,-0.1642161,-2.23590465,0.68745767
529,5.290000477,-0.4377520085714286,0.4296113199999999,-1.8196401714285717,-0.9644842771428572,-1.9455484857142855,0.4584190557142857
530,5.300000477,-0.5232796542857143,0.6131847685714286,-1.6976512714285714,-1.5508976,-1.4793847714285715,0.2264716228571428
531,5.310000477,-0.5391778228571428,0.7027413685714287,-1.380951642857143,-2.0017029,-0.9584193714285716,-0.0691784514285714
532,5.320000477,-0.4929708333333333,0.5411291666666667,-0.7192289666666666,-2.3196924,-0.117893524,-0.89397496
533,5.330000477,-0.7488242000000002,0.4709421,-0.24501431,-2.021249971428571,0.1247001002857143,-1.1479129171428573
534,5.340000477,-0.99627763,0.4753326,-0.0048783333,-1.1480874,0.24372806,-1.2983558
535,5.350000477,-1.2312914,0.4804549000000001,-0.051252995,-0.3134955342857143,-0.0086391228571428,-1.1203374285714285
536,5.360000477,-1.3198941,0.44825786,-0.31821978,0.7040015,-0.519831,-0.6190937
537,5.370000477,-1.1527197,0.4296897,-0.6332992,1.341726,-0.9425373,-0.13514996
538,5.380000477,-0.9106019,0.45191658,-0.9700871,1.6984608,-1.1905413,0.184934
539,5.390000477,-0.6665763285714286,0.4322072585714286,-1.3481796714285714,1.5780366,-1.1151453857142857,0.3032638571428571
540,5.400000477,-0.5088145285714286,0.4187482942857143,-1.5809982,1.4104899714285717,-0.9926268285714286,0.2968063285714286
541,5.410000477,-0.4025844833333333,0.42099,-1.70880905,0.8791110166666667,-0.6014809666666666,0.1499120983333333
542,5.420000477,-0.3981685583333333,0.43042146,-1.7136162,-0.042453885,-0.0030542363,-0.16202724
543,5.430000477,-0.5540567,0.43554372,-1.4523103,-0.677036895,0.3676427919571429,-0.3358569171428571
544,5.440000477,-0.7002761,0.4278080485714285,-1.2046390428571427,-1.0489556371428572,0.5647937514285715,-0.3883897728571429
545,5.450000477,-0.8710874299999999,0.4663077,-0.8692885,-1.277587,0.6885776,-0.29030517
546,5.460000477,-0.9245356514285712,0.5028647142857142,-0.5209494314285714,-1.067630107142857,0.7151057957142858,-0.0779048407142857
547,5.470000477,-0.91429114,0.5290248,-0.30529222,-0.65085775,0.69102097,0.15194826
548,5.480000477,-0.85778962,0.5551586914285714,-0.2709783742857142,-0.1073782205714285,0.6219079385714286,0.34043826
549,5.490000477,-0.7716173314285715,0.6017729057142857,-0.3863901428571429,0.4994549001428571,0.6229551571428572,0.5069377657142856
550,5.500000477,-0.6709639616666667,0.6655775,-0.5652006833333333,0.95098735,0.6596641249999999,0.5620303583333333
551,5.510000477,-0.5189501385714286,0.7064088614285715,-0.78376527,1.2104811142857144,0.5589906785714286,0.4708105171428571
552,5.520000477,-0.32514092,0.72083473,-1.0840572,1.3356175,0.16065283,0.13606623
553,5.530000477,-0.2036181542857142,0.6620595614285715,-1.1915722285714287,1.125486,-0.17775655,-0.23166382
554,5.540000477,-0.09286111,0.5660289916666666,-1.2176218166666668,0.8444963,-0.40132666,-0.7033906
555,5.550000477,-0.0689064571428571,0.4753718357142857,-1.2100487857142856,0.5476246,-0.45263782,-1.2006203
556,5.560000477,-0.13259919,0.32157364,-1.1997347,0.25686127,-0.3500155,-1.6404303
557,5.570000477,-0.32440916,0.197603,-1.1965637,-0.0009162709,-0.1105633499999999,-1.9568492
558,5.580000477,-0.5731126699999999,0.16955258,-1.1392128,-0.23181653,0.07146913,-2.125443
559,5.590000477,-0.749012195,0.169146055,-1.0450508,-0.3641667799999999,0.1203369133333333,-2.148858833333333
560,5.600000477,-0.9343838428571428,0.1571215357142857,-0.9444192,-0.4042499899999999,0.0829879614285714,-2.0833817714285714
561,5.610000477,-1.0438719333333333,0.1004733466666666,-0.8720427733333334,-0.3698680166666666,-0.0454063166666666,-1.8208338666666668
562,5.620000477,-1.0480185,0.008963938,-0.7218714,-0.23303823,-0.20096874,-1.346002
563,5.630000477,-0.8884054999999998,-0.0017683958,-0.5998521,0.01007898,-0.26449686,-1.0137011
564,5.640000477,-0.7438587542857142,0.0298013891714285,-0.6021518142857143,0.2865310114285714,-0.2833458685714285,-0.8231166714285714
565,5.650000477,-0.6580262,0.09241393,-0.72553015,0.5891622,-0.2779355,-0.6765133
566,5.660000477,-0.6383560628571429,0.1200287814285714,-0.8389165785714285,0.6554827371428571,-0.2130111571428571,-0.6325323285714285
567,5.670000477,-0.6097002,0.17979708,-1.1189373,0.6142941814285715,0.1142284328571428,-0.4915357185714285
568,5.680000477,-0.5833572,0.20004216,-1.2172967,0.44255883,0.34879377,-0.38681903
569,5.690000477,-0.5404714285714286,0.2042235857142857,-1.2225233857142856,0.2456914928571428,0.57092403,-0.2716306957142857
570,5.700000477,-0.5051717466666666,0.18556977,-1.1700377666666666,0.0915252806666666,0.7512912133333334,-0.1441090533333333
571,5.710000477,-0.5088929028571428,0.1723401985714285,-0.9851968628571428,0.040621344,0.8840487,0.11163234
572,5.720000477,-0.49085182,0.15025267,-0.8709959399999999,0.1465015323333333,0.8697955916666666,0.2714706983333333
573,5.730000477,-0.4197413714285714,0.1063215357142857,-0.8473447628571428,0.3017149214285713,0.8428601385714286,0.4500417271428571
574,5.740000477,-0.2795764057142857,0.0646727595714285,-0.8314161357142857,0.48043138,0.794865,0.5795413
575,5.750000477,-0.17604686,0.036770437,-0.84242725,0.64291674,0.6959076999999999,0.5624376
576,5.760000477,-0.2201870685714285,0.0633486481428571,-1.00999795,0.729307997142857,0.6199881285714286,0.5135698357142857
577,5.770000477,-0.29163287,0.06582701,-1.156205666666667,0.6921917666666667,0.6425604333333333,0.56488101
578,5.780000477,-0.3452379142857142,0.0527252002857142,-1.262203414285714,0.5589688857142858,0.7213888142857143,0.6882721642857142
579,5.790000477,-0.32409411,0.0336096843333333,-1.2537316333333333,0.3570402333333333,0.8001590266666666,0.8617527933333333
580,5.800000477,-0.2118764714285714,0.0307770562857142,-1.1255317,0.1392295471428571,0.8526336885714285,1.0472758314285715
581,5.810000477,0.1908081714285714,0.0522330125714285,-0.7388671857142857,0.1641870171428571,0.59431075,0.9847948085714286
582,5.820000477,0.31703069,0.0365366846666666,-0.6380047000000001,0.4242334,0.3219165,0.68216366
583,5.830000477,0.2822900042857142,-0.0265390045714285,-0.7685030085714286,0.6567044285714285,0.1302849942857142,0.3774381457142857
584,5.840000477,0.14464259,-0.03741072,-0.9602999,0.7846333,0.04459185,0.06642964
585,5.850000477,-0.07695571,0.023842854,-1.1684829,0.6465818,0.211964,0.0151184695
586,5.860000477,-0.2300744157142857,0.0995789871428571,-1.328919042857143,0.26907822,0.6140542,0.2582357
587,5.870000477,-0.1980450916666666,0.134763971,-1.41770465,-0.1860029883333333,1.2391545333333334,0.71637115
588,5.880000477,0.0019121328571428,0.0767074385714285,-1.269738757142857,-0.8131685757142856,1.7641922857142855,1.0540824628571428
589,5.890000477,0.1703453046666666,0.0129580724,-0.8910784333333334,-0.9860093,1.91129015,1.1918139166666666
590,5.900000477,0.3183243271428572,-0.0066118839428571,-0.5047724857142857,-0.7597631128571428,1.6907161285714287,1.2436195428571428
591,5.910000477,0.6859677285714286,0.035119644,-0.0193086214285714,0.2947337914285714,0.7363763814285714,1.0998086657142856
592,5.920000477,0.7641807666666667,0.0548456811666666,-0.27523455,1.3062968,-0.07146913,0.71026266
593,5.930000477,0.5661001,0.0389656869999999,-0.7338233,1.821852,-0.44042087,0.35963634
594,5.940000477,0.3167715166666667,0.0290057569999999,-1.1033571333333334,1.80597,-0.459968,0.2521272
595,5.950000477,0.0516667757142857,0.0213688415714285,-1.4197083,1.5223622857142856,-0.3229636785714285,0.3228109642857142
596,5.960000477,-0.1164041491666666,0.0629355783333333,-1.5634245333333334,0.8795182583333333,-0.0319676741666666,0.58117027
597,5.970000477,-0.093058568,0.0800090242857142,-1.5207114714285714,0.1339937128571428,0.3817795517142857,0.97624298
598,5.980000477,0.1072710762857142,0.0647119651428571,-1.2835939714285711,-0.48208939,0.8594185000000001,1.316921257142857
599,5.990000477,0.3145915133333333,-0.0328474456666666,-0.7957832166666666,-0.8170082416666666,1.5081309333333337,1.5418293500000002
600,6.000000477,0.3510483371428571,-0.0629522768571428,-0.4315626285714286,-0.6965840285714285,1.7551169000000002,1.6246136714285715
601,6.010000477,0.2959624,-0.0020123124,-0.11397006,-0.057114217,1.6720417,1.7719151999999998
602,6.020000477,0.34377006,0.004085604,-0.21742123,0.498931289,1.3893067,1.9174713428571428
603,6.030000477,0.4057859,-0.056436222,-0.52006084,1.0521845,0.9842276599999998,2.0431314
604,6.040000477,0.4145668828571428,-0.0798783574285714,-0.7967930285714286,1.1188540914285716,0.7421575885714286,2.1228906285714286
605,6.050000477,0.4765522,-0.09988388,-1.036219,0.97521764,0.60916746,2.1982865
606,6.060000477,0.6026745142857143,-0.1645130771428571,-1.0169583142857144,0.6683978342857142,0.6981765857142858,2.1909563857142857
607,6.070000477,0.6992219571428572,-0.23157709,-0.9125053142857144,0.4465729771428571,0.8805581485714286,2.1070086714285714
608,6.080000477,0.7279083066666666,-0.2521793433333333,-0.8575602333333333,0.3886006566666666,0.9532780166666668,2.0677689999999997
609,6.090000477,0.9104668742857144,-0.2450709085714285,-0.6741421285714286,0.3696062142857143,0.9884162857142856,1.6909343142857145
610,6.100000477,0.9847424333333332,-0.2773840833333333,-0.6006651066666667,0.4555902599999999,0.77572512,1.2881242000000002
611,6.110000477,0.9329202,-0.39298025,-0.6823569,0.594049,0.27304873,0.8959602
612,6.120000477,0.9356034,-0.48694915,-0.7440983,0.62336963,0.13866232,0.7933379
613,6.130000477,0.9475204285714286,-0.5143375128571428,-0.7512067228571429,0.6685723,0.26694027,0.7640172
614,6.140000477,0.8996815750000001,-0.5221544566666667,-0.8510252766666667,0.7353582733333334,0.4575245899999999,0.7835643333333334
615,6.150000477,0.7897281042857143,-0.5146510971428572,-1.006517777142857,0.7750342714285715,0.6482398500000001,0.8509320714285715
616,6.160000477,0.6859242,-0.46667355,-1.2031493999999998,0.59073292,0.6243513571428572,0.9809552142857142
617,6.170000477,0.7320549,-0.42740297,-1.2529389,0.24708772,0.38177955,1.088988
618,6.180000477,0.9709451571428572,-0.4079332014285714,-1.1579683285714286,0.0784938742857142,0.1859593671428571,1.0450069714285717
619,6.190000477,1.1830263666666667,-0.3613676233333333,-1.0471648166666665,-0.0890818916666666,-0.1907879716666667,0.6823673
620,6.200000477,1.2550428,-0.32904357,-1.0747578,-0.24892026,-0.3463504,0.2545706
621,6.210000477,1.1986674,-0.333678,-1.0693917,-0.41751412,-0.2596101,-0.08994726
622,6.220000477,1.0685728285714289,-0.3169522885714285,-1.0137525857142855,-0.5766834228571429,-0.14023308,-0.3224182714285714
623,6.230000477,0.9446283,-0.327824,-0.8651419,-0.7047868485714286,-0.07321441,-0.5276629771428571
624,6.240000477,0.7825761400000001,-0.39541942,-0.7086999,-0.7084810333333333,-0.1264453766666666,-0.6736372666666667
625,6.250000477,0.6351328485714286,-0.4307089242857143,-0.7013824285714286,-0.5217072057142857,-0.4100530385714286,-0.6667179642857144
626,6.260000477,0.5509773,-0.4276469,-0.7111391,-0.3771982,-0.62367505,-0.55663455
627,6.270000477,0.5763010199999999,-0.41152226,-0.7521431857142857,-0.2735286571428571,-0.7262973785714285,-0.4812385671428571
628,6.280000477,0.6051166066666667,-0.3968422616666666,-0.7933542583333333,-0.2236719,-0.7515457333333333,-0.4411844283333333
629,6.290000477,0.86225412,-0.3867385814285714,-0.8888062185714285,-0.2265807085714286,-0.7447973228571428,-0.5236488228571429
630,6.300000477,0.82187724,-0.3478251699999999,-0.9415183700000002,-0.29290125,-0.7739435,-0.7705838000000002
631,6.310000477,0.7212223985714286,-0.3310646171428572,-1.0069184671428573,-0.4269385928571428,-0.7320568142857143,-0.8784419685714286
632,6.320000477,0.6444583,-0.34148335,-1.0332919,-0.67895675,-0.5699205,-0.9232956
633,6.330000477,0.6033736083333334,-0.374844025,-0.8339917333333333,-0.8605819833333334,-0.4119146733333333,-0.915151
634,6.340000477,0.5934144057142857,-0.3853491385714286,-0.7020749142857142,-0.9273097428571428,-0.2931194257142857,-0.8953711628571429
635,6.350000477,0.592920775,-0.3439682216666666,-0.4740825333333333,-0.6765133,-0.24617144,-0.8182299
636,6.360000477,0.6219875,-0.32538486,-0.5061576,-0.1047602997142857,-0.2807279514285715,-0.6674379
637,6.370000477,0.6251235542857143,-0.3368837657142857,-0.6180630857142857,0.1601728695714286,-0.3336098785714286,-0.5856279714285714
638,6.380000477,0.6775598500000001,-0.3335967033333333,-0.8760368866666667,0.32364723,-0.4432714966666666,-0.4898485966666666
639,6.390000477,0.8162584428571428,-0.3266044128571428,-1.1178744185714284,0.3127101542857143,-0.5706185757142858,-0.4571537242857143
640,6.400000477,0.8391953166666667,-0.32481569,-1.15926475,0.2619516575,-0.5913001166666667,-0.4762063333333333
641,6.410000477,0.8701117142857143,-0.31716136,-1.2634970285714286,-0.1428073607142857,-0.5765525342857144,-0.5669316771428571
642,6.420000477,0.915719,-0.3122539933333333,-1.2244160166666669,-0.7632536666666666,-0.4108966033333333,-0.57638527
643,6.430000477,0.9883503285714286,-0.3158372371428571,-1.014536542857143,-1.0377858714285713,-0.2870109471428571,-0.6330341142857143
644,6.440000477,1.0354001285714287,-0.3395363428571428,-0.7540160857142857,-1.1603044,-0.18386503,-0.7107208
645,6.450000477,1.0588423,-0.382004,-0.5808266,-1.0356915,-0.16187452,-0.8145648
646,6.460000477,1.0084299571428572,-0.3993569428571429,-0.5341775,-0.8283524999999999,-0.1870065228571428,-0.8899608
647,6.470000477,0.991490775,-0.4429272666666666,-0.6278821416666667,-0.5983248666666666,-0.1830505633333333,-0.9416210466666666
648,6.480000477,0.9875532642857144,-0.4640427571428571,-0.6947487028571429,-0.4735375142857143,-0.1318557428571428,-0.9751304057142856
649,6.490000477,0.9600103,-0.503428775,-0.8833137,-0.5981213,0.2249954016666666,-0.9216667166666668
650,6.500000477,0.8909012857142857,-0.5864540985714285,-1.1259542,-0.9770502,0.6458183,-0.7937959999999998
651,6.510000477,0.8050382214285714,-0.5919552842857143,-1.024284607142857,-1.3655491000000002,0.8669449699999999,-0.645971
652,6.520000477,0.71132195,-0.47524115,-0.80486405,-1.657534,0.86938834,-0.5322007
653,6.530000477,0.6960423471428571,-0.3212774542857143,-0.4673138728571429,-1.6774301714285715,0.6850869914285713,-0.4986913428571428
654,6.540000477,0.77647823,-0.20043853,-0.17839456,-1.4144168,0.1899735,-0.559078
655,6.550000477,0.8193596371428572,-0.17532818,-0.1084862957142857,-1.013351942857143,-0.2676383571428571,-0.6492652000000001
656,6.560000477,0.8565830571428572,-0.1324598142857142,-0.1493336299999999,-0.5412543085714285,-0.6601513485714285,-0.6978057142857143
657,6.570000477,0.8764180666666667,-0.0816358558333333,-0.3729333616666666,-0.1906861599999999,-0.7576542066666668,-0.7257883499999999
658,6.580000477,0.8719802914285715,-0.0771647784285714,-0.5613698257142857,-0.0220341342857142,-0.6043024657142857,-0.7826262142857142
659,6.590000477,0.7486564800000001,-0.0222878844999999,-0.74347326,-0.1285833499999999,-0.2938175315,-0.8634326
660,6.600000477,0.26739365,0.2234886599999999,-0.94932365,-0.5585325714285714,0.3864917881428572,-0.9093334
661,6.610000477,0.08338901,0.30132854,-0.74385434,-0.9241100916666666,0.7124006116666667,-0.6327105000000001
662,6.620000477,0.2373919,0.32352498,-0.3787416,-0.94039935,0.64826167,-0.4808895
663,6.630000477,0.47289345,0.30132854,-0.08906007,-0.6115889785714286,0.3685372385714285,-0.5763125828571428
664,6.640000477,0.4555449,0.21175015,-0.08906007,0.073607095,-0.054365408,-0.8365553
665,6.650000477,0.3356946685714285,0.1186611014285714,-0.3133153242857142,0.63925165,-0.23151112,-0.9550597
666,6.660000477,0.1402012633333333,0.075705635,-0.6164841166666667,0.8998798166666667,-0.1571913616666666,-0.9265534833333332
667,6.670000477,-0.0097828028571428,0.0737020385714285,-0.8432809142857144,0.9947647714285716,0.0199834328571428,-0.7882111400000001
668,6.680000477,-0.1248751733333333,0.09380629,-0.9678918333333334,0.9587247800000002,0.240062965,-0.55487839
669,6.690000477,-0.4418071428571428,0.2730559928571429,-1.2750439,0.5338368657142858,0.8173572800000001,0.4411408028571428
670,6.700000477,-0.2976901333333333,0.3581052383333333,-1.1522522000000002,0.2145091933333333,0.9365815733333336,0.9151001166666668
671,6.710000477,0.0579607,0.3741507542857142,-0.7786996428571429,-0.0145294385714285,0.8065583671428571,1.1678744857142858
672,6.720000477,0.4704760357142857,0.3628957414285714,-0.4466985528571429,0.2451679042857142,0.2664166557142857,0.8737951428571428
673,6.730000477,0.70644367,0.3477032199999999,-0.33090347,0.65879875,-0.22784603,0.388957
674,6.740000477,0.6491319528571429,0.2675765885714286,-0.4798407242857143,1.0525335357142855,-0.7262973757142858,-0.1597583685714285
675,6.750000477,0.532805465,0.223595365,-0.6883176,1.2360494999999998,-0.9242119,-0.47485739
676,6.760000477,0.3169000228571428,0.1715387514285714,-0.9920788142857144,1.353943,-0.9650514057142858,-0.7836734214285714
677,6.770000477,-0.0143910866666666,0.1387174466666666,-1.3040191666666667,1.140553666666667,-0.60657132,-0.7367836
678,6.780000477,-0.2245906371428571,0.1558801828571428,-1.537489557142857,0.53296425,-0.0039268714285714,-0.3741221214285714
679,6.790000477,-0.26120427,0.1985568842857143,-1.5834068714285716,0.0247393214285714,0.3266287571428571,-0.1381169265714285
680,6.800000477,-0.11479328,0.17126,-1.2646469,-0.5421269583333334,0.508428555,0.0016798293333333
681,6.810000477,-0.0456908181714285,0.0581305698571428,-1.00853875,-0.5721457257142857,0.4781188828571428,-0.0721454228571428
682,6.820000477,-0.20336552,-0.006890646,-0.9117605,-0.3307738,0.3048128,-0.2365506
683,6.830000477,-0.3529779,0.0282333549999999,-1.045,-0.0543217754285714,-0.0082900668571428,-0.2480694342857143
684,6.840000477,-0.5849426657142857,0.0479122004285714,-1.2824267714285713,0.1645360745714285,-0.3463503939999999,-0.1389895657142857
685,6.850000477,-0.76311871,0.0418164646666666,-1.5444701499999998,0.1220676433333333,-0.4235207716666667,0.3997486466666666
686,6.860000477,-0.7466812114285715,0.0635141582857142,-1.6524178,0.005715785,-0.2330818585714285,0.8607055857142856
687,6.870000477,-0.45644433,0.1273245,-1.68964125,-0.1890572235,0.143549115,1.32844005
688,6.880000477,-0.0799131985714285,0.1952117371428571,-1.6805292714285716,-0.4456130885714286,0.5275757028571428,1.6450334714285713
689,6.890000477,0.1610459833333333,0.2624340249999999,-1.71373315,-0.92207396,0.7936432999999999,1.3650910000000005
690,6.900000477,0.1248287157142857,0.2958186528571428,-1.639703685714286,-1.2550728800000002,0.9433881628571428,1.120054
691,6.910000477,0.07509585,0.36550912,-1.3934959000000002,-1.6062229,0.95246357,0.80311143
692,6.920000477,0.0997662762857143,0.3632093457142857,-1.1681953,-1.703783928571429,0.5463155885714286,0.4587681214285714
693,6.930000477,0.011159187,0.36843613,-0.90221727,-1.6221049,0.16187452,0.22524993
694,6.940000477,-0.23852001,0.40383455,-0.81632805,-1.3985348,-0.23028941,0.15927842
695,6.950000477,-0.5631557014285714,0.4391675985714285,-0.9960249214285714,-1.1639694285714286,-0.4910339385714285,0.5341641114285715
696,6.960000477,-0.6325318083333333,0.44731779,-1.1422922333333332,-1.1228391166666667,-0.56910601,0.7748088433333332
697,6.970000477,-0.427372498,0.3893911985714285,-1.1641881285714284,-1.1966061857142858,-0.62227884,1.0495447428571427
698,6.980000477,-0.040093806,0.31742707,-1.0681721,-1.3227898,-0.57725066,1.3418788
699,6.990000477,0.1856307573333333,0.3029953199999999,-1.0559762666666666,-1.3360248,-0.4947862766666666,1.2848663
700,7.000000477,0.4633806999999999,0.3591673,-0.97691673,-1.2983558,-0.5247178,0.91428566
701,7.010000477,0.3612188214285714,0.4478919928571429,-0.9403074728571428,-1.2076013714285714,-0.7411322642857143,0.5722111742857142
702,7.020000477,0.10851243,0.5717407,-0.99423486,-1.1042809714285715,-1.1680271785714285,0.1913915342857143
703,7.030000477,0.033355605,0.56637454,-0.9832586,-1.0637906,-1.399451,0.027335415
704,7.040000477,-0.0118299578571428,0.6182503342857143,-0.8811794514285713,-0.8920551714285715,-1.3607059142857143,-0.1255509321428571
705,7.050000477,-0.070928935,0.6610649933333334,-0.83845342,-0.7738416833333334,-1.33795915,-0.2172070983333333
706,7.060000477,-0.1312968628571428,0.6760411742857143,-0.844848942857143,-0.6379427171428571,-1.3333050714285717,-0.3121211371428571
707,7.070000477,-0.2585109983333333,0.56566305,-1.0280732333333331,-0.451721555,-1.3862160666666667,-0.6534793166666667
708,7.080000477,-0.4606235314285714,0.5393041128571429,-1.1255622428571428,-0.4562592742857143,-1.3699558857142855,-0.7435320285714286
709,7.090000477,-0.75882477,0.54634285,-1.2534268,-0.54212695,-1.3432531,-0.6728483
710,7.100000477,-0.7827285999999999,0.57271636,-1.2600125,-0.69850385,-1.4348803,-0.48944137
711,7.110000477,-0.7099455657142857,0.5955051228571427,-1.1775861285714286,-0.8513901500000001,-1.580436442857143,-0.3218947042857142
712,7.120000477,-0.5354478866666667,0.6229021966666667,-1.0667085333333333,-0.9615754,-1.6845132000000005,-0.2149673399999999
713,7.130000477,-0.1971935657142857,0.6313913471428572,-0.9171571528571428,-1.1449459857142856,-1.6146438571428572,-0.3697371185714286
714,7.140000477,-0.15699086,0.62860376,-0.8138889700000002,-1.2641484,-1.3713521,-0.6374191
715,7.150000477,-0.2120027942857142,0.6336214828571428,-0.7712122814285715,-1.316506714285714,-1.244644957142857,-0.7567961285714286
716,7.160000477,-0.3975028916666667,0.6631179616666666,-0.6974034750000001,-1.4138060166666666,-1.0056581833333331,-0.9640187166666668
717,7.170000477,-0.6158155514285715,0.6948315,-0.6157240771428573,-1.4830062428571429,-0.7805755428571429,-1.0538423571428572
718,7.180000477,-0.8949041,0.7770488428571429,-0.3947137857142856,-1.4379781,-0.4706141885714286,-0.9288805
719,7.190000477,-0.9877406,0.90069276,-0.1422644,-1.085781,-0.12033691,-0.5004366
720,7.200000477,-0.8877870142857143,0.9029054428571428,-0.1129421308571428,-0.7742488785714287,-0.0644880171428571,-0.2997296571428571
721,7.210000477,-0.7507755,0.8750815,-0.15275282,-0.20738265,0.04214846,-0.03863609
722,7.220000477,-0.6140950714285714,0.8471835714285714,-0.2094198914285714,0.1161918642857142,0.1552424685714286,0.0189580805714285
723,7.230000477,-0.4046628499999999,0.7929069833333333,-0.2957337283333333,0.39898505,0.2954464566666667,-0.040672247
724,7.240000477,-0.3249057042857143,0.7649444285714286,-0.3898703014285714,0.7263409999999999,0.4311709142857142,-0.2794844357142857
725,7.250000477,-0.3111331357142857,0.7012604071428571,-0.5990114057142858,1.014835445714286,0.4768971999999999,-0.7644317328571429
726,7.260000477,-0.3536182033333333,0.6580465233333334,-0.7163527466666667,1.1263006000000002,0.4815512666666666,-1.0454650833333332
727,7.270000477,-0.5783612828571429,0.6195570457142857,-0.9375416485714284,1.1370049142857144,0.4920810857142857,-1.3531575285714283
728,7.280000477,-0.7092792066666668,0.59483144,-1.0828172666666669,1.0354879,0.5251759333333333,-1.4738726
729,7.290000477,-0.9500597857142856,0.5808004342857143,-1.2874662,0.5549547,0.6494833,-1.4351857
730,7.300000477,-0.9220965,0.5741799,-1.2214433,0.16401249,0.8412894,-1.1932901
731,7.310000477,-0.7773624142857143,0.5488560671428572,-0.8635782799999999,0.0130459531428571,1.0423454142857145,-1.0227764328571427
732,7.320000477,-0.7480924,0.59466887,-0.60375476,0.1408003,1.0465341,-0.96727663
733,7.330000477,-0.7631455771428571,0.5854696957142858,-0.4433185314285714,0.7355909800000001,0.9041193857142856,-0.8698901157142858
734,7.340000477,-0.6582701,0.51975596,-0.39730978,1.2022782514285717,0.693987917142857,-0.7834988614285715
735,7.350000477,-0.41764635,0.40285888,-0.44953844,1.6381905833333334,0.4500162616666667,-0.77893205
736,7.360000477,-0.3836199457142856,0.3625559857142857,-0.7941839685714286,2.256775128571429,-0.0995681085714285,-0.9557578171428572
737,7.370000477,-0.415695,0.3374587,-1.2953805,2.573194,-0.7189672000000001,-1.1859599
738,7.380000477,-0.4566991114285714,0.3292788142857143,-1.6478748428571428,2.2988364571428574,-0.8132122,-1.2927708714285715
739,7.390000477,-0.47816816,0.30596295,-1.946272,1.605612,-0.5931327,-1.3899829
740,7.400000477,-0.5133226,0.29864547,-1.9418817,0.8212841,-0.13988402,-1.4156386
741,7.410000477,-0.5581031142857144,0.2924778628571428,-1.683878757142857,0.14935215,0.40254834,-1.3557755
742,7.420000477,-0.59555304,0.30084074,-1.4156923,-0.192722325,0.7569670233333333,-1.2488772499999998
743,7.430000477,-0.5191766,0.30449948,-1.0430486,-0.37946706,0.92314288,-0.9730360571428572
744,7.440000477,-0.2924561,0.32181755,-0.8588001,-0.273965,0.6549809833333334,-0.8430710499999999
745,7.450000477,-0.1948240928571428,0.3268701285714286,-0.8239331,-0.1075527507142857,0.3353987785714286,-0.8517392428571429
746,7.460000477,-0.062427425,0.33549213,-0.8160842,0.1279725015,-0.07085828,-0.9996515
747,7.470000477,-0.017165635,0.32084188,-0.9481041,0.4713559357142857,-0.6180901414285714,-1.3287236142857142
748,7.480000477,-0.12454995,0.3020603,-1.1277183,0.5354076,-0.6603259,-1.4559544
749,7.490000477,-0.28806558,0.32498848,-1.2873312,0.41445985,-0.40010494,-1.3753225999999998
750,7.500000477,-0.3598685514285714,0.3053009228571429,-1.3117447,0.25302165,-0.1138793776714285,-1.2156296714285717
751,7.510000477,-0.32514092,0.24544115,-1.147506,-0.057114217,0.39643988,-0.8060129000000001
752,7.520000477,-0.273056,0.2295517185714285,-0.9546375428571428,-0.057114217,0.4163360428571429,-0.7400414428571428
753,7.530000477,-0.23957698,0.1622147466666666,-0.7612029333333333,0.1074073076666666,0.30155493,-0.6181774
754,7.540000477,-0.2383806428571428,0.1312968514285714,-0.6829231085714286,0.3017149242857143,0.14302552,-0.5187620571428572
755,7.550000477,-0.1708418599999999,0.1103330885714285,-0.6213951571428572,0.6406478714285715,-0.1815961771428571,-0.4320217428571428
756,7.560000477,-0.1320300666666666,0.09257654,-0.6262153666666667,0.9609645533333334,-0.4620041333333333,-0.4108456933333333
757,7.570000477,-0.1876154742857143,0.1200331385714285,-0.8224260142857143,1.2219999,-0.60412794,-0.41125292
758,7.580000477,-0.2883095,0.15732625,-1.1377493,1.1548067,-0.33413345,-0.2560977
759,7.590000477,-0.26974136,0.11049425,-1.2905021,0.85915667,0.18386503,0.035887275
760,7.600000477,-0.13259919,0.05728993,-1.2612321,0.4963134,0.6103891,0.28755635
761,7.610000477,-0.0516362871428571,0.0307117214285714,-1.1426101285714283,0.1989180428571428,0.7779357571428571,0.42054653
762,7.620000477,0.114610344,0.015305771,-0.64744633,0.1357389899999999,0.5690696428571428,0.4657492114285714
763,7.630000477,0.1599636073333333,0.0256722285,-0.530925305,0.2312056883333333,0.3555130916666666,0.442100695
764,7.640000477,0.2241332885714285,0.02408677,-0.3936118357142857,0.5893366928571427,-0.04581355,0.3196694628571428
765,7.650000477,0.21769055,-0.06645713,-0.4515202383333334,1.1218209583333334,-0.343092565,0.1517446366666666
766,7.660000477,0.095976856,-0.0690632614285714,-0.6079100257142857,1.304900642857143,-0.2910251028571428,0.1280379457142857
767,7.670000477,-0.1574888673333333,0.019299908,-0.93176165,1.4345748,0.20952061,0.37796175
768,7.680000477,-0.2648760828571428,0.0876880439999999,-1.1552329142857145,1.2712167857142858,0.4624768171428571,0.6324232542857143
769,7.690000477,-0.0411827185714285,0.1195845014285714,-1.410975242857143,0.7350674,1.0594491942857145,1.243968665714286
770,7.700000477,0.20857923,0.09070651,-1.3488287,0.041843038,1.4777923,1.5336847
771,7.710000477,0.5800338399999999,0.07460801,-0.8609953,-0.26480228,1.5413203,1.4689349
772,7.720000477,0.8456235566666667,0.111424185,-0.5931443833333333,-0.12186403,1.2603306,1.1745065
773,7.730000477,0.9683012857142858,0.1123410521428571,-0.4626968571428571,0.1493521528571428,0.9095297571428572,0.8614037
774,7.740000477,0.9452075333333332,0.0811226216666666,-0.4441620933333333,0.4551830166666666,0.55368215,0.5518495866666666
775,7.750000477,0.5526324142857143,0.0378593514285714,-0.7924504371428572,0.923208385714286,0.0280117142857142,0.1151228899999999
776,7.760000477,0.1671047,0.0051658065142857,-1.0926857914285717,1.0174533857142856,-0.2494874685714285,-0.017518226
777,7.770000477,-0.06671121,-0.007378479,-1.2141258,0.7870767,-0.26205346,0.122627586
778,7.780000477,-0.0872002071428571,-0.0281026838571428,-1.185247714285714,0.5284265142857143,-0.1730442999999999,0.306928938
779,7.790000477,-0.0448552566666666,-0.0165151913333333,-1.1226823666666668,0.19088978,0.07269082,0.5209
780,7.800000477,0.0071824748571428,0.0185071768571428,-0.9619856142857144,-0.1033640885714285,0.5178675742857143,0.7135786857142857
781,7.810000477,0.1523956548571428,-0.0242697094285714,-0.8256405285714286,-0.24525517,0.84984124,0.8812998500000001
782,7.820000477,0.2638517633333333,-0.0605421533333333,-0.7686169666666668,-0.2411828616666667,0.9078717066666666,0.9301676416666668
783,7.830000477,0.4714821999999999,-0.1111693785714285,-0.6559224142857143,-0.1639252285714285,0.8713081714285714,0.9420355428571427
784,7.840000477,0.5750183,-0.13282787,-0.6236492,0.033902025,0.70560495,0.890462575
785,7.850000477,0.60281826,-0.1275989085714285,-0.6892126857142857,0.3453468642857143,0.4536849942857143,0.8015406928571428
786,7.860000477,0.4744280966666667,-0.0857367133333333,-0.8696950499999999,0.4653637966666666,0.3162152666666666,0.7811209666666666
787,7.870000477,0.33986738,-0.08232188,-0.9871613,0.3423799,0.22906773,0.8776348
788,7.880000477,0.3826268514285714,-0.1241100285714285,-0.8684042857142857,0.1338191814285714,0.2660676,1.0896860428571429
789,7.890000477,0.51021266,-0.1962919399999999,-0.7123586,0.11392301,0.31947312,1.1891669
790,7.900000477,0.7532843514285714,-0.3033887771428571,-0.6270052571428572,0.2741395442857143,0.5131989600000001,1.2907421
791,7.910000477,0.8399626333333333,-0.3234741666666667,-0.74253825,0.5411088833333333,0.7899527666666666,1.2577853833333332
792,7.920000477,0.7741131,-0.2655642785714285,-0.9942087085714286,0.6163885371428571,0.8828269942857142,1.173459457142857
793,7.930000477,0.7110780499999999,-0.22165927,-1.2665983,0.3851392,0.8205206,1.0792145
794,7.940000477,0.7493642642857142,-0.2375748528571428,-1.2921049857142857,0.0291025094285714,0.6948605685714286,0.9828750714285714
795,7.950000477,0.8505766142857143,-0.2576500614285714,-1.2060023857142856,-0.2763211254285714,0.5682188228571429,0.8551207142857143
796,7.960000477,0.9278677142857142,-0.2668491971428571,-1.0710860128571429,-0.4417734714285714,0.5170385628571429,0.6999655028571429
797,7.970000477,0.7906254,-0.2429105,-0.89294845,-0.51769304,0.519831,0.42927292
798,7.980000477,0.56195354,-0.19556019,-0.80852276,-0.42362258,0.5051707,0.42072105
799,7.990000477,0.4062737,-0.13820928,-0.759709,-0.20493926,0.3891096999999999,0.5673244
800,8.000000477,0.4096188457142857,-0.0942781457142857,-0.7894232285714285,-0.0415812465714285,0.3095250314285714,0.7202107428571428
801,8.010000477,0.5163106,-0.088419795,-0.86392236,0.13591352,0.30725616,0.9301677
802,8.020000477,0.6116994571428572,-0.0969917198571428,-0.9139165371428573,0.1893190228571428,0.3376239942857143,1.0464032142857145
803,8.030000477,0.73660804,-0.105087438,-0.9464779866666668,0.20962242,0.3573456466666667,1.0845084
804,8.040000477,1.0110694628571428,-0.1170059671428571,-0.9983422171428572,0.1804181057142857,0.2990533685714285,0.9835731571428572
805,8.050000477,1.4003604285714286,-0.1125370522857143,-1.1435945428571428,0.0191544257142857,0.0770540191428571,0.55109332
806,8.060000477,1.3589309333333333,-0.102079124,-1.1786561333333332,-0.16462334,0.0124205613333333,0.2944792933333333
807,8.070000477,1.1798554571428572,-0.0919043142857143,-1.1682432285714286,-0.6285182085714286,0.0035778197142857,-0.2110695485714286
808,8.080000477,0.9720892916666668,-0.1566656333333333,-0.7630932833333334,-0.8968255666666667,0.1596347466666667,-0.5161404916666666
809,8.090000477,0.8858443857142857,-0.15061419,-0.5533249314285714,-0.7718054928571428,0.0814172127142857,-0.6231078571428572
810,8.100000477,0.8261406833333332,-0.1554460733333333,-0.4543354333333333,-0.4918338666666666,0.00712655145,-0.685472425
811,8.110000477,0.7901376000000001,-0.16601579,-0.462466,-0.33810395,-0.0030542363,-0.69361705
812,8.120000477,0.70302886,-0.18287653,-0.5585997,-0.0070247436,-0.045813546,-0.65574455
813,8.130000477,0.69717485,-0.16894278,-0.6257377,-0.0070247436,-0.045813546,-0.65574455
814,8.140000477,0.69717485,-0.16894278,-0.6257377,-0.0070247436,-0.045813546,-0.65574455
815,8.150000477,0.8034107366666667,-0.15951134,-0.7855031233333333,0.5409052633333333,-0.6008700833333334,-0.4713195583333334
816,8.160000477,1.005254657142857,-0.1428349885714285,-1.2337392428571428,0.4896813358571428,-0.9556268428571428,-0.5168640428571428
817,8.170000477,1.0073453,-0.1245194599999999,-1.3505361,-0.019241689,-0.7421794,-0.6533011
818,8.180000477,1.008321,-0.10500612,-1.4198389,-0.4674290555714285,-0.49190656,-0.7454518085714286
819,8.190000477,1.008321,-0.10500612,-1.4198389,-0.54212695,-0.45019442,-0.7608102600000001
820,8.200000477,1.008321,-0.10500612,-1.4198389,-0.54212695,-0.45019442,-0.76081026
821,8.210000477,0.9526209428571428,-0.2243162228571428,-1.1755999857142858,-1.049653792857143,-0.0637899057142857,-0.9643096371428572
822,8.220000477,0.8723985,-0.313189,-0.8958755000000002,-1.2971342,0.22051586,-1.0747857
823,8.230000477,0.8723985,-0.313189,-0.8958755,-1.2971342,0.22051586,-1.0747857
824,8.240000477,0.8723985,-0.313189,-0.8958755000000002,-1.2971342,0.22051586,-1.0747857
825,8.250000477,0.8723985,-0.313189,-0.8958755,-1.2971342,0.22051586,-1.0747857
826,8.260000477,0.8723985,-0.313189,-0.8958755,-1.2971342,0.22051586,-1.0747857
827,8.270000477,0.8723985,-0.313189,-0.8958755000000002,-1.2971342,0.22051586,-1.0747857
828,8.280000477,0.8723985,-0.313189,-0.8958755,-1.2971342,0.22051586,-1.0747857
829,8.290000477,0.8723985,-0.313189,-0.8958755000000002,-1.2971342,0.22051586,-1.0747857
830,8.300000477,0.8723985,-0.313189,-0.8958755,-1.2971342,0.22051586,-1.0747857
831,8.310000477,0.8723985,-0.313189,-0.8958755000000002,-1.2971342,0.22051586,-1.0747857
832,8.320000477,0.8723985,-0.313189,-0.8958755,-1.2971342,0.22051586,-1.0747857
833,8.330000477,0.8723985,-0.313189,-0.8958755,-1.2971342,0.22051586,-1.0747857
834,8.340000477,0.8723985,-0.313189,-0.8958755000000002,-1.2971342,0.22051586,-1.0747857
835,8.350000477,0.8723985,-0.313189,-0.8958755,-1.2971342,0.22051586,-1.0747857
836,8.360000477,0.8723985,-0.313189,-0.8958755000000002,-1.2971342,0.22051586,-1.0747857
837,8.370000477,0.8723985,-0.313189,-0.8958755,-1.2971342,0.22051586,-1.0747857
838,8.380000477,0.8723985,-0.313189,-0.8958755000000002,-1.2971342,0.22051586,-1.0747857
839,8.390000477,0.8723985,-0.313189,-0.8958755,-1.2971342,0.22051586,-1.0747857
840,8.400000477,0.8723985,-0.313189,-0.8958755,-1.2971342,0.22051586,-1.0747857
841,8.410000477,0.8723985,-0.313189,-0.8958755000000002,-1.2971342,0.22051586,-1.0747857
842,8.420000477,0.8723985,-0.313189,-0.8958755,-1.2971342,0.22051586,-1.0747857
843,8.430000477,0.8723985,-0.313189,-0.8958755000000002,-1.2971342,0.22051586,-1.0747857
844,8.440000477,0.8723985,-0.313189,-0.8958755,-1.2971342,0.22051586,-1.0747857
845,8.450000477,0.8723985,-0.313189,-0.8958755,-1.2971342,0.22051586,-1.0747857
846,8.460000477,0.8723985,-0.313189,-0.8958755000000002,-1.2971342,0.22051586,-1.0747857
847,8.470000477,0.8723985,-0.313189,-0.8958755,-1.2971342,0.22051586,-1.0747857
848,8.480000477,0.43619925,-0.1565945,-0.4479377500000001,-0.8647561333333332,0.1470105733333333,-0.7165238
849,8.490000477,0.0132368357142857,0.0090902514285714,-0.1073451142857142,0.0949867428571428,0.0578559642857142,0.0234521714285714
850,8.500000477,0.09265785,0.06363176,-0.7514158,0.6244167714285714,0.4032464642857142,0.2995987714285714
851,8.510000477,-0.0400480686666666,0.2390129283333333,-0.9315939433333332,0.5299100166666667,0.3583637166666666,0.6196536666666667
852,8.520000477,-0.0961902805714285,0.1472254864285714,-0.9131412571428572,0.7645626157142856,-0.0027051802857142,0.5165368085714286
853,8.530000477,-0.3137987883333333,0.1485909858333333,-1.31068115,0.4521287715166666,0.1162645966666666,1.1339870116666666
854,8.540000477,-0.0060717814285714,0.3135635828571428,-1.0318894542857142,-0.3436888415571428,0.6410841814285714,1.2404781
855,8.550000477,0.19345641,0.21687241,-0.5144507,0.02351762,0.2596101,0.61619216
856,8.560000477,0.0735800768571428,0.1924110442857143,-0.5481112142857143,0.5827046571428571,-0.2145819142857143,0.3123392842857143
857,8.570000477,-0.08622454,0.15854584,-0.7550745,0.9544488,-0.5674771,0.19715095
858,8.580000477,-0.1882426899999999,0.13952033,-1.1201569,1.2061179,-0.87778753,0.184934
859,8.590000477,-0.2044892771428571,0.1742218414285714,-1.4946298714285715,1.0097741857142857,-0.7168729100000001,0.2503819342857142
860,8.600000477,-0.31806734,0.20223741,-1.6900071,0.7040015,-0.46974155,0.2765611
861,8.610000477,-0.48280257,0.1905294,-1.8740118,0.16279079,-0.20707722,0.3865136
862,8.620000477,-0.505364845,0.1244432416666666,-1.7615559666666665,-0.339122035,-0.0798173766666666,0.5290446416666666
863,8.630000477,-0.4786907999999999,0.0885548242857142,-1.4972825142857145,-0.7047868357142857,-0.0596012394285714,0.6657580571428571
864,8.640000477,-0.4604667714285714,0.07617605,-1.1556511,-0.8554043085714286,-0.1760112705714285,0.8294651257142858
865,8.650000477,-0.2718756166666666,0.01506693625,-0.800834325,-0.705223165,-0.4742210916666667,1.0140573833333333
866,8.660000477,0.0541930585714285,-0.1195409451428571,-0.55052865,0.0645316474857142,-0.9594664714285714,0.917427157142857
867,8.670000477,0.04018527,-0.1672353599999999,-0.69382095,0.47920966,-1.1050227,0.797003
868,8.680000477,-0.24486186,-0.16699146,-1.3652016,0.8799254857142856,-1.2243996857142856,0.7449936542857143
869,8.690000477,-0.30270058,-0.14308763,-1.7368697,0.7040015,-1.1709942,0.8214368
870,8.700000477,-0.1847059,-0.1144187008571428,-1.8822527,0.32702145,-1.0339898714285711,0.8624508714285714
871,8.710000477,-0.0133849274285714,-0.0743074665714285,-1.8784416,-0.3766746071428571,-0.7048304514285714,0.8013661571428571
872,8.720000477,0.0995230855,-0.04135912,-1.7395628333333333,-1.0882244,-0.3170297,0.59908843
873,8.730000477,0.0670466,-0.043752555,-1.4139849000000002,-1.4683459142857145,-0.0531437077142857,0.3645230928571428
874,8.740000477,-0.1654110666666666,0.0422788908333333,-1.0971474,-1.6221049,0.0014253103333333,0.2008160366666666
875,8.750000477,-0.42252466,0.18369974,-0.7323598,-1.5329212,-0.27060533,0.15683503
876,8.760000477,-0.4890732666666667,0.23217818,-0.6227192666666667,-1.1867744666666666,-0.56625541,0.3058817633333333
877,8.770000477,-0.54210484,0.27422333,-0.57204556,-0.82800347,-0.81181604,0.48913595
878,8.780000477,-0.43228132,0.3313303,-0.72284704,-0.3943019,-0.8912261999999999,0.7310315
879,8.790000477,-0.415695,0.3738023,-0.90615046,-0.32728322,-0.8304905142857143,0.7352201
880,8.800000477,-0.424476,0.42627487,-1.0779592,-0.45660833,-0.6139015,0.7078193
881,8.810000477,-0.370382375,0.4366413283333333,-1.1472977,-0.7253811383333333,-0.346146775,0.6172102416666667
882,8.820000477,-0.2785049214285714,0.4249507485714286,-1.0764478285714283,-1.0461632,-0.0796719335714285,0.3983814942857143
883,8.830000477,-0.2405526566666666,0.4091092333333333,-0.9152464666666664,-1.2270903333333334,0.0714691266666666,0.0509548466666666
884,8.840000477,-0.3077139728571428,0.3723388114285714,-0.5447399714285714,-1.350190657142857,0.1897989785714285,-0.5608232428571428
885,8.850000477,-0.50329155,0.3518497999999999,-0.32675686,-1.0723424,0.17042638,-0.78035736
886,8.860000477,-0.6392446000000002,0.33011073,-0.2742843,-0.67756052,0.2458223971428571,-0.7918761942857142
887,8.870000477,-0.8825515,0.32450065,-0.41706705,0.22457363,0.3782889871428571,-0.5504824385714285
888,8.880000477,-1.0477746,0.3838029,-0.64159226,0.58061033,0.37933615,-0.30740887
889,8.890000477,-1.1226875,0.4431051,-0.92712724,0.77730316,0.2987043,0.033443887
890,8.900000477,-1.0897588,0.4806988,-1.1838496,0.7247702500000001,0.2327328,0.3694099
891,8.910000477,-0.9554564714285716,0.4988880314285714,-1.3051894857142856,0.5195255928571428,0.20027064,0.6018809285714285
892,8.920000477,-0.814102375,0.4977729849999999,-1.33760855,0.335049725,0.1899734949999999,0.7120951999999999
893,8.930000477,-0.57853984,0.4957170857142857,-1.3341936714285716,0.0240412057142857,0.2144073857142857,0.7778048999999999
894,8.940000477,-0.35980758,0.4989925,-1.2385173,-0.38575006,0.35245886,0.69071555
895,8.950000477,-0.3268534133333333,0.5120268333333333,-1.1366313833333332,-0.5258376866666666,0.4918338533333333,0.5579580633333333
896,8.960000477,-0.3425853299999999,0.5322305357142857,-0.9987603857142856,-0.62939084,0.6400588214285714,0.3889569828571429
897,8.970000477,-0.35322183,0.53024435,-0.8668493600000001,-0.5751127,0.71667653,0.13850962
898,8.980000477,-0.3737108399999999,0.54292804,-0.85294616,-0.46760356,0.7252284,-0.014202199
899,8.990000477,-0.4115433066666666,0.5732397566666667,-0.8746954016666667,-0.363759535,0.7394815333333334,-0.0997208165
900,9.000000477,-0.4260091742857143,0.5755388142857143,-0.9261123785714284,-0.2655004042857142,0.7329076514285714,-0.1576640457142857
901,9.010000477,-0.4145567116666666,0.5385019333333333,-0.9951648166666668,-0.15851486,0.65192676,-0.27197975
902,9.020000477,-0.4064609971428571,0.5141458571428571,-1.0272899714285717,-0.13495361,0.6091674314285714,-0.34615405
903,9.030000477,-0.4238661999999999,0.477040035,-1.0628212,-0.1489449183333333,0.6032625916666666,-0.4409808116666667
904,9.040000477,-0.4205036257142857,0.4269717728571428,-1.0567907714285714,-0.2283259771428571,0.7165020214285713,-0.4770498885714286
905,9.050000477,-0.31733558,0.4057859,-0.9559094299999998,-0.27701923,0.9585721,-0.562743
906,9.060000477,-0.1276032628571428,0.4087128457142857,-0.7990274900000001,-0.0780575525714285,1.1009867285714283,-0.7649771142857144
907,9.070000477,-0.09061504,0.4267627299999999,-0.8168159999999999,0.22631891,1.1076188,-1.0198095
908,9.080000477,-0.1449997514285714,0.4236266414285715,-0.9573903428571428,0.45721918,0.96468055,-1.1847383
909,9.090000477,-0.2133443342857142,0.43495136,-1.1368389714285716,0.5294736571428571,0.7552471642857144,-1.2842191571428572
910,9.100000477,-0.2683591449999999,0.4517082533333333,-1.2691948833333333,0.5211545116666667,0.6022445166666667,-1.3455947166666666
911,9.110000477,-0.3555041914285714,0.4626489328571428,-1.3124763571428573,0.4039882,0.3314064657142857,-1.4522893428571426
912,9.120000477,-0.3888743083333333,0.40302657,-1.3022151833333333,0.2198032,0.054772636,-1.5638708
913,9.130000477,-0.3662887814285714,0.30673827,-1.2585142,0.0674986214285714,0.0950303812857142,-1.5631145285714287
914,9.140000477,-0.34492868,0.18394366,-1.1345785,0.0127259846666666,0.39033141,-1.437629
915,9.150000477,-0.4060036571428571,0.1946062942857143,-1.0868839857142856,0.0711637002285714,0.6341031085714286,-1.2309881285714286
916,9.160000477,-0.4414456057142857,0.2375225571428571,-1.0942667571428573,0.2120076328571428,0.7355255428571429,-0.9775737714285714
917,9.170000477,-0.4188658999999999,0.31450003,-1.131621,0.34278712,0.6535302183333332,-0.7133678099999999
918,9.180000477,-0.30489585,0.34867886,-1.1043022,0.40590802,0.46607646,-0.60443336
919,9.190000477,-0.194472725,0.3442070933333334,-1.0575261166666663,0.5402944,0.11056335,-0.58106846
920,9.200000477,-0.1081509051428571,0.3263518028571429,-1.0492163571428572,0.6868977142857142,-0.2569921757142857,-0.6272746914285714
921,9.210000477,-0.0527063246666666,0.2887058733333333,-1.1019342666666667,0.7952213333333332,-0.53001181,-0.6830290433333333
922,9.220000477,-0.0120782300571428,0.2575673042857143,-1.2244747285714286,0.8455435142857143,-0.6931371028571428,-0.7482442714285714
923,9.230000477,0.0016159479,0.25714916,-1.4059356,0.7113316,-0.6346703,-0.8365553
924,9.240000477,0.0005705907599999,0.2728295085714285,-1.5144959999999998,0.23975755,-0.20829892,-0.8475506
925,9.250000477,-0.0019034213471428,0.2490998914285714,-1.4794592285714283,-0.13949133,0.0920634114285714,-0.8351590914285715
926,9.260000477,-0.025214886,0.18760242,-1.2277851,-0.4480564599999999,0.33657685,-0.81578654
927,9.270000477,-0.0444146129714285,0.1077719657142857,-0.9030665842857144,-0.5042544,0.38666633,-0.7522584
928,9.280000477,-0.0015549688,0.05631426,-0.68406427,-0.30267483,0.211964,-0.67162657
929,9.290000477,0.0099657389142857,0.0456646849999999,-0.6199055057142857,-0.0482133034285714,0.0077664877142857,-0.6370700585714285
930,9.300000477,-0.053008322,0.0457953532857142,-0.5906877714285715,0.5052143358571428,-0.409529433,-0.5767270628571428
931,9.310000477,-0.1187721743333333,0.0327051613333333,-0.7629713166666666,0.8322794066666667,-0.6216388666666667,-0.5212054199999999
932,9.320000477,-0.1627229085714285,0.0211597724285714,-0.9753443857142856,0.9979062685714286,-0.7173964628571429,-0.4302764471428571
933,9.330000477,-0.2397395999999999,0.09460918,-1.2663544,0.86282176,-0.64810896,-0.2793099
934,9.340000477,-0.1928814599999999,0.1544558714285714,-1.4272087428571427,0.4998039457142856,-0.3828267171428571,-0.1021642
935,9.350000477,-0.02350747,0.11049425,-1.330291,-0.072996244,0.048256934,0.122627586
936,9.360000477,0.1026410128571428,0.0673994042857143,-1.1294778571428572,-0.34421244,0.2779355,0.17027368
937,9.370000477,0.27617463,0.0138422719999999,-0.8438906999999999,-0.3845283399999999,0.3377985399999999,0.118962504
938,9.380000477,0.38915163,-0.0436785065714285,-0.6732100114285714,-0.2295476714285714,0.2487893628571428,0.0079628305714285
939,9.390000477,0.4570084,-0.06619289,-0.5249392,0.16279079,-0.05803049,-0.22677705
940,9.400000477,0.3052972833333333,-0.0131156033333333,-0.6052792416666667,0.504865265,-0.3624360483333333,-0.42835665
941,9.410000477,0.1124891388571428,0.0046082825714285,-0.7805899642857143,0.7101099542857143,-0.62227884,-0.5042762442857143
942,9.420000477,-0.1205253259999999,0.0107933124999999,-1.0398625,0.7724163666666666,-0.8570186999999999,-0.4800750566666666
943,9.430000477,-0.2630771957142857,0.0344358089714285,-1.2615065285714286,0.361927,-0.9510892,-0.1021642
944,9.440000477,-0.15869829,-0.0029879791999999,-1.2207115,-0.03634541,-0.5943544,0.2313584
945,9.450000477,-0.002042802,-0.051801804,-1.0328041,-0.35363693,0.0004363194285714,0.48058406
946,9.460000477,0.1288925385714285,-0.0743074671428571,-0.8140936814285713,-0.49133935,0.5834900437142857,0.6153195242857142
947,9.470000477,0.15000875,-0.1140310499999999,-0.74214697,-0.4651601999999999,0.7985301000000001,0.62352234
948,9.480000477,0.2600325928571428,-0.1196759699999999,-0.6580479957142857,-0.3091323428571428,0.6466909285714285,0.5596451485714286
949,9.490000477,0.3121371,-0.1057785275,-0.6114838333333333,-0.1864102166666666,0.4634548999999999,0.4828238416666666
950,9.500000477,0.1555273571428571,-0.0689151735714285,-0.6863553857142858,0.1366116314285714,-0.0299315171428571,0.3470703114285714
951,9.510000477,-0.02607876,-0.02891429,-0.89617015,0.2198032066666666,-0.1812180199999999,0.460018885
952,9.520000477,-0.1836823125714285,0.0778529757142857,-1.1057265428571428,0.0367817313714285,0.0269645448571428,0.7903709357142857
953,9.530000477,-0.0957416399999999,0.1721267657142857,-1.277461285714286,-0.3864481569142857,0.4526377948571428,1.2640393714285714
954,9.540000477,0.22638516,0.10707942,-1.1655558,-0.9746068,0.9475768,1.6876182999999998
955,9.550000477,0.5030345957142858,0.0577298499999999,-0.9286517571428572,-1.1770590857142855,1.1369394428571429,1.7478303714285714
956,9.560000477,0.9077663533333332,-0.0154937904999999,-0.5469322983333332,-1.18473825,1.1220755,1.62632995
957,9.570000477,1.23016765,-0.0188730524285714,-0.2782740785714285,-0.5459665571428571,0.3341552685714286,1.0662993
958,9.580000477,1.2846684666666668,-0.013181664,-0.2772367033333333,-0.1438545322666666,-0.1476214233333333,0.7237012733333333
959,9.590000477,1.1078521142857145,0.0072434535714285,-0.4871146214285714,0.0051922016,-0.3243599,0.59664506
960,9.600000477,0.8210583885714285,0.0364350534285714,-0.7729544714285714,0.4631531257142857,-0.6940097428571429,0.1699246185714285
961,9.610000477,0.4973664133333333,0.05013504,-0.9490797666666668,0.4368576133333333,-0.46037522,0.1588711966666666
962,9.620000477,0.41196655,0.0239212571428571,-0.8518877142857143,0.3868844771428571,-0.1465160742857142,0.3011695285714286
963,9.630000477,0.4284701,-0.072565205,-0.6918696,0.50242186,0.076355904,0.5196783
964,9.640000477,0.4338711357142857,-0.1166662085714285,-0.6955283571428571,0.6574025542857143,0.0805445777142857,0.6778005
965,9.650000477,0.4418855357142857,-0.1372336157142857,-0.7722837171428572,0.7869021871428572,0.09485585,0.8790310057142857
966,9.660000477,0.6710452400000001,-0.095493376,-0.8751425999999999,0.81151056,0.124001995,1.1354123
967,9.670000477,0.7913571599999999,-0.05058222,-0.91688275,0.7905672514285714,0.1480868307142857,1.1050445
968,9.680000477,0.79794294,-0.041801218,-0.97813636,0.7357655,0.21074231,1.0242381
969,9.690000477,0.7741087628571429,-0.0692157082857142,-1.032311937142857,0.6530393428571427,0.25891199,0.9991061142857144
970,9.700000477,0.7387321333333333,-0.0990759016666666,-1.0268637333333337,0.5455884166666666,0.2962609233333333,0.99898975
971,9.710000477,0.7300382499999999,-0.1372684714285714,-0.9523421285714286,0.3973561499999999,0.3658975,1.0523372
972,9.720000477,0.77208775,-0.16089354,-0.8868505,0.37414396,0.42576054,1.1146436
973,9.730000477,0.85827745,-0.1269978257142857,-0.8853870142857143,0.3867099657142857,0.3734022085714286,1.1104548285714286
974,9.740000477,0.9542064342857144,-0.0646640517142857,-0.9280288714285714,0.3853137285714286,0.2826477557142857,1.0198749428571428
975,9.750000477,1.00782308,-0.051151359,-0.9885332333333332,0.3503209,0.19689643,0.868879315
976,9.760000477,1.0159173714285714,-0.0530910782857142,-1.1403148571428572,0.2043284057142857,0.1527990785714285,0.6636637328571429
977,9.770000477,0.8743498,-0.07939488,-1.2346147,-0.32222193,0.2583884,0.27045262
978,9.780000477,0.8434899857142858,-0.0931587442857142,-1.1943467,-0.4452640157142857,0.3238363285714286,0.2041320628571428
979,9.790000477,0.7587333433333333,-0.1806304566666666,-0.9665401666666668,-0.7530728916666667,0.4864380333333333,0.0014762133333333
980,9.800000477,0.6970136571428572,-0.2320649328571428,-0.8426188714285715,-0.8222440857142858,0.5015055828571429,-0.0904708427142857
981,9.810000477,0.6131411471428573,-0.2669885757142857,-0.7654627571428572,-0.7847205571428572,0.4861471428571429,-0.1358480657142857
982,9.820000477,0.5413831916666667,-0.3007238483333333,-0.7203265666666666,-0.6581879,0.43309072,-0.15591876
983,9.830000477,0.56049,-0.33001924,-0.7028459,-0.5054761,0.28037888,-0.14614521
984,9.840000477,0.52365863,-0.32392135,-0.7050411,-0.28068432,0.073912516,-0.13392825
985,9.850000477,0.52428581,-0.2607556385714286,-0.7843314428571428,0.0093808662857142,-0.1564641662857142,-0.0396832534285714
986,9.860000477,0.5792969733333334,-0.2083302533333333,-0.902074975,0.1625871773333333,-0.2518726966666667,0.050343991
987,9.870000477,0.6542411285714286,-0.1628187357142857,-1.0050847628571429,0.1654087142857143,-0.2716525057142857,0.0896418314285714
988,9.880000477,0.7969672,-0.11012838,-1.0901551,0.0261355370857142,-0.2130111628571428,0.0901654128571428
989,9.890000477,0.8549481999999999,-0.1011847633333333,-1.1100749333333335,-0.1259363461333333,-0.1191152133333333,0.0301860333333333
990,9.900000477,0.8504372,-0.0961205885714285,-1.1155920714285714,-0.2606136228571428,-0.0409267657142857,-0.0244993385714285
991,9.910000477,0.7182329333333334,-0.06286952,-1.079077133333333,-0.6109490433333333,0.0783920626666666,-0.12985594
992,9.920000477,0.534147,-0.119641125,-0.759709,-0.7901309,0.09101624,-0.15225367
993,9.930000477,0.47557652,-0.1870231,-0.35800868,-0.3319955,-0.1924168899999999,0.20081604
994,9.940000477,0.6224753,-0.16796713,-0.3243177,0.0668005071428571,-0.4576991114285714,0.3648721542857143
995,9.950000477,0.7703803,-0.16601579,-0.47344226,0.6649072,-0.8753441000000001,0.47814068
996,9.960000477,0.8843504000000001,-0.1853157,-0.8060836,0.83105767,-0.8826743,0.4060607299999999
997,9.970000477,0.8987415,-0.20848778,-0.97667277,0.7113316,-0.64810896,0.30710346
998,9.980000477,1.1598847,-0.25754553,-1.1948563,0.37658733,-0.41965207,0.16783029
999,9.990000477,1.3037955571428572,-0.2366209528571428,-1.3365369857142857,0.0805882042857143,-0.2835203957142857,-0.0192635042857142
