id,timestamp,acc_x,acc_y,acc_z,gyro_x,gyro_y,gyro_z
0,4.77e-07,0.0132760365714285,0.7330088142857143,0.31894284,-0.134408208,0.7926615785714286,-2.2943642714285715
1,0.010000477,-0.200682438,0.58343345,0.33751971,-0.535560325,1.093722025,-2.0131235000000003
2,0.020000477,-0.3122133342857142,0.4977424642857143,0.4228077685714285,-0.86445795,1.203499957142857,-1.7179206142857144
3,0.030000477,-0.32493184,0.6628696557142858,0.5612565942857143,-1.2824520142857143,1.0575946714285716,-1.4868458714285713
4,0.040000477,-0.2086358571428571,0.6346973128571428,0.8310981142857143,-1.2550511428571427,0.9645714285714284,-1.3777660142857144
5,0.050000477,-0.11104742,0.6027529428571429,0.8953919571428572,-1.0637686857142856,0.6448365428571429,-1.4371054714285714
6,0.060000477,-0.23438651,0.6290784928571428,0.8829130314285714,-0.8785946914285715,0.2774555457142857,-1.5289070714285715
7,0.070000477,-0.3973489814285714,0.7274335428571428,1.0910174371428571,-0.5916710314285715,-0.3874953199999999,-1.4261101857142855
8,0.080000477,-0.4937889433333333,0.8567674533333333,1.2263419333333334,-0.29488653,-0.9880454,-1.1645803
9,0.090000477,-0.4931994999999999,0.9053446257142858,1.3425784,0.2787863257142857,-1.4360582714285717,-0.6513813457142856
10,0.100000477,-0.375189585,0.893878375,1.4808943,0.7284353800000001,-1.5524683,-0.32894125
11,0.110000477,-0.21731233,0.8245908014285714,1.5832804857142857,1.3476599571428571,-2.114447757142857,-0.1724770842857143
12,0.120000477,-0.1305563976666666,0.7589873933333333,1.4799847333333334,2.1232032666666667,-2.9423494333333333,-0.1047603066666666
13,0.130000477,-0.0199488992857142,0.6058977571428572,0.8674635142857142,2.618745885714286,-3.4177340428571426,-0.1822506428571428
14,0.140000477,0.0447129755,0.432144135,0.331558965,2.5353216,-3.49816955,-0.301453115
15,0.150000477,0.1832728985714285,0.2524189157142857,-0.0834107985714285,1.7335409428571429,-3.0993736,-0.7510367171428572
16,0.160000477,0.13066094,0.2350790499999999,-0.0943652682857142,0.8776566428571427,-2.3387160714285713,-1.3282001142857145
17,0.170000477,-0.1841774166666666,0.41317453,0.0555723476666666,0.2038193753333333,-1.3504814666666665,-1.768301033333333
18,0.180000477,-0.5178176685714285,0.6037025157142857,0.2453191914285714,-0.2541342672857142,-0.5049525028571428,-1.7821469
19,0.190000477,-0.8000336142857142,0.6563536485714286,0.4127984885714286,-0.6269256314285714,0.3175969257142857,-1.4025489285714283
20,0.200000477,-0.8887714,0.50230065,0.535320865,-0.8825216,1.667994815,-0.82189498
21,0.210000477,-0.8537171,0.3660666571428571,0.6856018214285715,-1.0374150142857144,2.678412557142857,-0.2915050457142857
22,0.220000477,-0.7463799333333334,0.3533996666666667,0.9007385166666668,-1.0853228666666666,2.5645913,0.2422009416666667
23,0.230000477,-0.6415487714285714,0.4447210485714286,1.2020780428571427,-0.8660287028571428,1.6706236714285716,0.9577648857142858
24,0.240000477,-0.4710945800000001,0.51742349,1.2669794,-0.58870405,0.36620292,1.6202723499999998
25,0.250000477,-0.2737224228571429,0.5501061714285714,1.2272753857142855,-0.2715870542857143,-0.6456219285714286,1.967931642857143
26,0.260000477,-0.2130176657142857,0.5931400285714287,1.2268616571428572,0.1443999257142857,-1.73676967,2.0270966285714285
27,0.270000477,-0.221415365,0.6637429899999999,1.20755525,0.632532335,-2.63427875,1.86033535
28,0.280000477,-0.2243772014285714,0.7055725185714286,1.1640749285714287,1.2453866285714283,-3.069987442857143,1.5145085
29,0.290000477,-0.1835879433333333,0.66227439,1.194785166666667,1.8747921,-3.2652841,1.10553174
30,0.300000477,-0.1765172628571428,0.6247925499999999,1.1939329571428572,2.251539442857143,-3.4711177857142856,0.8539208514285714
31,0.310000477,-0.1976741199999999,0.5976771666666667,1.1048206333333332,2.6159534333333334,-3.7182781666666664,0.65920601
32,0.320000477,-0.19458451,0.5898253285714287,0.8642272428571428,2.861339542857143,-3.837713285714286,0.5923036857142857
33,0.330000477,-0.1197427633333333,0.6759337,0.5725435666666666,2.7491181,-3.7370108,0.5891621699999999
34,0.340000477,-0.08943031,0.7675273428571429,0.6143346428571428,2.511062114285714,-3.609081942857143,0.5984121371428571
35,0.350000477,0.0117428451428571,0.8377144,0.9239911857142856,2.352590857142857,-3.8157228571428567,0.5718839200000001
36,0.360000477,0.1328431113333333,0.83099362,1.2995575333333331,2.47668015,-4.2464573,0.436450365
37,0.370000477,0.0764068957142857,0.7578098871428571,1.300284914285714,2.947730685714286,-4.726059599999999,0.1811162214285714
38,0.380000477,0.0299763441666666,0.7265108750000001,1.2585083666666663,3.2357596833333333,-4.884996333333333,0.0526346755
39,0.390000477,-0.0214385322857142,0.6274451642857143,1.1715709714285711,3.8512609857142857,-4.853988714285714,-0.0620009954285714
40,0.400000477,0.0253876586666666,0.5591993133333334,0.9967756666666666,4.582881466666667,-4.6455443333333335,-0.1275652633333333
41,0.410000477,0.0340045934285714,0.5869724,0.8203789285714286,5.169992914285714,-4.246806428571428,-0.2307693642857143
42,0.420000477,-0.1197529183333333,0.63644975,0.5019652716666666,5.3183417,-4.302655,-0.3075616
43,0.430000477,-0.1677754628571428,0.7289580428571428,-0.0453118814285714,4.898078928571429,-4.227433828571429,-0.4269386142857143
44,0.440000477,-0.1718654357142857,0.8386507999999999,-0.2811270185714286,4.175184728571429,-3.6699047428571423,-0.3358351114285715
45,0.450000477,-0.1617167566666666,0.8780898,-0.23833707,3.4701214,-3.073681583333333,-0.226115295
46,0.460000477,-0.1600267571428571,0.8810400428571429,-0.1369984085714286,3.3596162142857144,-2.9771386571428566,-0.2061609485714285
47,0.470000477,-0.21411309,0.8171208499999999,0.33424207,3.0463970333333337,-2.698010533333333,-0.12878696
48,0.480000477,-0.3427943857142857,0.7393158000000001,0.4324990914285714,3.215805371428572,-2.7802713142857143,-0.0825952742857143
49,0.490000477,-0.4946833533333333,0.7129480833333334,0.4314885866666667,3.5802776,-2.7998185,0.0634263066666666
50,0.500000477,-0.55305928,0.70212284,0.4084428171428572,3.778308485714285,-2.759851657142857,0.1490030971428571
51,0.510000477,-0.5417258642857143,0.69916102,0.3007840928571428,4.367863257142857,-2.5561776285714286,0.3568656914285714
52,0.520000477,-0.3950100028571429,0.7453440142857143,0.0543672857142857,4.652692514285714,-2.6951016857142855,0.2598282457142857
53,0.530000477,-0.593592992857143,0.8772114999999999,-0.3497373071428571,4.542390942857143,-3.0979118142857147,0.13312107
54,0.540000477,-0.669734225,0.94049695,-0.46659735,4.30372425,-3.46693995,0.12858335
55,0.550000477,-0.4394986714285714,0.9244266857142855,-0.51332698,4.067849942857143,-3.850977428571429,0.1299795657142857
56,0.560000477,-0.2965634828571429,0.8209450857142857,-0.4367632857142857,4.0044965,-4.035278871428572,0.0142676435714285
57,0.570000477,-0.28878718,0.7344229533333332,-0.1542163166666666,4.1406281,-4.235869433333334,-0.260322745
58,0.580000477,-0.3800265257142857,0.7044574885714285,0.0676868714285714,4.584452285714286,-4.405626657142857,-0.5745891142857144
59,0.590000477,-0.4867400714285714,0.6114860271428572,0.1816874228571428,5.080874857142858,-4.316268385714286,-0.7906545257142857
60,0.600000477,-0.6110983914285715,0.4567513885714285,0.0153928842857142,5.648875514285714,-4.0391183,-1.0391821142857145
61,0.610000477,-1.1236631,0.42547198,-0.6109909433333334,5.911016149999999,-3.3185041,-1.22688675
62,0.620000477,-1.361325028571429,0.4713341314285714,-0.9402552285714286,5.773815671428571,-2.7504270571428573,-1.1662383285714284
63,0.630000477,-1.5501296857142857,0.6343445142857143,-1.5724960142857145,4.2634957714285715,-1.6097134285714283,-0.3960471714285714
64,0.640000477,-1.3792224857142856,0.6782756171428571,-1.5409784428571427,3.6093655,-1.22819567,-0.1876609987142857
65,0.650000477,-1.141839257142857,0.6810240571428572,-1.3819185571428572,2.793971657142857,-0.7737253028571428,-0.0101662431428571
66,0.660000477,-0.9351154916666669,0.6320186166666667,-1.0901856333333333,2.0800367333333334,-0.43909738,0.087452964
67,0.670000477,-0.9045475071428573,0.6314262428571429,-0.895635957142857,1.8061444428571427,-0.4393300842857143,0.1324229592857142
68,0.680000477,-0.8799598685714286,0.6374544557142857,-0.7893666428571429,1.6914796857142858,-0.5608014257142857,0.1695973757142857
69,0.690000477,-0.8432504333333334,0.6295692533333334,-0.6790030333333332,1.6658823,-0.6832326666666667,0.1864102133333333
70,0.700000477,-0.8234931485714286,0.6109807657142857,-0.56499816,1.722545642857143,-0.7725036142857143,0.1751822642857143
71,0.710000477,-0.7498913257142857,0.6316352642857143,-0.41095602,2.1899309857142852,-0.6108908714285715,0.14533802
72,0.720000477,-0.7291990666666667,0.5912641500000001,-0.4413875266666667,2.5821531,-0.5185075,0.1017060733333333
73,0.730000477,-0.7898108714285714,0.5784309285714286,-0.5676114914285714,2.8362074,-0.4834855942857143,0.0741306811428571
74,0.740000477,-0.9485135571428572,0.5714444714285715,-0.8463734,3.033772885714286,-0.4981459371428571,0.0943758982857142
75,0.750000477,-0.9889602,0.5360170466666667,-1.1531973333333332,2.9549736,-0.58855135,0.14080029
76,0.760000477,-0.91616845,0.5407327871428571,-1.301077657142857,2.662552242857142,-0.6711029857142857,0.1442908485714285
77,0.770000477,-0.8369826142857143,0.5529634828571429,-1.3209394571428572,2.1215161285714284,-0.6452728542857142,0.062611844
78,0.780000477,-0.7768745571428571,0.5146162828571429,-1.2248536285714289,1.6300459,-0.4199574871428571,-0.0169728277142857
79,0.790000477,-0.7585808133333334,0.4597931,-1.1043021666666668,1.3128125333333334,-0.1304158899999999,-0.044082811
80,0.800000477,-0.7471167628571429,0.3995442428571428,-0.9360563657142856,1.072778651428571,0.2418518828571428,-0.0401850228571428
81,0.810000477,-0.7889441128571428,0.35812194,-0.6427683342857142,1.0972125828571428,0.7930106285714286,0.0397487019999999
82,0.820000477,-0.8258916716666667,0.31397666,-0.5383952500000001,1.38529975,0.8412384666666667,0.17928367
83,0.830000477,-0.7667303,0.29394138,-0.5408634285714286,1.5609329142857145,0.7410013571428572,0.2455169614285714
84,0.840000477,-0.6567151666666666,0.2860431266666667,-0.5826864399999999,1.8145218333333333,0.4653638,0.2686709733333333
85,0.850000477,-0.5941940628571428,0.2660477585714286,-0.7056944971428571,1.9468138714285712,0.1325974828571428,0.24132829
86,0.860000477,-0.5911625385714286,0.2592747142857143,-0.9029534071428572,1.9564128428571428,-0.0962084392857142,0.2271915471428571
87,0.870000477,-0.607139075,0.2939958199999999,-1.100521525,1.8139109,-0.0155765999999999,0.29900974
88,0.880000477,-0.6084806142857142,0.3361825142857143,-1.2905543714285714,1.5122396285714286,0.3477902499999999,0.4614078457142857
89,0.890000477,-0.5670714285714286,0.3829099685714285,-1.4452324428571426,1.0535806,0.8933641214285714,0.6656053428571429
90,0.900000477,-0.5006999466666667,0.4064363066666667,-1.4335999333333334,0.28002257,1.6989189666666666,0.9589283666666668
91,0.910000477,-0.3653740942857143,0.3950753128571428,-1.0852636714285715,-0.2942756571428572,2.261291085714286,1.2085613
92,0.920000477,-0.1310137221428571,0.3778443442857143,-0.68540586,-0.3370349614285714,2.260592914285714,1.3181647571428574
93,0.930000477,0.3505605257142857,0.3274015085714286,-0.32198744,0.15681323,1.6669148571428571,1.1668491571428572
94,0.940000477,0.5021024633333334,0.30734518,-0.2694059733333333,0.75001865,0.9357162,0.7536837
95,0.950000477,0.3885461942857143,0.3272055185714285,-0.44126704,1.3298581142857142,0.1313758,0.2432481
96,0.960000477,0.1166836428571428,0.3964429928571428,-0.8337551457142858,1.5740225,-0.2737032057142857,-0.05013311
97,0.970000477,0.0673471378571428,0.3840293671428571,-1.0309443685714286,1.3425986428571428,-0.0234303599999999,-0.0316331631428571
98,0.980000477,0.084909135,0.2981184414285714,-1.1765451857142857,0.8924915,0.5703131628571428,0.1078145422857142
99,0.990000477,0.1068050125,0.24458744,-1.09100885,0.6252022,0.959335635,0.193944005
100,1.000000477,0.0972922614285714,0.2122161971428571,-0.9171180428571428,0.5039926285714286,1.2083868,0.2751866871428571
101,1.010000477,0.10751498,0.1508450342857143,-0.4733682071428571,0.5395962857142858,1.4878057428571427,0.4477946742857143
102,1.020000477,0.1879174666666666,0.1274871199999999,-0.23265585,0.917798,1.3291018666666667,0.4893904766666666
103,1.030000477,0.2844329714285714,0.0742029371428571,-0.2033132499999999,1.615734628571429,0.8047040514285714,0.4146344028571428
104,1.040000477,0.1722138785714285,0.0627257828571428,-0.5232883928571429,2.316812771428571,0.14673424,0.3408091285714286
105,1.050000477,-0.0044616436666666,0.0969873683333333,-1.0378451666666668,2.408265333333333,0.0691275493333333,0.5309280599999999
106,1.060000477,-0.0312082669714285,0.1112956914285714,-1.3098630142857142,2.2096527,0.2195123228571428,0.7980719285714286
107,1.070000477,0.0807669118857142,0.1030547885714285,-1.4912847285714286,1.7110268142857143,0.5048652628571428,1.1727831
108,1.080000477,0.2103679733333333,0.074435236,-1.4518224999999998,1.2788087666666663,0.692599,1.39792395
109,1.090000477,0.3413309,0.033111688,-1.3239491,0.8176191,0.873817,1.5567442
110,1.100000477,0.5972822142857143,0.0046039274285714,-0.9760282,0.5083558171428572,0.9671893628571429,1.533357442857143
111,1.110000477,1.02967895,-0.03009322,-0.7320091999999999,0.53235339,0.89886175,1.2281084
112,1.120000477,1.020351314285714,-0.0142909048571428,-0.7826415428571429,0.6352375,0.7998172285714286,0.77416162
113,1.130000477,0.7714125957142857,0.0293135572857142,-0.8824208914285714,0.6444874714285714,0.7319259,0.3121865742857143
114,1.140000477,0.60727119,0.046059597,-0.8859562133333334,0.5325570000000001,0.7748597133333334,0.1978126999999999
115,1.150000477,0.5035354714285714,0.032741457,-0.8595144314285713,0.4298183171428572,0.8828924257142857,0.2247481528571428
116,1.160000477,0.4689908,-0.0061741394999999,-0.798384965,0.32710871,1.1260968800000002,0.383917495
117,1.170000477,0.4946804628571429,-0.0406513257142857,-0.745344,0.3116629914285714,1.2736601,0.5378510028571429
118,1.180000477,0.6087245466666666,-0.0661115833333333,-0.7499421333333333,0.36966439,1.2798268000000002,0.71296054
119,1.190000477,0.7191882857142857,-0.0623599135714285,-0.8282538614285715,0.4179504085714285,1.1644057571428572,0.7821899
120,1.200000477,1.0826459571428573,-0.0163772628571428,-1.0000104657142856,0.3711769771428571,0.8216332142857142,0.6683977857142857
121,1.210000477,1.1348934666666668,0.0096143826666666,-1.0145612333333334,0.3049146,0.6962640766666667,0.4763590433333333
122,1.220000477,1.0857471285714286,0.0415790828571428,-0.9946529857142856,0.1670667314285714,0.5575726357142857,0.0968192842857142
123,1.230000477,0.8998652428571428,0.0241564628571428,-0.9402770428571428,0.0821807757142857,0.5287755799999999,-0.09167072
124,1.240000477,0.727363325,-0.019166514375,-0.85339580625,0.0128277926874999,0.53800375,-0.1882936674999999
125,1.250000477,0.59796172,-0.0540122979999999,-0.7692216749999999,0.02580829615,0.52074729,-0.160958255
126,1.260000477,0.48401343,-0.0840641385714285,-0.7024495114285714,0.0989354405714285,0.4718794957142857,-0.0277935514285714
127,1.270000477,0.405770635,-0.10110346,-0.6593982300000001,0.201808665,0.444391375,0.18905723
128,1.280000477,0.3872177266666667,-0.08784049,-0.63712051,0.28414578,0.4152743266666667,0.3464522066666666
129,1.290000477,0.47301106,-0.0589102285714285,-0.6752789457142858,0.42562964,0.2636678542857143,0.5682188428571429
130,1.300000477,0.623451,-0.056070345,-0.7854574350000001,0.5946598049999999,0.0161874524999999,0.795628535
131,1.310000477,0.7027718428571428,-0.0516972694285714,-0.8591006442857143,0.64658183,-0.0321567464285714,0.8533972528571427
132,1.320000477,0.7447538499999999,-0.05850951,-0.90064705,0.65452285,-0.007635591,0.88542312
133,1.330000477,0.8081394714285715,-0.080675436,-0.9147920714285716,0.6284309428571427,0.0383524817142857,0.9097697285714286
134,1.340000477,0.8633633533333334,-0.0675852413333333,-0.8918203,0.60015745,0.058335911,0.91352208
135,1.350000477,0.8970078857142857,-0.0552863242857142,-0.8876562714285715,0.5830537285714286,0.0668005071428571,0.9048829657142856
136,1.360000477,1.0747055571428572,-0.0455645041428571,-0.9707099428571428,0.4762427142857143,0.0955975928571428,0.7896946142857143
137,1.370000477,1.2373181333333332,-0.070430937,-1.0379264333333331,0.3383075666666666,0.0947831313333333,0.6144105533333334
138,1.380000477,1.3263274,-0.096469045,-1.0496345,0.2495311,0.083380654,0.48165306
139,1.390000477,1.2379736666666667,-0.1231525158333333,-0.964908965,0.112777675,0.0813444938333333,-0.0296260918333333
140,1.400000477,1.0501526857142858,-0.1520689842857142,-0.8658388642857143,0.1026005242857142,0.0390505935714285,-0.3299011514285714
141,1.410000477,0.9798655142857144,-0.2102213257142857,-0.8637132985714285,0.1745932328571428,-0.0028360767142857,-0.4429951571428571
142,1.420000477,0.92566376,-0.25208788,-0.89548921,0.2307984533333333,-0.031458635,-0.48307838
143,1.430000477,0.8734568685714287,-0.2715532928571428,-0.9494151571428572,0.2128802728571428,-0.0967320277142857,-0.4784242999999999
144,1.440000477,0.8351706499999999,-0.2840104699999999,-0.98569775,0.131561232,-0.16828842,-0.460884255
145,1.450000477,0.8461644085714285,-0.3260425557142857,-0.9233334285714284,-0.0483660117142857,-0.2258825857142857,-0.39883962
146,1.460000477,0.98278092,-0.3327836433333333,-0.8054331333333332,-0.11387211,-0.2342599133333333,-0.3747547866666667
147,1.470000477,1.1671935,-0.3150358057142857,-0.6334298428571429,-0.0239321225714285,-0.37004254,-0.4525942
148,1.480000477,1.2794546999999998,-0.2700767433333333,-0.5465665000000001,0.2453569886666666,-0.6919881466666666,-0.63986252
149,1.490000477,1.3253517,-0.20775603,-0.5527457,0.6331432,-1.1358705,-0.8939749600000001
150,1.500000477,1.3253517,-0.20775603,-0.5527457,0.6331432,-1.1358705,-0.8939749600000001
151,1.510000477,1.2375315333333334,-0.19086988,-0.79870515,0.7610138666666667,-1.2832882333333335,-1.0340625866666666
152,1.520000477,1.1181445,-0.17186978,-1.1306452,0.68567604,-1.3069077,-1.2103938
153,1.530000477,1.1181445,-0.17186978,-1.1306452,0.68567604,-1.3069077,-1.2103938
154,1.540000477,1.1181445,-0.17186978,-1.1306452,0.68567604,-1.3069077,-1.2103938
155,1.550000477,1.1181445,-0.17186978,-1.1306452,0.68567604,-1.3069077,-1.2103938
156,1.560000477,1.1181445,-0.17186978,-1.1306452,0.68567604,-1.3069077,-1.2103938
157,1.570000477,1.1181445,-0.17186978,-1.1306452,0.68567604,-1.3069077,-1.2103938
158,1.580000477,1.1181445,-0.17186978,-1.1306452,0.68567604,-1.3069077,-1.2103938
159,1.590000477,1.1181445,-0.17186978,-1.1306452,0.68567604,-1.3069077,-1.2103938
160,1.600000477,1.1181445,-0.17186978,-1.1306452,0.68567604,-1.3069077,-1.2103938
161,1.610000477,1.1181445,-0.17186978,-1.1306452,0.68567604,-1.3069077,-1.2103938
162,1.620000477,1.1181445,-0.17186978,-1.1306452,0.68567604,-1.3069077,-1.2103938
163,1.630000477,1.1181445,-0.17186978,-1.1306452,0.68567604,-1.3069077,-1.2103938
164,1.640000477,1.1181445,-0.17186978,-1.1306452,0.68567604,-1.3069077,-1.2103938
165,1.650000477,1.1181445,-0.17186978,-1.1306452,0.68567604,-1.3069077,-1.2103938
166,1.660000477,1.1181445,-0.17186978,-1.1306452,0.68567604,-1.3069077,-1.2103938
167,1.670000477,1.1181445,-0.17186978,-1.1306452,0.68567604,-1.3069077,-1.2103938
168,1.680000477,1.1181445,-0.17186978,-1.1306452,0.68567604,-1.3069077,-1.2103938
169,1.690000477,1.1181445,-0.17186978,-1.1306452,0.68567604,-1.3069077,-1.2103938
170,1.700000477,1.1181445,-0.17186978,-1.1306452,0.68567604,-1.3069077,-1.2103938
171,1.710000477,1.1181445,-0.17186978,-1.1306452,0.68567604,-1.3069077,-1.2103938
172,1.720000477,1.1181445,-0.17186978,-1.1306452,0.68567604,-1.3069077,-1.2103938
173,1.730000477,1.1181445,-0.17186978,-1.1306452,0.68567604,-1.3069077,-1.2103938
174,1.740000477,1.1181445,-0.17186978,-1.1306452,0.68567604,-1.3069077,-1.2103938
175,1.750000477,1.1181445,-0.17186978,-1.1306452,0.68567604,-1.3069077,-1.2103938
176,1.760000477,1.1181445,-0.17186978,-1.1306452,0.68567604,-1.3069077,-1.2103938
177,1.770000477,1.1181445,-0.17186978,-1.1306452,0.68567604,-1.3069077,-1.2103938
178,1.780000477,1.1181445,-0.17186978,-1.1306452,0.68567604,-1.3069077,-1.2103938
179,1.790000477,0.0,0.0,0.0,0.0,0.0,0.0
180,1.800000477,-0.0185899334285714,0.0584223957142857,-0.3270835285714285,-0.0714473057142857,-0.0064575285714285,0.1270562371428571
181,1.810000477,-0.039118133,0.04311227,-0.3731315,-0.42133188,0.12980504,0.11270132
182,1.820000477,-0.0755183432857142,0.2240592357142856,-0.8873035,-0.1163882205714285,-0.5332260057142857,0.2633188028571428
183,1.830000477,-0.1785063449999999,0.1885780716666666,-0.6109299499999999,0.1151956066666666,-0.0410285741666666,0.4515179333333334
184,1.840000477,-0.0422237157142857,0.1774972828571428,-0.6933026428571428,0.5999392914285714,-0.0635717451428571,0.6891666142857142
185,1.850000477,0.0363522954285714,0.1817484085714285,-0.8673284857142857,0.8581095214285714,-0.1593875042857142,0.7218033285714285
186,1.860000477,-0.0728904316666666,0.22616157,-1.1845915333333334,0.8241347766666666,-0.3413618233333333,0.5117882133333334
187,1.870000477,-0.1956560142857142,0.2483333,-1.4520359857142855,0.5050397857142858,-0.33723132,0.2699508628571428
188,1.880000477,-0.2712963133333333,0.2243626866666666,-1.5066529,0.0449990866666666,-0.1536280866666667,0.0740143277333333
189,1.890000477,-0.43984273,0.12927583,-1.3456578,-0.5082467142857142,0.1535408185714286,-0.1026659717714285
190,1.900000477,-0.59896785,0.06509526,-1.119425,-0.7988355,0.42545512,-0.07543964
191,1.910000477,-0.7955995242857143,0.0644680457142857,-0.9518804857142856,-0.7597413,0.56595,0.21043688
192,1.920000477,-0.8649808128571428,0.0931326171428571,-0.8634563285714286,-0.5791050428571428,0.6034734285714285,0.6118507871428571
193,1.930000477,-0.7498659249999999,0.1125675433333333,-0.9010993,-0.2421500399999999,0.5869224083333333,1.2050998916666666
194,1.940000477,-0.5070679285714286,0.1143272285714285,-1.0053286857142858,-0.035625485,0.4689125228571428,1.5124142428571428
195,1.950000477,-0.27910166,0.12171442,-1.094779333333333,0.0697892985,0.33016293,1.62271575
196,1.960000477,-0.0822478335714285,0.1407399157142857,-1.186924642857143,0.0809590771428571,0.1153192337142857,1.4715746571428572
197,1.970000477,0.0737136516666666,0.2072885166666666,-1.3870727,-0.09575031,-0.049784053,1.092500325
198,1.980000477,-0.0581959042857142,0.2581248228571428,-1.4713010142857144,-0.5192419800000001,-0.1531045057142857,0.6661289214285714
199,1.990000477,-0.1699402257142857,0.2673588057142857,-1.392733757142857,-0.9702218085714288,-0.1321611714285714,0.5167331757142857
200,2.000000477,-0.28268927,0.2593850333333333,-1.0341508083333333,-1.2985085,-0.06933116,0.59160554
201,2.010000477,-0.2873686671428572,0.2505285628571428,-0.69305003,-1.1299146714285713,0.0626118485714285,0.8230293971428572
202,2.020000477,-0.181966925,0.23206638,-0.5626751233333334,-0.730217,0.1813198333333333,1.07845084
203,2.030000477,-0.0003179654285714,0.2170858157142857,-0.6174358714285715,-0.2642568857142857,0.1168899928571428,1.1909339714285714
204,2.040000477,0.1306580256666666,0.20817271,-0.7925767,0.0144058166666666,-0.0615937633333333,1.099016
205,2.050000477,0.1964879485714285,0.2266508585714285,-1.0910131571428572,0.1560060271428571,-0.3506699585714285,0.8099398142857144
206,2.060000477,0.1577923148571428,0.2556507928571428,-1.288768557142857,0.0032942099999999,-0.6044333942857143,0.4383701785714286
207,2.070000477,0.0717521553333333,0.2716215533333333,-1.3733322,-0.3789798176666667,-0.76752955,0.05589252675
208,2.080000477,-0.016342418,0.2544660733333333,-1.2018384333333334,-0.6782949933333334,-0.7294534,-0.2550287273
209,2.090000477,-0.1408836438571428,0.2387857114285714,-0.9302154085714286,-0.8194297657142856,-0.6265983714285713,-0.4628913185714285
210,2.100000477,-0.3960749533333333,0.2990469116666667,-0.6381723766666667,-0.412983645,-0.3739403333333334,-0.53724018
211,2.110000477,-0.5276701057142856,0.3038025671428572,-0.5811401428571428,0.1906934428571428,-0.2997078457142857,-0.4845327842857143
212,2.120000477,-0.5265754333333333,0.2541459316666667,-0.6698256499999999,0.5209509083333334,-0.3879898166666666,-0.4329888933333333
213,2.130000477,-0.4907167628571428,0.1432226471428571,-0.9544198342857142,1.0818540914285717,-0.6909991714285714,-0.3768491314285714
214,2.140000477,-0.5051615833333333,0.0575948233333333,-1.2162853833333334,1.4618592833333333,-1.0328408833333331,-0.3128556133333333
215,2.150000477,-0.4603447828571428,0.0046605502857142,-1.384863,1.4874567,-1.1920683857142855,-0.2929012628571428
216,2.160000477,-0.45277032,-0.07329696,-1.6265583,1.253967616666667,-1.5899336666666668,-0.26907822
217,2.170000477,-0.4657501942857142,-0.0679830628571428,-1.6134565285714284,0.90348675,-1.783194057142857,-0.1895808085714285
218,2.180000477,-0.4396467457142857,-0.0277411671428571,-1.450363342857143,0.3349406428571428,-1.8224627714285713,0.0456826542857142
219,2.190000477,-0.319622305,0.0559839604166666,-1.1110862,-0.0837369833333333,-1.6726016,0.294326585
220,2.200000477,-0.1595824871428571,0.1087127878571428,-0.8672893428571429,-0.2330164071428571,-1.4756761142857144,0.4097476128571428
221,2.210000477,0.03823394,0.13927643,-0.6982114999999999,-0.304049225,-1.1741502333333331,0.4089622466666667
222,2.220000477,0.1184215471428571,0.1626445085714285,-0.6854929714285714,-0.3127756142857142,-0.8698901,0.2425499942857143
223,2.230000477,0.1914949166666666,0.1810979533333333,-0.6937396733333333,-0.325428875,-0.67529162,0.0913216635
224,2.240000477,0.1476784797142857,0.1963137028571428,-0.7491465042857143,-0.39619989,-0.3899387042857142,-0.3169860988571428
225,2.250000477,-0.0946570951428571,0.2015404985714285,-0.8279315542857143,-0.5071995585714285,-0.0642698614285714,-0.8433619142857144
226,2.260000477,-0.5004560166666666,0.1809353566666666,-0.8260034266666666,-0.611305385,0.153017235,-1.15114165
227,2.270000477,-0.7522346557142857,0.1827589257142857,-0.8059442342857144,-0.6337322285714285,0.1292814557142857,-1.2030636571428572
228,2.280000477,-0.9409260028571428,0.1587636285714286,-0.7763737085714286,-0.5942889485714286,-0.0586849671428571,-0.960121
229,2.290000477,-0.9115776,0.10095101,-0.7580015699999999,-0.5349495,-0.08521319,-0.73637635
230,2.300000477,-0.7831554857142857,-0.0084456142857142,-0.81886743,-0.38206314,0.16505965,-0.4913393585714285
231,2.310000477,-0.7910217166666667,-0.0354187341666666,-0.8916424150000001,-0.2625116,0.4046863,-0.33321717
232,2.320000477,-0.8385070685714285,-0.0296402317142857,-0.9299104785714286,-0.2389503571428571,0.4134126999999999,-0.2415900914285714
233,2.330000477,-0.8670061757142857,-0.0191866595714285,-0.9479996,-0.1949693571428571,0.2734414085714285,-0.0740434142857142
234,2.340000477,-0.890926,0.0108238023333333,-0.9247694666666666,-0.1436000133333333,0.077679408,0.04225027
235,2.350000477,-0.9172007642857144,0.068889036,-0.9077054442857142,-0.0893800468571428,-0.0962084402857142,0.1690738
236,2.360000477,-0.90645534,0.22202514,-0.9200537,-0.0230594843333333,-0.2358888516666667,0.448260075
237,2.370000477,-0.8653161685714286,0.31510549,-0.8942464357142857,-0.026026456,-0.105982,0.6059168285714286
238,2.380000477,-0.7744405,0.4654031716666666,-0.8365376383333333,-0.0362945093333333,0.1127013183333333,0.6785495016666667
239,2.390000477,-0.7260832857142858,0.5380410085714286,-0.8289769600000001,-0.0618046548571428,0.25982825,0.6277327814285715
240,2.400000477,-0.6302676285714286,0.5637219285714286,-0.81552668,-0.104563962,0.3856627857142857,0.4949171714285714
241,2.410000477,-0.55389915,0.52703785,-0.8060429916666667,-0.1191661233333333,0.4788024533333333,0.2869964
242,2.420000477,-0.5210930857142857,0.4782988314285714,-0.8502238271428572,-0.12079505,0.5279029128571429,0.0784938714285714
243,2.430000477,-0.4432677416666666,0.4236375283333333,-0.9021614066666668,-0.1503193333333333,0.5394799283333332,-0.19557292
244,2.440000477,-0.3854319042857143,0.3790769942857143,-0.9380687028571428,-0.1652996357142857,0.4755445857142857,-0.4258914142857142
245,2.450000477,-0.4032501716666667,0.3345063016666666,-1.079976605,-0.22178846,0.3277195666666666,-0.8121214333333334
246,2.460000477,-0.5312723114285715,0.2750683128571428,-1.2350372,-0.5171476657142857,0.2523235571428571,-1.2519314714285714
247,2.470000477,-0.7071101142857144,0.2385417785714285,-1.2536446285714289,-0.8756277228571429,0.3793797885714286,-1.553864557142857
248,2.480000477,-0.9069126916666668,0.2453191916666666,-1.12256545,-1.0215911533333333,0.55454751,-1.641652033333333
249,2.490000477,-1.0729153571428571,0.2304228671428571,-0.9516713342857144,-1.0580092285714284,0.7741616,-1.5725390142857143
250,2.500000477,-1.1420229166666669,0.212161775,-0.8311765483333332,-0.88333605,0.9120967333333332,-1.3087402333333331
251,2.510000477,-1.1310938857142856,0.2020980228571428,-0.7678366085714285,-0.6106945714285715,0.9767884142857144,-0.9782718857142856
252,2.520000477,-1.0511792,0.1954077399999999,-0.7633676666666668,-0.2018341166666667,0.96503685,-0.516674975
253,2.530000477,-0.8799815857142858,0.2235888214285714,-0.8561431685714286,0.0921288614285714,0.9087225285714284,-0.1754440557142857
254,2.540000477,-0.6747301071428572,0.2561386471428571,-0.9553997942857144,0.3112703114285714,0.8343737285714286,0.1120032085714285
255,2.550000477,-0.033751972,0.31571963,-1.0271941,0.48816875,0.7404486833333334,0.0858240416666666
256,2.560000477,0.1072405725714285,0.3159287214285715,-1.1474623000000002,0.5563509571428571,0.6108036,-0.2855711014285714
257,2.570000477,0.1067287883333333,0.2974665283333333,-1.3322525,0.486132625,0.5284846733333334,-0.6883230483333334
258,2.580000477,-0.029840592,0.2554809314285714,-1.4492744571428573,0.3223091871428571,0.5402944,-0.9438899057142855
259,2.590000477,-0.142101784,0.20821845,-1.4378786833333332,0.0694075175,0.6019899683333333,-1.09188955
260,2.600000477,-0.2203133799999999,0.1726886528571428,-1.354003242857143,-0.0932196571428571,0.6158649628571428,-1.089969757142857
261,2.610000477,-0.2685624199999999,0.1214755866666666,-1.1988250333333337,-0.23563433,0.56106323,-1.0002624
262,2.620000477,-0.2856743399999999,0.1150241328571428,-1.1453629857142855,-0.23563433,0.56106323,-1.0002624
263,2.630000477,-0.31635994,0.11903133,-1.0735382,-0.2375541357142857,0.5572236185714285,-0.9730360571428572
264,2.640000477,-0.31635994,0.11903133,-1.0735382,-0.2490729699999999,0.53418595,-0.809678
265,2.650000477,-0.31635994,0.11903133,-1.0735382,-0.24907297,0.53418595,-0.809678
266,2.660000477,-0.31635994,0.11903133,-1.0735382,-0.2490729699999999,0.53418595,-0.809678
267,2.670000477,-0.3247227914285714,0.1253034728571428,-1.0708899714285711,-0.2581484042857143,0.5453557214285715,-0.7545272285714286
268,2.680000477,-0.33099493,0.13000758,-1.0689038,-0.26495498,0.55373305,-0.71316415
269,2.690000477,-0.33099493,0.13000758,-1.0689038,-0.26495498,0.55373305,-0.71316415
270,2.700000477,0.0652651228571428,0.2110750357142857,-0.5805521571428571,-0.34436515,0.75164753,-0.353986
271,2.710000477,0.2361723,0.2205616499999999,-0.39096794,-0.34436515,0.75164753,-0.3539860000000001
272,2.720000477,0.3089553,0.1709855957142857,-0.5053822485714285,0.5172131214285715,0.2537197668571428,-0.0003926914285714
273,2.730000477,0.3210858,0.16272292,-0.5244513,0.9068028,0.029626092,0.12369657
274,2.740000477,0.3210858,0.16272292,-0.5244513,0.9068028,0.029626092,0.12369657
275,2.750000477,0.3210858,0.16272292,-0.5244513,0.9068028,0.029626092,0.12369657
276,2.760000477,0.3210858,0.16272292,-0.5244513,0.9068028,0.029626092,0.12369657
277,2.770000477,0.2644318014285714,0.18363441,-0.5702989142857142,0.7017108234285715,0.2481348871428571,0.2640169114285714
278,2.780000477,0.6181712583333333,0.2220200716666666,-0.2663671666666666,0.77852485,0.3212038583333333,0.8078455216666667
279,2.790000477,0.7327823428571428,0.2548145171428571,-0.4272200571428571,1.303678942857143,0.0205506457142857,0.5629830142857143
280,2.800000477,0.6530005083333333,0.2834362466666666,-0.7632457333333335,1.7139355833333332,-0.1853921483333333,0.17256435
281,2.810000477,0.5450840842857143,0.2531158071428571,-1.02090886,1.7017768285714283,-0.0904490285714285,-0.0714255014285714
282,2.820000477,0.4429962442857142,0.1848452814285714,-1.150454757142857,1.5129377714285714,0.2439462142857142,-0.2428117785714285
283,2.830000477,0.325964135,0.102551717,-1.16860475,1.2366603,0.6239804649999999,-0.33321717
284,2.840000477,0.25861263,0.060948674,-1.1484816,1.0839485,0.78829837,-0.3503209
285,2.850000477,0.25861263,0.060948674,-1.1484816,1.0839485,0.78829837,-0.3503209
286,2.860000477,0.25861263,0.060948674,-1.1484816,1.0839485,0.78829837,-0.3503209
287,2.870000477,0.2059004985714286,0.0559614501428571,-1.1189851185714286,1.0090760714285714,0.7947559028571429,-0.2391467
288,2.880000477,0.0203772041666666,0.0311197036666666,-0.8508931216666666,0.527263,0.6156322166666667,0.5531221666666667
289,2.890000477,0.2088710718571428,0.0003571639142857,-0.7688776171428572,0.5856716285714285,0.3835684485714285,0.5886386142857143
290,2.900000477,0.2507666666666667,-0.0484631904333333,-0.8111194949999999,0.6799748083333333,0.259508275,0.5333714500000001
291,2.910000477,0.2284497342857143,-0.0744381431428571,-0.9395365857142856,0.6818364428571428,0.2322528542857143,0.5106246671428571
292,2.920000477,0.1615643,-0.0810209846666666,-1.1000743666666668,0.4771735133333333,0.3639631666666666,0.5736873833333334
293,2.930000477,0.1176897914285714,-0.08350661,-1.1629074857142858,0.3123611014285714,0.4619314257142857,0.6409969314285714
294,2.940000477,0.11042891,-0.1191402185714285,-1.0705937857142858,-0.1066146685714285,0.5530349314285715,0.90470844
295,2.950000477,0.137797665,-0.139306905,-0.9628763,-0.338256675,0.563506605,1.097998
296,2.960000477,0.2500320114285714,-0.1667998085714285,-0.8169509799999999,-0.5052797657142857,0.5319170857142856,1.3363156714285715
297,2.970000477,0.5360627666666666,-0.1937714666666666,-0.671563565,-0.5211036333333333,0.5305208666666666,1.4284663000000002
298,2.980000477,0.7687295628571429,-0.1858035257142857,-0.6048740928571429,-0.4326762,0.4797332757142857,1.3349194000000002
299,2.990000477,0.8654366583333334,-0.1975115183333333,-0.6221145666666666,-0.3608580249999999,0.3210002466666666,1.1491054833333334
300,3.000000477,0.8193901285714286,-0.2172687642857143,-0.70022376,-0.3675773371428571,0.2299839942857142,1.0389202857142856
301,3.010000477,0.6990085757142858,-0.2099861157142857,-0.7623833171428572,-0.56165225,0.4106202428571429,1.085868257142857
302,3.020000477,0.64405181,-0.2132847966666666,-0.7257842,-0.6917336500000001,0.5887549666666666,1.1690598666666665
303,3.030000477,0.64585214,-0.2022504714285714,-0.6032842942857143,-0.7717837214285714,0.871548157142857,1.3207827
304,3.040000477,0.7306828333333334,-0.2206022933333333,-0.4296795333333333,-0.6216897833333334,1.0876135166666667,1.5410658666666668
305,3.050000477,0.8749944000000001,-0.2463166371428571,-0.3350239142857143,-0.3588509514285714,0.9951138,1.6483713428571427
306,3.060000477,1.1368092266666667,-0.2480327616666666,-0.3466614916666666,-0.0010689866666666,0.7569415866666667,1.7013114666666669
307,3.070000477,1.3909130285714286,-0.2483463814285714,-0.4212615085714285,0.4227935628571428,0.3671628428571428,1.6040412714285714
308,3.080000477,1.5694861428571427,-0.2313854528571428,-0.6705966142857143,0.8239020428571429,-0.0960339114285714,1.3017591571428573
309,3.090000477,1.552214566666667,-0.2031216066666666,-0.9551167,0.9251281666666666,-0.29941696,1.0648085733333332
310,3.100000477,1.473369942857143,-0.1571694485714285,-1.3251426714285712,0.7551381214285715,-0.4152452571428572,0.7291334371428572
311,3.110000477,1.3641447,-0.1308917833333333,-1.4497441333333334,0.34349978,-0.3898223666666667,0.4661782466666667
312,3.120000477,1.2981854428571429,-0.1466069857142857,-1.4171297142857142,-0.09810643,-0.3028493357142857,0.2367905699999999
313,3.130000477,1.251887,-0.214341765,-1.27891605,-0.447598345,-0.1420219815,0.0833806485
314,3.140000477,1.1847337571428571,-0.3287256157142857,-1.0767527,-0.8386278628571429,0.1203805352857142,-0.1339064532857143
315,3.150000477,1.0443546666666668,-0.3591927216666666,-1.0709364833333332,-0.98555119,0.2794626216666666,-0.2175634333333333
316,3.160000477,0.9163209,-0.3427116285714286,-1.047473957142857,-1.1871598142857145,0.5226670785714286,-0.1855666742857143
317,3.170000477,0.8817078833333333,-0.29759359,-0.9219084166666668,-1.3703849166666666,0.7306751333333334,-0.103742225
318,3.180000477,0.9703920142857144,-0.2938891028571428,-0.7942231571428572,-1.4700694,0.8270435571428572,-0.0461189675714285
319,3.190000477,1.1267208142857144,-0.3014722999999999,-0.6385564171428572,-1.4798428857142858,0.8633453257142857,-0.074043415
320,3.200000477,1.2185721666666665,-0.2699496966666666,-0.438872125,-1.32518215,0.8785001466666666,-0.209826035
321,3.210000477,1.2358778428571429,-0.2238327428571428,-0.29326187,-1.1503344285714283,0.8827179028571429,-0.3093068671428571
322,3.220000477,1.2439445,-0.18824269,-0.185102265,-0.713927735,0.8585458200000001,-0.5128062649999999
323,3.230000477,1.1025991428571429,-0.1912045371428571,-0.2744018885714285,0.0779266657142857,0.7720672857142857,-0.7583668571428571
324,3.240000477,0.8857630833333333,-0.1846652483333333,-0.5078853366666666,0.6473962833333333,0.6594095733333334,-0.759588575
325,3.250000477,0.8186365971428572,-0.1292758414285714,-0.7009947428571428,0.9015669142857144,0.5361057285714286,-0.5740655228571429
326,3.260000477,1.0375692714285716,-0.0780359105714285,-0.9154062514285716,1.0790616,0.1969982399999999,-0.24403349
327,3.270000477,1.4276443,-0.06794604,-1.0975792766666668,1.04241085,-0.1827451266666666,-0.2481057983333333
328,3.280000477,1.7811056714285711,-0.0612797071428571,-1.3366764,0.803656842857143,-0.7079283114285714,-0.5672589514285714
329,3.290000477,1.8244459,-0.0682915891666666,-1.4898531666666666,0.341565425,-1.0413927883333334,-1.09575815
330,3.300000477,1.6868754714285714,-0.1087824785714285,-1.4713053428571428,-0.1301322885714285,-1.0287104142857142,-1.4552562857142857
331,3.310000477,1.4285742499999998,-0.175665735,-1.35675595,-0.7756233199999999,-0.8780929,-1.87988245
332,3.320000477,1.1064626585714286,-0.1987311128571428,-1.0786996428571427,-1.0690045228571428,-0.7081028428571428,-1.9629577142857144
333,3.330000477,0.6121044957142858,-0.1703409471428571,-0.53141166,-1.1950135857142856,-0.5677825,-1.6861566428571428
334,3.340000477,0.6197922666666666,-0.10383228,-0.3273819033333333,-0.7988355,-0.6960605000000001,-1.085781
335,3.350000477,0.7632587942857142,-0.0834717742857142,-0.2475623542857143,-0.4576336857142857,-0.8321921428571429,-0.7882111428571429
336,3.360000477,0.983258575,-0.1188941358333333,-0.345192905,0.0423011733333333,-0.9589283833333332,-0.38819345
337,3.370000477,1.424364442857143,-0.1415195785714285,-0.5388903514285713,0.3664429142857143,-0.933592757142857,-0.2628824771428571
338,3.380000477,1.718253585714286,-0.0580826585714285,-0.7964837857142858,0.54867172,-0.9573285,-0.668136
339,3.390000477,1.4994981,0.0527164883333333,-1.0892505666666668,0.3114302983333333,-1.07539655,-1.41869276
340,3.400000477,0.8932445857142858,0.1189572928571428,-1.271576842857143,-0.2722415228571428,-1.0334226857142856,-1.8271749857142856
341,3.410000477,0.6627622666666667,0.0879522866666666,-1.1165895666666668,-0.60580775,-0.997819025,-1.9715095
342,3.420000477,0.3117777942857143,0.0542061228571428,-0.6940910457142858,-0.8328684142857143,-0.9657059014285716,-1.8819767571428572
343,3.430000477,0.0646226733333333,0.0286398841666666,-0.2327676466666667,-0.6630238166666667,-0.92349929,-1.3993492166666668
344,3.440000477,0.1119751757142857,0.0286514991428571,-0.1631454071428571,-0.2902615385714285,-0.9393521857142858,-0.9646587142857144
345,3.450000477,0.2711612985714285,0.0619504802857142,-0.2598627214285714,0.1330774371428571,-0.9215503571428572,-0.5321788571428572
346,3.460000477,0.47923526,0.1390325,-0.5012488,0.4828747499999999,-0.81741545,-0.3226291666666667
347,3.470000477,0.4472212314285714,0.15575822,-0.6462136857142857,0.6088837914285714,-0.7379471142857142,-0.3970943314285713
348,3.480000477,0.34691051,0.1363900733333333,-0.7657560499999999,0.5396835666666667,-0.6137996666666666,-0.5246159666666667
349,3.490000477,0.3439660714285714,0.0720033292857142,-0.7792571742857143,0.4402899857142857,-0.4068678928571428,-0.6674379142857143
350,3.500000477,0.30840214,-0.016296681,-0.769831525,0.423622575,-0.26052635,-0.7815791000000001
351,3.510000477,0.1714472842857142,-0.0596942464285714,-0.8611608571428571,0.4666436728571428,-0.1752695357142857,-0.8133431371428571
352,3.520000477,-0.0608049457142857,0.0246922078571428,-1.2069345428571427,0.4146344,-0.1560714742857143,-0.6040843057142856
353,3.530000477,-0.10476221,0.13805683,-1.4449929,0.1254018533333333,-0.1426328333333333,-0.17419328
354,3.540000477,-0.0489140025714285,0.1962048357142856,-1.3121541,-0.15029024,-0.2705617042857143,0.0587722257142857
355,3.550000477,0.074272622,0.2431188616666666,-0.999804275,-0.3993414,-0.56167406,0.2678565
356,3.560000477,0.2393040257142857,0.2444654785714285,-0.71812117,-0.3354642171428571,-0.7595885942857142,0.2039793514285714
357,3.570000477,0.43212888,0.21248192,-0.46490517,-0.168033895,-0.9442680583333334,-0.05507806
358,3.580000477,0.3831495371428571,0.1610634057142857,-0.4635113628571429,0.0011998799999999,-0.9807152642857144,-0.3918585154285714
359,3.590000477,0.1697093821428571,0.0758363071428571,-0.5400053828571428,0.17271706,-0.8061874928571429,-0.7873384571428571
360,3.600000477,-0.1622960616666666,0.028812658,-0.7118707999999999,0.1994416333333333,-0.5486426466666666,-0.9074135933333332
361,3.610000477,-0.4852199571428571,0.0415573022857142,-0.9029882285714284,0.1004189305714285,-0.1995288928571428,-0.8592439228571429
362,3.620000477,-0.9289515583333332,0.101342296,-1.1611957666666666,-0.30649263,0.35215345,-0.41384903
363,3.630000477,-1.023400257142857,0.1318195414285714,-1.1604683857142857,-0.5010911085714286,0.4551248428571428,-0.0752651114285714
364,3.640000477,-0.9885992833333334,0.1860525233333333,-0.92216255,-0.6514177,0.4344142133333333,0.3932838186666667
365,3.650000477,-0.7711381885714286,0.2447703885714285,-0.6165647,-0.5054542857142857,0.0652297622857142,0.9294913514285714
366,3.660000477,-0.3605741885714285,0.2557204971428571,-0.3357643857142857,-0.1260308771428571,-0.3864481325714285,1.1254860457142857
367,3.670000477,-0.05646671,0.15903367,-0.39145577,0.5176675586666667,-0.8082527166666668,1.2067287666666668
368,3.680000477,-0.0172440377142857,0.0945481985714285,-0.7674576485714286,1.0059345857142858,-0.6864614142857143,1.1973915428571429
369,3.690000477,-0.0338739281333333,0.0537124825,-1.4185482333333337,1.0774328000000002,-0.182948755,1.1812767666666666
370,3.700000477,-0.0672556685714285,0.0540493198571428,-1.6287274,0.9462460714285716,0.0189798974285714,1.1715614
371,3.710000477,-0.1085124333333333,0.0696483726666666,-1.8021172666666665,0.697256725,0.1572931725,1.15745375
372,3.720000477,-0.1347596085714285,0.1070271537142857,-1.9468165285714285,-0.33127555,0.4092240342857143,1.0835993857142858
373,3.730000477,-0.1060209942857142,0.1393112657142857,-1.617982071428571,-1.3234660142857142,0.2696017985714286,0.886383
374,3.740000477,-0.0913467933333333,0.1686531283333333,-1.159361283333333,-1.7965526333333337,0.0402141108333333,0.75103671
375,3.750000477,-0.0355334314285714,0.1912960042857143,-0.675745,-1.828200385714286,-0.2002270018571428,0.6694449485714286
376,3.760000477,-0.0226131083333333,0.1858949866666666,-0.3609357,-1.5737970666666667,-0.4338033466666666,0.61889005
377,3.770000477,-0.0273752921428571,0.1385185285714285,-0.1125022071428571,-0.9880236142857144,-0.74300841,0.5841008428571428
378,3.780000477,-0.0843900868333333,0.0596122175,-0.3213957616666666,-0.20305581,-0.9693127916666668,0.5802030916666666
379,3.790000477,-0.1726494528571428,0.048160475,-0.6171788928571428,0.2330818514285714,-1.0344698571428572,0.5631575228571428
380,3.800000477,-0.3277238285714285,0.0711583362857142,-1.176736742857143,0.3155026114285714,-0.9932812857142856,0.5729310857142857
381,3.810000477,-0.4115484,0.1024145,-1.644852,-0.096335705,-0.8149720500000001,0.5681897666666667
382,3.820000477,-0.3730226142857143,0.1280475428571428,-1.706049,-0.6215152771428573,-0.6454473971428571,0.5542566285714285
383,3.830000477,-0.297456365,0.13000759,-1.62021645,-1.07554935,-0.48653984,0.51219543
384,3.840000477,-0.30831066,0.25714916,-1.0237793,-1.5058475714285715,-0.4798205285714286,0.4020683885714285
385,3.850000477,-0.3524443433333333,0.4013394766666667,-0.6613597416666667,-1.3844344,-0.7823935533333334,0.4299346566666666
386,3.860000477,-0.3161247157142857,0.4709682542857143,-0.5311851657142858,-0.9162927142857142,-1.2590871571428572,0.5633320714285714
387,3.870000477,-0.1685507735714285,0.5014186328571428,-0.5546491142857143,-0.5403598428571429,-1.4884166142857145,0.6226715142857143
388,3.880000477,-0.0002134275714285,0.44534391,-0.7663426542857142,-0.1358044371428571,-1.456652557142857,0.3926438914285714
389,3.890000477,-0.0079679443333333,0.4170060366666666,-0.86651401,-0.0470861439999999,-1.3749154,0.2621552866666666
390,3.900000477,-0.168254595,0.3354681757142857,-1.0767919,-0.0885074097142857,-1.1458185857142855,0.0308477908571428
391,3.910000477,-0.4084486466666666,0.22721854,-1.251627933333333,-0.24622236,-0.8894954,-0.1646233286666666
392,3.920000477,-0.5554636142857142,0.18634798,-1.2823483428571427,-0.4092894828571429,-0.8358571857142857,-0.1883591142857143
393,3.930000477,-0.6252549599999999,0.16979649,-1.2993237666666666,-0.51479153,-0.93917765,-0.16828842
394,3.940000477,-0.6307772057142856,0.1713645257142857,-1.2750874428571428,-0.6740481485714286,-1.2854408,-0.1227366662857143
395,3.950000477,-0.6331467257142858,0.1788910971428571,-1.2190388142857145,-0.7733544457142857,-1.5248929714285713,-0.0822462224285714
396,3.960000477,-0.6697342000000001,0.22812307,-1.0979605,-0.85442261,-1.5659070166666669,0.0336984058333333
397,3.970000477,-0.6843953457142857,0.2678466357142857,-1.0935699571428572,-0.9260662714285716,-1.409355557142857,0.1327720137142857
398,3.980000477,-0.7644348,0.30547515,-1.084545,-1.0364551333333334,-1.055849466666667,0.24342262
399,3.990000477,-0.8153306571428571,0.3384256571428571,-1.0491553571428571,-1.1133346,-0.73131505,0.3572147442857142
400,4.000000477,-0.8792586,0.4261528999999999,-0.95787605,-1.151498,-0.5026254833333333,0.4690288999999999
401,4.010000477,-0.8785529857142856,0.5231969114285715,-0.6936990285714286,-1.108273242857143,-0.1094725571428571,0.8109869857142857
402,4.020000477,-0.8453694,0.5738902,-0.3815669916666667,-0.8790600999999999,-0.1434473,0.9984298333333332
403,4.030000477,-0.7361274428571428,0.6005228571428571,-0.2267161914285714,-0.4241243428571429,-0.3792925228571429,1.146778457142857
404,4.040000477,-0.5395045057142857,0.5906965085714286,-0.3122089857142857,0.0723417728571428,-0.5958815114285715,1.1605661142857144
405,4.050000477,-0.4735388083333333,0.5756433333333333,-0.5676754216666666,0.435025045,-0.6592059933333334,1.013701016666667
406,4.060000477,-0.4945802414285714,0.5857484742857143,-0.7720746714285713,0.4966624742857143,-0.5567872785714286,0.8431001142857142
407,4.070000477,-0.5578069166666667,0.6153408,-0.9063740533333332,0.4319708266666666,-0.3727186233333333,0.6636855333333334
408,4.080000477,-0.6672558428571429,0.6987385057142858,-0.9765291242857144,0.2662857742857142,-0.1443781108571428,0.4643748057142857
409,4.090000477,-0.68231118,0.74231467,-0.97214512,0.1305176966666666,-0.0098753646666666,0.3411582
410,4.100000477,-0.6484829857142858,0.7692304428571429,-0.9486964428571428,0.0162092657142857,0.1570313814285714,0.201012388
411,4.110000477,-0.5835909533333333,0.7506230500000001,-0.8833645666666667,-0.1383060033333333,0.5374437799999999,-0.115348318
412,4.120000477,-0.7775410028571429,0.7616690142857143,-0.6724695285714286,-0.0869366571428571,0.7956285571428572,-0.4129763842857143
413,4.130000477,-0.9317210833333333,0.789268625,-0.5033322166666666,0.1749822863333333,0.6917845183333333,-0.4549793883333333
414,4.140000477,-0.8927698714285714,0.7544996142857142,-0.4882166428571429,0.4727521514285714,0.4654219799999999,-0.4253678557142857
415,4.150000477,-0.7721443514285714,0.6834937,-0.5771939771428573,0.8045294742857143,0.2062482142857142,-0.4243206871428571
416,4.160000477,-0.6576705016666666,0.6339699,-0.723553405,1.0741748666666666,0.0481551249999999,-0.4834856
417,4.170000477,-0.5909578142857143,0.5997736571428571,-0.8250481542857143,1.1424152571428572,0.0496967882857142,-0.5747636385714285
418,4.180000477,-0.5042824499999999,0.53280547,-0.99374703,1.12304265,0.103538615,-0.741263165
419,4.190000477,-0.5180180428571429,0.4766567257142857,-1.1378016,0.9727742014285712,0.19664918,-0.9616917285714284
420,4.200000477,-0.5761464500000001,0.43970554,-1.16811695,0.6490252049999999,0.3295520799999999,-1.1584717999999998
421,4.210000477,-0.5403538514285714,0.3729355385714285,-1.0827940314285711,0.4170777914285714,0.4087004428571428,-1.2117900714285714
422,4.220000477,-0.3402376114285714,0.2810224928571428,-0.8270386485714285,0.3481393128571429,0.4584408571428571,-1.3374500714285715
423,4.230000477,-0.4064261599999999,0.3266959,-0.85416573,0.5282810616666667,0.39979954,-1.54391645
424,4.240000477,-0.5078780514285715,0.3051615314285714,-1.0217103900000002,0.5975395,0.2765829085714285,-1.7151282285714289
425,4.250000477,-0.6764978166666666,0.2222487366666666,-1.1171434166666667,0.5183039166666666,0.2621552683333333,-1.7595455666666666
426,4.260000477,-0.8522230914285716,0.1982302042857142,-1.1394523428571428,0.3870590028571428,0.39595991,-1.6255954714285714
427,4.270000477,-0.91586138,0.2037009,-1.1259041,0.305118205,0.52196897,-1.4235795
428,4.280000477,-0.8857311457142857,0.2110532528571428,-1.062954,0.1827524114285714,0.7977228928571429,-0.8798382
429,4.290000477,-0.75941279,0.2227830228571428,-0.9855452928571428,0.1685720285714285,0.8874301714285714,-0.5829664642857143
430,4.300000477,-0.597392555,0.2820947166666667,-0.9323714583333332,0.2366778566666666,0.7094990833333333,-0.2894397916666666
431,4.310000477,-0.5226654857142857,0.2995166085714285,-0.9269530428571428,0.2537197714285714,0.6017281771428572,-0.2190760028571428
432,4.320000477,-0.2773942199999999,0.3114917566666667,-0.9146875266666666,0.2739650033333333,0.3130592199999999,-0.2094188
433,4.330000477,-0.1401127014285714,0.28585727,-0.9153495257142856,0.2901960799999999,0.2446443271428571,-0.3503209057142857
434,4.340000477,-0.0424567433333333,0.2481699666666666,-0.9614636166666668,0.29839888,0.42056835,-0.56900424
435,4.350000477,-0.0321839328571428,0.2473924757142857,-1.0004896142857145,0.2835640371428571,0.6134215571428572,-0.6737209257142858
436,4.360000477,-0.1134517414285714,0.2693667485714285,-1.0851635714285714,0.2322528642857143,0.84065674,-0.7732017428571429
437,4.370000477,-0.1985786633333333,0.2825469666666667,-1.1632691333333334,0.1301104673333333,1.0065744333333333,-0.7750633666666666
438,4.380000477,-0.2709435085714285,0.2875646728571429,-1.1884143,0.0210960462857142,1.0951182,-0.7273009271428571
439,4.390000477,-0.32214278,0.2875879,-1.146184766666667,-0.1049130133333333,1.1332235,-0.6304961866666666
440,4.400000477,-0.3377418428571428,0.2677638742857143,-0.9929760714285716,-0.1541298471428571,1.0799343857142858,-0.4588772142857142
441,4.410000477,-0.2077255416666666,0.2128935183333333,-0.6910820000000001,0.0842460225,0.9660549666666668,-0.1234929583333333
442,4.420000477,-0.0750479342857142,0.18791602,-0.5725116714285715,0.3028711628571429,0.9193687457142856,-0.0551944128571428
443,4.430000477,0.0036689133333333,0.15367258,-0.5658613,0.742484825,0.7398378416666667,-0.0711637066666666
444,4.440000477,-0.0206458031428571,0.1210175194285714,-0.7220281571428571,1.008028842857143,0.579214107142857,-0.1483922545714285
445,4.450000477,-0.1212469141666666,0.1186248043333333,-0.9694163333333332,1.1562320666666668,0.45660832,-0.2122694233333333
446,4.460000477,-0.2091890314285714,0.1099541471428571,-1.123510714285714,1.1258351285714288,0.4387192214285714,-0.20528831
447,4.470000477,-0.3153131,0.0966418133333333,-1.2883170666666668,0.8147684266666667,0.4511107066666666,-0.0799191813333333
448,4.480000477,-0.3446847428571428,0.0909852717142857,-1.327886757142857,0.5457047714285714,0.4971860485714286,0.0465552888571428
449,4.490000477,-0.2815364528571428,0.0771517111428571,-1.2487793428571428,0.0605829585714285,0.6827090714285714,0.28461118
450,4.500000477,-0.2062925133333333,0.08396831,-1.0902262333333332,-0.180047235,0.88114715,0.39552359
451,4.510000477,-0.0335036982857142,0.0894999957142857,-0.6904323000000001,-0.2597191685714285,1.0240854,0.4443041114285714
452,4.520000477,0.0791966938333333,0.0292547558333333,-0.4299692,0.0657169849999999,0.9324583583333332,0.3438052016666666
453,4.530000477,0.0346143875714285,-0.0091817204285714,-0.3938600914285714,0.4706141897142857,0.8111615571428572,0.2493565842857143
454,4.540000477,-0.1042489661666666,0.0122517301666666,-0.6404184616666666,0.9530235833333331,0.6814001333333334,0.232223775
455,4.550000477,-0.2380931471428571,0.0733492257142857,-1.0446863857142858,1.0813306142857142,0.7055721942857142,0.4024174542857143
456,4.560000477,-0.2334848628571428,0.1316148257142857,-1.2763157142857142,0.8966801571428571,0.8696283285714286,0.6633365
457,4.570000477,-0.037258266,0.19857866,-1.4465275,0.5052724866666667,1.1328162466666667,0.9300149133333332
458,4.580000477,0.2547448282857142,0.2254269242857143,-1.2248580285714286,0.1348009014285714,1.3597023857142858,1.0026184885714284
459,4.590000477,0.456535785,0.23592841,-0.8645320999999999,-0.115908267,1.50115715,0.88542312
460,4.600000477,0.5323612285714285,0.2231532771428571,-0.5168594142857142,0.1880536931428571,1.2921601428571428,0.5985867
461,4.610000477,0.4686452316666666,0.188700035,-0.4456103166666667,0.6608349333333333,0.9287932666666666,0.3277195666666666
462,4.620000477,0.32665233,0.1586982814285714,-0.5903349542857143,1.1757501142857143,0.5155114571428572,0.0982155142857142
463,4.630000477,0.0714218483333333,0.1142749583333333,-0.94001926,1.4502532166666668,0.24749495,0.0241284666666666
464,4.640000477,-0.0972051442857142,0.1358615785714285,-1.1565264714285717,1.399145657142857,0.1908897671428571,0.086173096
465,4.650000477,-0.2894201885714285,0.2330536742857142,-1.4104133714285716,1.0087269785714288,0.33557331,0.3744929914285714
466,4.660000477,-0.284147675,0.288019865,-1.48148895,0.57083675,0.573891025,0.6966713050000001
467,4.670000477,-0.1063041134285714,0.2930702357142857,-1.3811694142857145,0.0550198785714285,0.9123876714285716,1.0593400642857145
468,4.680000477,0.0523099658333333,0.25366825,-1.2151115,-0.1525591016666666,1.0904641833333335,1.2026564666666666
469,4.690000477,0.5058091457142857,0.0972791937142857,-0.6351459142857143,-0.3064926027142857,1.3565608999999998,1.3677306714285715
470,4.700000477,0.9771200433333332,0.0461256596666666,-0.2938332,0.6117381235,0.8497903333333334,1.0194022333333332
471,4.710000477,0.9160073,0.050800006,-0.5600718428571428,1.1567265857142857,0.3525024885714286,0.5750254214285714
472,4.720000477,0.6199534428571428,0.0460436294285714,-1.1022725,1.3881504142857144,-0.0714254985714285,0.1661068228571428
473,4.730000477,0.3790820749999999,0.0086387156666666,-1.4545462333333334,1.049741,-0.11209047,-0.06566608
474,4.740000477,0.1924415428571428,-0.0132542583428571,-1.550730757142857,0.6396007142857142,0.14446538,-0.0464680228571428
475,4.750000477,0.0100056658333333,-0.0073022555,-1.3940956333333334,0.0305169116666666,0.5484390366666667,0.082362575
476,4.760000477,-0.0617893161428571,-0.0052877650285714,-1.1336549571428571,-0.3124265574285714,0.7186617999999999,0.2898470285714286
477,4.770000477,-0.0730530395,-0.029224266,-0.9165016,-0.4390464649999999,0.73087875,0.4541649299999999
478,4.780000477,-0.065491624,-0.053021386,-0.7897107,-0.4640912,0.6991147,0.54518116
479,4.790000477,0.0664019574285714,-0.1506838825714285,-0.6585575514285714,-0.3792706942857142,0.6146432485714285,0.7183127142857143
480,4.800000477,0.3297194566666666,-0.28209981,-0.5721624333333334,-0.0603211666666666,0.3698680199999999,1.3099619333333334
481,4.810000477,0.5172689142857143,-0.2898819085714286,-0.5796418285714285,0.0322658251428571,0.3139318657142857,1.4516785714285716
482,4.820000477,0.63299423,-0.26852176,-0.60399866,0.0665314441666666,0.2161381266666666,1.4842570000000002
483,4.830000477,0.6997141614285715,-0.2722850457142857,-0.6573380085714285,0.0099262671428571,0.1702954971428571,1.5150320285714287
484,4.840000477,0.8360955250000001,-0.3170459266666666,-0.67844915,-0.1509301703333333,0.2426081783333333,1.5771058
485,4.850000477,0.9448417642857144,-0.3826921742857143,-0.6353768000000001,-0.3413981585714286,0.3840920485714285,1.6335364571428574
486,4.860000477,0.9873791,-0.4108427657142857,-0.6058454742857142,-0.4537940714285714,0.4645493571428571,1.6747250428571427
487,4.870000477,1.0158824666666668,-0.4084384533333333,-0.5564146,-0.53617116,0.5435522666666667,1.7245236333333331
488,4.880000477,1.0712863714285714,-0.3968132257142857,-0.4244977857142857,-0.5517041457142857,0.6439639171428571,1.7380786285714287
489,4.890000477,1.17935225,-0.3806624733333333,-0.231949525,-0.3671701233333333,0.7954249400000001,1.70660545
490,4.900000477,1.1945208,-0.3788331,-0.20985982,-0.3345916,0.8078455,1.7021259
491,4.910000477,1.1945208,-0.3788331,-0.20985982,-0.3345916,0.8078455,1.7021258999999995
492,4.920000477,1.3164791714285715,-0.3891559914285714,-0.3238647285714285,0.0399886742857142,0.70976088,1.4679096028571428
493,4.930000477,1.4930793142857144,-0.3654394414285714,-0.9374675714285712,0.9694582457142856,0.24813488,0.6519921742857143
494,4.940000477,1.2818939166666663,-0.3374993883333333,-1.333705883333333,0.4321744416666666,-0.0186308416666666,0.3155026
495,4.950000477,1.2422545,-0.3512269371428571,-1.3104858714285714,-0.0221432157142857,0.0090318128571428,0.2090406485714286
496,4.960000477,1.2590469666666666,-0.3685885866666666,-1.2043588333333333,-0.2857238166666666,0.0589467633333333,0.1526100066666667
497,4.970000477,1.2968526857142857,-0.4099368371428571,-0.9894304714285714,-0.5740437114285715,0.0126968978571428,-0.0551944157142857
498,4.980000477,1.2733466666666666,-0.4465097866666667,-0.8827953466666667,-0.7467098666666666,-0.0668877756666666,-0.2725396833333333
499,4.990000477,1.2307817142857145,-0.4529793814285714,-0.8620406757142858,-0.8517174157142857,-0.0855622474285714,-0.4162923957142857
500,5.000000477,1.10326555,-0.42764692,-0.842808335,-1.023016435,0.0094681329999999,-0.555565575
501,5.010000477,0.9729400571428573,-0.3759844871428571,-0.7793007085714285,-1.2182257571428572,0.2333000171428571,-0.5918673428571429
502,5.020000477,0.936126062857143,-0.3737456757142857,-0.5878173857142858,-1.2838482142857142,0.3610543514285714,-0.5541693428571429
503,5.030000477,0.99823405,-0.3793615633333333,-0.2138082083333333,-0.8538117166666667,0.0949867483333333,-0.5085303166666667
504,5.040000477,1.047264885714286,-0.3769166028571428,-0.0857933342857143,-0.3176623785714286,-0.2572975785714285,-0.4901176428571429
505,5.050000477,1.1760543666666667,-0.4285361966666666,-0.19013304,0.2922395166666666,-0.6089129166666667,-0.48674346
506,5.060000477,1.2245749428571426,-0.4568297885714286,-0.30176412,0.6608931057142857,-0.7951922600000001,-0.4969242428571428
507,5.070000477,1.198850457142857,-0.4242538514285714,-0.7632326742857142,1.0221656257142857,-0.9671021,-0.4789478857142857
508,5.080000477,1.2534776,-0.3392118566666666,-1.2020519166666668,0.9475259166666667,-1.0872062833333334,-0.3955236133333333
509,5.090000477,1.3995589428571429,-0.2520443228571428,-1.497160528571429,0.6036479942857144,-1.1498326571428572,-0.4297310514285714
510,5.100000477,1.4892229666666663,-0.229144475,-1.6161054833333337,-0.29119599,-1.2032673166666668,-0.7046123133333334
511,5.110000477,1.4251527857142856,-0.2605030071428572,-1.5108199,-1.1505089285714285,-1.024521742857143,-1.0171915714285715
512,5.120000477,1.2857101666666668,-0.250431275,-1.2024583,-1.8183395333333336,-0.6296816916666667,-1.2313662666666667
513,5.130000477,1.133855257142857,-0.3271401742857143,-0.5582250571428572,-2.041124342857143,-0.2278023899999999,-1.4652043857142856
514,5.140000477,0.943312175,-0.3348620066666667,0.03271024,-1.6375288499999998,-0.1481304576666667,-1.5593912666666665
515,5.150000477,0.8112712428571429,-0.2838275328571428,0.2211148157142857,-0.9421228714285714,-0.3312973742857142,-1.464506257142857
516,5.160000477,0.7072211416666666,-0.1974353083333333,0.122969575,-0.1183516733333333,-0.59018026,-1.2543748666666668
517,5.170000477,0.7030985142857143,-0.1449387735714285,-0.1013038085714286,0.3382566714285714,-0.73009336,-1.0972999
518,5.180000477,0.7482448571428572,-0.032902615,-0.6886899771428572,0.8357699285714286,-0.83044686,-0.8154374714285714
519,5.190000477,0.7817630750000001,0.0645616951666666,-1.1518100833333331,0.6645,-0.7001327666666667,-0.7538873
520,5.200000477,0.80057805,0.1085342014285714,-1.3490073,0.1249837114285714,-0.4445659142857143,-0.7951922428571427
521,5.210000477,0.792256575,0.1025415516666666,-1.307749133333333,-0.5569399856666667,-0.2045320233333333,-0.9725706733333334
522,5.220000477,0.6396322571428572,0.0542322571428571,-0.8227832428571429,-0.9567831799999998,-0.1806798928571428,-1.135696
523,5.230000477,0.6518926666666666,0.0754566366666666,-0.4902318583333334,-0.9417737833333332,-0.3786235083333333,-1.2077469
524,5.240000477,0.5610214571428572,0.1106989657142857,-0.3221311642857142,-0.5724729857142857,-0.71595664,-1.2430304857142858
525,5.250000477,0.4293848171428571,0.1685377085714285,-0.4367022971428572,-0.2413937571428571,-0.9210267671428573,-1.127842228571429
526,5.260000477,0.40316379,0.23185297,-0.6674576266666667,-0.0267245699999999,-0.8780929250000001,-0.94650785
527,5.270000477,0.4108253742857143,0.30443414,-0.8942464257142857,0.0636808268571428,-0.5419524114285714,-0.7630791228571427
528,5.280000477,0.40016054,0.350142375,-0.95568078,-0.020616094,-0.239757547,-0.7663078899999999
529,5.290000477,0.3679483,0.2957576885714285,-0.6927668942857144,-0.0982809578571428,-0.1021423882857142,-0.9337672971428572
530,5.300000477,0.2606148083333333,0.2015564816666666,-0.4819691749999999,0.0913725775,-0.270707139,-1.1482910599999998
531,5.310000477,0.0486003979999999,0.13806119,-0.4333397285714286,0.4460275914285714,-0.6464945428571428,-1.239714542857143
532,5.320000477,-0.1919827496666666,0.1396829466666666,-0.62246515,0.9151509916666668,-1.0149226833333334,-0.88094355
533,5.330000477,-0.29635876,0.14439867,-0.7182126,0.99842983,-1.0772291,-0.80723464
534,5.340000477,-0.1490940657142857,0.2337244328571428,-1.186794,1.021467575714286,-0.8981636428571428,-0.0626991057142857
535,5.350000477,-0.0604710083333333,0.26771886,-1.3602724833333333,0.9306257833333332,-0.7634572916666666,0.1122940916666666
536,5.360000477,-0.0101748099999999,0.3004835628571428,-1.4760878714285717,0.4893322857142857,-0.48505637,-0.0058030464285714
537,5.370000477,-0.061731242,0.2923849466666666,-1.4093504999999995,0.0425556999999999,-0.2297803766666667,-0.2086043389999999
538,5.380000477,-0.1503310642857142,0.2645537585714285,-1.2414879142857145,-0.1843231514285714,-0.0745669945714285,-0.3471793985714285
539,5.390000477,-0.28512334,0.2032283149999999,-0.9811853,-0.28083701,0.086434883,-0.440726295
540,5.400000477,-0.4554316428571429,0.1285876342857143,-0.7889963714285715,-0.1169554285714285,0.1167154585714285,-0.3719623528571429
541,5.410000477,-0.5959972914285715,0.1429351657142857,-0.8322132,0.3100704342857143,-0.24944385,-0.0379161622857142
542,5.420000477,-0.6565627,0.18052882,-1.107717,0.50730866,-0.6056551,0.31061584
543,5.430000477,-0.5827343285714285,0.19202776,-1.2760979142857145,0.4305164242857143,-0.7016453357142858,0.5104501685714286
544,5.440000477,-0.4900387666666666,0.1958955766666666,-1.351034133333333,0.2270315633333333,-0.74981501,0.7052231666666667
545,5.450000477,-0.3082496842857143,0.1995891714285714,-1.334929814285714,-0.1305686028571428,-0.6992019371428572,0.8244256228571428
546,5.460000477,-0.2508987728571428,0.1939050414285714,-1.306234757142857,-0.2125966628571428,-0.6808765142857143,0.8225058171428571
547,5.470000477,0.10973201,0.1478135,-0.9173706,-0.48954314,-0.6834362733333333,0.5527149433333333
548,5.480000477,0.1386012842857142,0.16093274,-0.846809,-0.3907895314285715,-0.8885645999999999,0.2296349371428571
549,5.490000477,0.0447485433333333,0.1841875783333333,-0.8687143,-0.2747285533333333,-1.0796725466666666,-0.0074319739999999
550,5.500000477,-0.1823015794285714,0.1979514428571428,-1.1148342285714286,-0.3070161985714285,-1.166063842857143,-0.1852176117142857
551,5.510000477,-0.3291807933333333,0.2380372566666666,-1.10577075,-0.5186602283333334,-1.0069817166666668,-0.1135157783333333
552,5.520000477,-0.2862667014285714,0.2507027914285714,-0.9364440142857144,-0.6497887714285715,-0.8248619457142857,0.0854749862857142
553,5.530000477,-0.21532761,0.2315379066666666,-0.8118563,-0.6076403,-0.6980966033333335,0.2077898766666666
554,5.540000477,-0.11991118,0.1986614228571428,-0.7355437985714285,-0.5045816514285714,-0.6449238128571428,0.2312056928571428
555,5.550000477,0.0102009428571428,0.1457663428571428,-0.6820912171428571,-0.2771719471428571,-0.6299144,0.1493521585714285
556,5.560000477,0.0902898186666666,0.1303328,-0.7143201333333332,-0.077424891,-0.7290462,-0.01130067
557,5.570000477,0.029452939,0.09095043,-0.9739898,0.1751604497142857,-1.1112620857142856,-0.44037723
558,5.580000477,-0.1171409803333333,0.025397824,-1.0895046666666668,0.15372989,-1.2950980333333333,-0.6309033866666667
559,5.590000477,-0.3410564828571428,-0.055682694,-1.2570681714285714,0.0736289128571428,-1.2374456428571428,-0.6475417142857143
560,5.600000477,-0.5027834333333333,-0.08781,-1.4157076,-0.1203878099999999,-0.9387704133333332,-0.45131432
561,5.610000477,-0.55360374,-0.0955979134285714,-1.5509746,-0.4742138042857142,-0.6323578042857143,-0.2215193942857143
562,5.620000477,-0.5965591628571428,-0.086642683,-1.6209437714285713,-0.8152411071428572,-0.4253678514285714,-0.05222744
563,5.630000477,-0.59921175,-0.13040395,-1.6028984,-1.1539414166666666,-0.17256435,0.12593635
564,5.640000477,-0.6870740185714287,-0.1316583785714285,-1.3631718285714285,-1.3657017285714286,0.0374798451428571,0.3388893442857142
565,5.650000477,-0.7612995383333333,-0.0545763525,-1.0236572666666666,-1.3033953,-0.0359381786666666,0.5508823933333333
566,5.660000477,-0.7421165057142857,0.0129058058571428,-0.8474318457142856,-1.026943328571429,-0.4075660368571428,0.7848078
567,5.670000477,-0.6848214933333333,0.1165870933333333,-0.7807264333333334,-0.4830274833333334,-1.27249665,1.01838415
568,5.680000477,-0.6694903071428572,0.1870361742857142,-0.8916983885714285,-0.2206249457142857,-1.8432316,1.1055899285714286
569,5.690000477,-0.5318450783333333,0.2533633483333333,-1.004189633333333,-0.12893968,-2.1950795333333333,1.2134481
570,5.700000477,-0.3652870114285714,0.2739706842857143,-0.9863597714285712,-0.16791755,-2.037830057142857,1.2644102428571429
571,5.710000477,-0.2622713966666666,0.3052312199999999,-0.9566462666666666,-0.223621,-1.6092771,1.201842
572,5.720000477,-0.17602508,0.3625429171428571,-0.9580350371428572,-0.29165774,-1.2201674285714286,1.0738258428571428
573,5.730000477,-0.1421816485714286,0.4004109857142857,-1.0002195428571428,-0.4284875314285714,-0.8451072000000001,0.8305340928571427
574,5.740000477,-0.1990105933333333,0.4082657,-1.03235195,-0.6310561200000001,-0.5356112333333334,0.5333714433333333
575,5.750000477,-0.26905316,0.41794686,-0.9448025285714284,-0.7564252428571429,-0.39150945,0.3401110114285714
576,5.760000477,-0.3925127466666667,0.4449852933333333,-0.7433563666666667,-0.8595129866666666,-0.3295520866666666,0.0471370446666666
577,5.770000477,-0.5867066799999999,0.4762385857142857,-0.4573045571428571,-0.6852179314285715,-0.6105418242857142,-0.2325146417142857
578,5.780000477,-0.6840693333333334,0.481105295,-0.3300192566666667,-0.4083005,-0.8752422833333333,-0.3271087066666666
579,5.790000477,-0.7422689,0.4946368557142857,-0.40158702,0.0587285928571428,-1.0742621142857145,-0.3515426
580,5.800000477,-0.7325993571428572,0.4823365028571428,-0.5740273857142857,0.2961300242857143,-0.9892671428571428,-0.3576510714285714
581,5.810000477,-0.7097670166666666,0.4515253416666667,-0.8084262666666667,0.2523817216666666,-0.6192973333333334,-0.4099803266666666
582,5.820000477,-0.7268063571428571,0.4432096771428571,-0.9469237242857144,0.0726471891428571,-0.267245684,-0.4772025857142857
583,5.830000477,-0.7890094433333333,0.4441214516666667,-1.0199527916666666,-0.369613494,0.3501172921666666,-0.6056550666666666
584,5.840000477,-0.8472446042857144,0.3882717871428571,-0.9092473285714286,-0.6164539600000001,0.6146432428571428,-0.6848906857142857
585,5.850000477,-0.938560925,0.37038746,-0.7032118,-0.7841751650000001,0.782800775,-0.7663079
586,5.860000477,-1.0731114428571429,0.3912074985714285,-0.4199853285714285,-0.6960386214285714,0.7066193857142856,-0.7808809771428572
587,5.870000477,-1.1408636428571428,0.3878187914285714,-0.3113204428571428,-0.3696716757142857,0.4778134428571428,-0.6950132742857144
588,5.880000477,-1.1446552,0.366972625,-0.372521735,-0.04566084,0.41323817,-0.57572353
589,5.890000477,-1.1071813,0.3784715642857143,-0.5286937957142858,0.3542259557142856,0.5214454,-0.3726604714285714
590,5.900000477,-1.0551377666666666,0.3901701449999999,-0.66490165,0.4600698,0.7306751166666667,-0.2623589083333333
591,5.910000477,-1.0330697714285717,0.4146365757142857,-0.80694608,0.4556484285714285,1.05148638,-0.1969109814285714
592,5.920000477,-1.0331802,0.4587411749999999,-0.9223607516666666,0.3607053166666666,1.3989420666666668,-0.1798945216666666
593,5.930000477,-1.0312579142857143,0.4804548428571428,-0.97429033,0.2270824714285714,1.6946212,-0.1972600371428571
594,5.940000477,-1.0233001142857143,0.4883995714285714,-0.9613279,0.1317466639999999,1.846983914285714,-0.2347835042857143
595,5.950000477,-1.0004242,0.4880975999999999,-0.8633532333333335,0.0736579983333333,1.9010584,-0.2900506316666666
596,5.960000477,-0.9321362642857144,0.4605800285714286,-0.7480575857142858,0.2380995342857142,1.5740224714285715,-0.42135372
597,5.970000477,-0.8147020166666666,0.3932444799999999,-0.7476655666666666,0.5447739666666667,1.0717315266666667,-0.5543438866666667
598,5.980000477,-0.6853536071428571,0.3540101914285714,-0.8455850714285714,0.7308787857142857,0.7888219628571428,-0.6906500928571428
599,5.990000477,-0.6010716666666667,0.2931065266666666,-0.919637,0.7601994333333334,0.7716019066666666,-0.8051984866666667
600,6.000000477,-0.54659985,0.22416378,-0.96230785,0.7511239642857143,0.8776566171428571,-0.9444135085714286
601,6.010000477,-0.5499449757142857,0.15743514,-0.9776485042857144,0.7382089214285715,1.1649293428571428,-1.110563957142857
602,6.020000477,-0.6852788266666666,0.1030700383333333,-0.97894938,0.7695657383333333,1.4921979833333332,-1.182091316666667
603,6.030000477,-0.7497911571428572,0.09387743,-0.9879278485714286,0.7891710042857143,1.5764658571428571,-1.1719977142857143
604,6.040000477,-0.8308056166666667,0.0894056216666666,-1.04971071,0.8229130766666666,1.5571514666666666,-1.0605326
605,6.050000477,-0.8049772971428572,0.0808801557142857,-1.0636422571428572,0.8554916142857143,1.430560657142857,-0.9815878928571428
606,6.060000477,-0.7257588299999999,0.07631543,-1.0961158,0.92757157,1.08211593,-0.9513946250000002
607,6.070000477,-0.6875706142857142,0.0697296742857142,-1.239532285714286,0.9605573314285714,0.6059168485714286,-0.9491257285714286
608,6.080000477,-0.6288578083333333,0.0316939216666666,-1.413471666666667,0.77852485,0.095190365,-0.86139645
609,6.090000477,-0.5700593857142857,0.0123439258571428,-1.4717408714285714,0.4626295457142856,-0.0199398,-0.6985038342857143
610,6.100000477,-0.5123266399999999,0.0225419643333333,-1.4221358333333332,0.0775776033333333,0.186002985,-0.4647529533333333
611,6.110000477,-0.4130336742857143,0.0666197388571428,-1.1519923285714284,-0.2145164657142857,0.4654219928571428,-0.2440334742857142
612,6.120000477,-0.3573335628571428,0.0824133457142857,-0.9788898857142856,-0.2628606571428571,0.6284309357142857,-0.1330338014285714
613,6.130000477,-0.3323516999999999,0.080096137,-0.88270397,-0.2087570466666667,0.7247702833333333,-0.05507806
614,6.140000477,-0.2430063271428571,0.0702871997142857,-0.7790524514285714,-0.0714036788571428,0.75409096,0.0217723421428571
615,6.150000477,-0.107249284,0.0651301042857142,-0.7198503714285714,0.1530826857142857,0.6710157285714285,0.0720363458571428
616,6.160000477,-0.0238733455,0.096697717,-0.8016778700000001,0.4242334166666666,0.3098013708333333,-0.0025451963333333
617,6.170000477,-0.0431601845714285,0.111330542,-1.1584168771428571,0.5711858214285714,-0.2119203639285714,-0.0445482178571428
618,6.180000477,0.0075004376,0.09168218,-1.3327303,0.4107947766666666,-0.1955729266666666,0.0035632753333333
619,6.190000477,0.0520326539428571,0.0730748214285714,-1.2961165857142856,0.1122431821428571,-0.0133077414285714,0.0460317037142857
620,6.200000477,0.0722857233333333,0.0311247841666666,-1.1828434666666667,-0.1741423656666666,0.256046802,0.0393996486666666
621,6.210000477,0.0147003357142857,-0.0397366365714285,-1.0137525571428572,-0.3625160285714286,0.6221479571428572,0.058248652
622,6.220000477,-0.0383050806666666,-0.0778399066666666,-0.9076749066666666,-0.3924184666666666,0.8656723666666667,0.1216604133333333
623,6.230000477,-0.0954628871428571,-0.0990475928571428,-0.8055217271428571,-0.3469830557142857,1.0165807285714286,0.2116585799999999
624,6.240000477,-0.1602096928571428,-0.1051106631428571,-0.7000974714285714,-0.1537807914285714,1.109254971428571,0.4317381328571428
625,6.250000477,-0.22118668,-0.086712377,-0.6641698699999999,0.06123744,1.09983045,0.675291665
626,6.260000477,-0.2512385242857143,-0.0408342657142857,-0.8074818114285714,0.2042847771428571,1.0336844142857144,0.9719016714285712
627,6.270000477,-0.1965409299999999,0.007617315,-0.9957542733333334,0.1472141866666666,1.0513699,1.2558002333333331
628,6.280000477,-0.18458393,0.014574022,-1.0240232,0.10888352,1.0668447,1.3612732
629,6.290000477,0.0704048071428571,0.0536965145714285,-1.0610288,-0.15988927,1.00576,1.6544797
630,6.300000477,0.4654031833333333,0.060257582,-1.01994265,-0.3233927166666666,0.6738663266666666,1.4431266
631,6.310000477,0.7233523142857143,0.0622031034285714,-0.8535341285714286,-0.4637421557142857,0.3477902485714285,1.0401419685714284
632,6.320000477,0.6184608733333333,0.0538750916666666,-0.6909193666666668,-0.36757734,0.40346462,0.641695
633,6.330000477,0.4554882628571429,-0.0004050762857142,-0.6204500142857142,-0.2167853314285714,0.5699641485714285,0.4971860285714286
634,6.340000477,0.30742648,-0.0264192255,-0.62328335,-0.0902526835,0.713164185,0.46393849
635,6.350000477,-0.0960204171428571,0.0311211535714285,-0.7915401057142858,0.1190061375714285,0.981500642857143,0.6547845971428572
636,6.360000477,-0.2719518316666667,0.1814892508333333,-1.06346144,0.0433192524999999,1.12609695,1.1136763166666668
637,6.370000477,-0.1709202471428571,0.2104608871428571,-1.236709757142857,-0.2328418848571428,1.2188585,1.6019469857142856
638,6.380000477,0.3401112766666667,0.1449779699999999,-1.080550873333333,-0.7043577966666666,1.1110293999999998,2.1012127833333336
639,6.390000477,0.7454528757142856,0.1295546,-0.8270300171428572,-0.7562506999999999,0.9696327857142856,2.148742485714286
640,6.400000477,1.2420846057142856,0.19848719,-0.5006084857142857,-0.2684455428571429,0.4710068714285714,1.7558804857142858
641,6.410000477,1.5723428000000002,0.1746392466666666,-0.4915530566666666,0.32889032,0.0919325109333333,1.1694671066666666
642,6.420000477,1.5743035285714286,0.1458055385714285,-0.6022259,0.7341947571428571,-0.0112134106857142,0.6551336971428572
643,6.430000477,1.1592241,0.09079798,-1.0720036666666666,0.98295505,0.1746005096666666,0.0137440666666666
644,6.440000477,0.7577183999999999,0.0780925385714285,-1.3700712857142856,0.9225102685714288,0.3486628885714286,-0.2705617
645,6.450000477,0.1768040083333333,0.0848118583333333,-1.52510935,0.4889832333333333,0.45559024,-0.3083760533333333
646,6.460000477,-0.0181805057142857,0.07314451,-1.4483945857142857,0.0262009771428571,0.3669882985714285,-0.0832933864285714
647,6.470000477,-0.0778616845714285,0.0379333968571428,-1.3037171,-0.3023039399999999,0.2441207385714285,0.1952529561428571
648,6.480000477,0.0311603566666666,-0.0125210563333333,-0.9721197,-0.5760798466666667,0.1037422266666666,0.66042772
649,6.490000477,0.1802762071428571,-0.0276540524285714,-0.7192361857142858,-0.5633974928571429,0.04882415,0.9738213857142856
650,6.500000477,0.356916145,-0.0161086631666666,-0.6906094333333334,-0.42540421,0.0108934429333333,1.1299656333333334
651,6.510000477,0.6351328685714286,0.0097915115714285,-0.7102679357142857,-0.2621625585714285,-0.1110433013142857,1.1453822285714286
652,6.520000477,0.9219236666666668,0.0566293216666666,-0.73693325,-0.1216095099999999,-0.3588727599999999,0.9129112
653,6.530000477,1.0130599571428571,0.0874659045714285,-0.7958260171428571,-0.0159038451428571,-0.6625511,0.5244123571428572
654,6.540000477,0.8165009066666666,0.1078010059999999,-0.9236311266666668,-0.0226522536666666,-0.9575031,0.0613901466666666
655,6.550000477,0.4918754028571429,0.0642459104285714,-0.9855932257142858,-0.1775165788571428,-0.9824605571428572,-0.1337319157142857
656,6.560000477,0.2368430957142857,-0.0277498791428571,-0.9722475428571428,-0.3386057242857143,-0.7437065471428571,-0.0414067171428571
657,6.570000477,0.0852234733333333,-0.1168970733333333,-0.91887986,-0.45920444,-0.26724568,0.31183752
658,6.580000477,0.0887203365714285,-0.1709638085714286,-0.819229,-0.4644402628571428,-0.0065011617142857,0.6951005314285714
659,6.590000477,0.1025364691666666,-0.16130005,-0.7687389666666666,-0.40789327,0.024739314,0.9972082
660,6.600000477,0.1401736885714286,-0.1503005771428571,-0.7360272642857142,-0.3564075628571428,-0.0058030495714285,1.1760991285714286
661,6.610000477,0.2385940742857143,-0.1371290714285714,-0.7139266928571428,-0.30876148,-0.0389633271428571,1.3305562142857144
662,6.620000477,0.6190148333333333,-0.11171892,-0.6796890416666667,-0.145228935,-0.1929259266666666,1.3769515
663,6.630000477,0.71891393,-0.1090133357142857,-0.7202293,-0.0707055684285714,-0.2309438942857143,1.3167685142857142
664,6.640000477,0.7258045233333333,-0.0993960433333333,-0.8931110333333333,-0.0385342805,-0.07279263,1.1668201166666667
665,6.650000477,0.6501075714285715,-0.0464748368571428,-1.0042311,-0.1872901414285714,0.2114840399999999,1.1504435857142856
666,6.660000477,0.67104526,-0.01340525376,-0.96795286,-0.33825667,0.3631486866666666,1.1564356666666666
667,6.670000477,0.7426174114285714,-0.0063853902028571,-0.8730823171428571,-0.4681053371428572,0.4198702328571428,1.124788
668,6.680000477,0.7876170733333333,-0.0134255801666666,-0.8161654833333333,-0.4864889266666667,0.402242925,1.0986088
669,6.690000477,0.8139934857142856,-3.4845428571428335e-05,-0.8281405971428571,-0.4831147357142857,0.3444742114285714,1.0630051142857142
670,6.700000477,0.8326792,0.0151663899999999,-0.7802371514285714,-0.47194495,0.32283276,0.9795808228571428
671,6.710000477,0.8626418,0.048752844,-0.6584225,-0.3761292,0.34848836,0.8994725999999998
672,6.720000477,0.9490144571428571,0.0667329891428571,-0.5900300771428572,-0.2242900285714286,0.38426656,0.822680357142857
673,6.730000477,0.9963639833333332,0.073794955,-0.5749725566666667,0.0716218399999999,0.3812704899999999,0.63619741
674,6.740000477,0.9883198571428572,0.0804620128571428,-0.6476510228571428,0.3124920014285714,0.28792722,0.4575682285714286
675,6.750000477,0.9253589,0.081681594,-0.8068154,0.57328016,0.13713521,0.25319618
676,6.760000477,0.9307947285714286,0.0513401005714285,-0.9682969142857144,0.5879405085714285,0.0114752017142857,0.1746586828571428
677,6.770000477,0.98929554,0.04018527,-1.0796667,0.4511107,-0.104760304,0.1163664
678,6.780000477,1.071033006666667,0.0188425633333333,-1.1223521166666666,0.19944163,-0.1780619799999999,0.0051922016
679,6.790000477,1.131316,-0.030337134,-1.0520736,-0.10124794,-0.1682884199999999,-0.18661384
680,6.800000477,1.119852,-0.05424097,-0.90392464,-0.3345916,-0.06810947,-0.3845283399999999
681,6.810000477,1.1191202142857144,-0.0598858968571428,-0.87600058,-0.3749075114285714,-0.0110388817142857,-0.4358395085714285
682,6.820000477,1.1650026571428571,-0.0727568562857142,-0.7837565571428572,-0.4314545,0.1069419057142857,-0.5642919628571429
683,6.830000477,1.2142985333333334,-0.0689776023333333,-0.7001627999999999,-0.4066715433333334,0.2104368833333333,-0.7901309366666666
684,6.840000477,1.1490348,-0.033577744,-0.6786284499999999,-0.2850256857142857,0.1786728228571428,-0.99607374
685,6.850000477,1.0971676,-0.01545822,-0.67723465,-0.2075353599999999,0.1395786,-1.0686773
686,6.860000477,1.0971676,-0.01545822,-0.67723465,-0.20753536,0.1395786,-1.0686773
687,6.870000477,1.0888542,-0.0122059973333333,-0.6611158166666667,-0.15540972,0.0947831333333333,-1.0947401
688,6.880000477,1.0980911285714288,-0.0546024898571428,-0.6543108285714286,0.0312622914285714,-0.0717745542857142,-1.1552430714285715
689,6.890000477,1.1159493,-0.1132992949999999,-0.6559834,0.4327852699999999,-0.43217444,-1.273922
690,6.900000477,1.1159493,-0.113299295,-0.6559834,0.43278527,-0.43217444,-1.273922
691,6.910000477,1.1083878,-0.12503777,-0.9178584,0.5261576485714285,-0.52729209,-1.3358792857142858
692,6.920000477,1.3123986833333334,-0.0898426338333333,-1.1674767166666669,-0.4481837333333334,-0.2702999183333333,-1.4928088166666666
693,6.930000477,1.3130296,-0.09486616,-1.004806007142857,-0.8520664842857143,-0.2878399528571428,-1.7193168285714286
694,6.940000477,1.2904412,-0.095493376,-0.92761505,-0.94421715,-0.33810395,-1.8407882
695,6.950000477,1.2904412,-0.095493376,-0.92761505,-0.94421715,-0.33810395,-1.8407882
696,6.960000477,1.2904412,-0.095493376,-0.92761505,-0.94421715,-0.33810395,-1.8407882
697,6.970000477,0.9134984428571428,-0.1217449077142857,-0.6969831457142857,-0.3645449142857143,-0.4957025557142857,-1.7266470285714284
698,6.980000477,0.44676387,-0.13650186,-0.59765685,0.6759025,-0.5531222,-1.1676345
699,6.990000477,0.51533496,-0.08915155,-0.88611877,0.7237522,-0.2731505333333333,-0.9100606166666668
700,7.000000477,0.5029997142857143,0.0024740111428571,-1.095294738571429,0.53872364,0.0760504857142857,-0.7712819185714286
701,7.010000477,0.5357274233333333,0.0175416729999999,-1.1375004,0.3387148133333333,0.2438298666666666,-0.7282317166666666
702,7.020000477,0.6615063742857143,0.0152709251428571,-0.9792906,-0.0270299785714285,0.1512719628571428,-0.8794891642857142
703,7.030000477,0.7676972166666666,0.0173384093333333,-0.7098483,-0.1578531033333333,-0.1825415266666666,-1.13627769
704,7.040000477,0.6544850428571429,0.0286863427142857,-0.6086461385714286,-0.0602339,-0.6112399628571429,-1.4316950714285714
705,7.050000477,0.4052370642857142,0.0133195925,-0.6425592657142857,0.0765958857142857,-0.8021733257142857,-1.5571805571428572
706,7.060000477,0.20638399,-0.03448372,-0.7948634599999999,0.17241164,-0.6484144,-1.4400724
707,7.070000477,0.0250145251428571,0.0617414085714285,-0.9184769257142856,0.13227025,-0.2164580999999999,-1.2402381142857144
708,7.080000477,-0.1492007781666666,0.1587287716666666,-0.9911401116666666,0.0581832015,0.0540599824999999,-1.0646049833333333
709,7.090000477,-0.2250653957142857,0.1878811828571428,-0.9448678142857142,-0.1084035681428571,0.099786265,-0.8213714000000001
710,7.100000477,-0.1757419633333333,0.1353381816666666,-0.6903603666666666,-0.2044811216666666,-0.0251465458333333,-0.5366293249999999
711,7.110000477,-0.11794242,0.0949314999999999,-0.5655164385714285,-0.17489866,-0.0972556134285714,-0.4400281857142857
712,7.120000477,-0.032288466,0.034819107,-0.4336533549999999,0.2116076666666666,-0.1955729333333333,-0.3226291533333333
713,7.130000477,0.0292787135714285,0.0188207848571428,-0.3483391371428571,0.6343648728571428,-0.2637551114285714,-0.1749204714285714
714,7.140000477,0.0905801945714285,0.1170015988571428,-0.5995471714285714,1.34574015,-0.3841792828571429,0.2128802714285714
715,7.150000477,0.2202872299999999,0.20760359,-1.1794591,1.5345501833333337,-0.3592799966666666,0.4399118466666666
716,7.160000477,0.3041771471428571,0.2523709957142857,-1.5028664714285715,1.3581316428571426,-0.1714299199999999,0.5500679571428571
717,7.170000477,0.4222807166666666,0.2952255383333333,-1.62915495,0.6292744916666666,0.0296260933333333,0.3657956916666666
718,7.180000477,0.4416416142857143,0.2535644428571428,-1.4486732857142857,0.1043894342857142,0.0585977042857142,0.0952485375
719,7.190000477,0.3891334666666666,0.1592064416666666,-1.1542492666666668,-0.2739140856666667,0.0045813541666666,-0.27620478125
720,7.200000477,0.2864975571428571,0.11629598,-0.9781624714285714,-0.2858983328571428,-0.0749160552857142,-0.4485800714285713
721,7.210000477,-0.0276997866666666,0.0826166108333333,-0.8577431166666667,-0.0922888416666666,-0.2438298683333333,-0.5360185
722,7.220000477,-0.2372263697142857,0.1125022164285714,-0.9014332657142856,0.046228046,-0.3021512342857143,-0.3559058085714285
723,7.230000477,-0.3597030285714285,0.1602750371428571,-1.05723506,0.1719971428571428,-0.2820805428571428,0.1168899885714285
724,7.240000477,-0.2439928866666666,0.150217105,-1.2534520999999998,0.09506311,-0.1230857249999999,0.5115845833333333
725,7.250000477,-0.1261310485714285,0.1400778585714285,-1.3039088428571428,-0.1366770777142857,0.0767485971428571,0.6504214
726,7.260000477,-0.10866488,0.20053,-1.24242,-0.4201102,0.35581854,0.6563554
727,7.270000477,-0.0630873028571428,0.2139105657142857,-1.162946742857143,-0.6347793657142857,0.5924781942857142,0.5673461971428572
728,7.280000477,-0.12471982,0.1481663,-0.9497244142857144,-0.7522365971428571,0.7492041471428571,0.3964835071428571
729,7.290000477,-0.2092551,0.157392315,-0.7540887416666666,-0.6396079616666667,0.6944315433333333,0.4203647283333333
730,7.300000477,-0.2508813657142857,0.1787517085714285,-0.6606265714285714,-0.3752565571428571,0.4282475785714286,0.5298227357142857
731,7.310000477,-0.2881418166666666,0.2240933516666666,-0.7517308916666666,-0.0607283991666666,0.0365490308333333,0.6907664283333333
732,7.320000477,-0.2513038628571428,0.2351269585714285,-0.9282379271428572,0.0968411038571428,-0.300231433,0.8308831571428571
733,7.330000477,-0.16505028,0.2621900933333334,-1.1920004333333332,0.0901508733333333,-0.5971032,0.96422238
734,7.340000477,-0.0695380294285714,0.2939369985714286,-1.2862162,-0.2145164664285714,-0.5688296714285713,0.9895289385714284
735,7.350000477,0.0744301539999999,0.26178866,-1.1298881666666667,-0.4887287216666666,-0.4488709333333333,0.8880700833333334
736,7.360000477,0.1687424214285714,0.2080609257142857,-0.894011242857143,-0.5810248285714286,-0.4115801671428571,0.8017370428571429
737,7.370000477,0.12711979,0.15384608,-0.7110823857142857,-0.4665346,-0.511061,0.5586198357142858
738,7.380000477,-0.023995303,0.14317909,-0.6340309,-0.21486552,-0.7266027999999999,0.33138463
739,7.390000477,-0.1110212804285714,0.1320982985714285,-0.6978238428571428,-0.014856678,-0.8679703428571429,0.2350453042857143
740,7.400000477,-0.162494235,0.119641125,-0.76105053,0.0689748363333333,-0.9200378,0.17174989
741,7.410000477,-0.3254937342857142,0.134446,-0.95139702,0.0418648533142857,-0.8505175514285714,0.1460361228571428
742,7.420000477,-0.5372163099999999,0.1832119133333333,-1.1724770333333334,-0.0711128028,-0.6826218066666666,0.1847812933333333
743,7.430000477,-0.6676740185714286,0.2408023771428571,-1.2136378142857145,-0.4269167728571428,-0.2620098342857143,0.4130636342857143
744,7.440000477,-0.6311343885714286,0.2602852271428571,-1.0996765285714285,-0.5621758285714286,-0.1431564214285714,0.5727565471428572
745,7.450000477,-0.55000159,0.2809919999999999,-1.0051500933333333,-0.5056288333333333,-0.25625042,0.6767169433333334
746,7.460000477,-0.4625095571428571,0.3164165514285714,-0.9348367542857144,-0.3523934171428571,-0.42798577,0.7886474371428571
747,7.470000477,-0.3251510666666666,0.3676180033333333,-0.914281,-0.017561855,-0.7270100333333334,0.8929569066666666
748,7.480000477,-0.24754928,0.4280476342857143,-1.0154424857142856,0.21964322,-1.0437198,0.8595057285714286
749,7.490000477,-0.2250792016666667,0.459960775,-1.1765473666666668,0.3588727666666667,-1.4461809500000002,0.7473716066666666
750,7.500000477,-0.2167461028571428,0.4635549242857142,-1.299060942857143,0.3010168028571429,-1.5824870857142856,0.6935298114285714
751,7.510000477,-0.0826311285714285,0.4145755857142857,-1.3199071571428571,0.12515824,-1.5358882142857144,0.6621147857142857
752,7.520000477,0.0450788509999999,0.33709285,-1.29381025,-0.022448637,-1.3967023,0.569004205
753,7.530000477,0.1400081671428571,0.2368735857142857,-1.3361058857142858,-0.2366814957142857,-0.9744322942857142,0.2870545928571428
754,7.540000477,0.0762239573333333,0.20265411,-1.4231826333333333,-0.4115583433333333,-0.6752916533333333,0.06546247
755,7.550000477,-0.290400212,0.20788234,-1.419843314285714,-0.7232649571428571,-0.3319954928571428,-0.2506655485714286
756,7.560000477,-0.7058593033333334,0.2657472016666666,-1.26658305,-0.9057337333333332,-0.2796662316666666,-0.24057202
757,7.570000477,-0.8360853714285714,0.2775641028571428,-1.129930942857143,-0.902505042857143,-0.4909902828571429,0.0221213928571428
758,7.580000477,-0.7479145666666667,0.261626035,-1.01233545,-0.8043331666666665,-0.7632536416666666,0.3028784399999999
759,7.590000477,-0.5666402071428571,0.2517481371428571,-0.9890429142857142,-0.7539818714285714,-0.8772202842857143,0.4004976399999999
760,7.600000477,-0.3134024285714285,0.2475318571428571,-1.003294585714286,-0.6997036857142857,-1.0219038428571428,0.4195211757142857
761,7.610000477,-0.20350272,0.2691163099999999,-1.0482929,-0.7395833,-1.09921965,0.1835596099999999
762,7.620000477,-0.2125472485714285,0.3052660657142856,-1.0895975285714286,-0.9358398,-0.9782718714285714,-0.2063354857142857
763,7.630000477,-0.30087122,0.294117765,-1.0151049,-1.136634,-0.7247702500000001,-0.45660833
764,7.640000477,-0.61782788,0.2800294,-0.6442057142857143,-1.1536504428571426,-0.3361841499999999,-0.6859378314285715
765,7.650000477,-0.8875619666666666,0.3226712666666666,-0.3808301583333333,-0.8045367333333333,-0.2369069316666666,-0.6026008333333334
766,7.660000477,-0.9598556428571428,0.3407254457142857,-0.3356162771428571,-0.4572846257142857,-0.3031984085714286,-0.4183867514285714
767,7.670000477,-0.9002267,0.3002178514285714,-0.4823408628571428,0.15177372,-0.4513724799999999,-0.0770103888571428
768,7.680000477,-0.8034717000000001,0.259430785,-0.74375275,0.4335997566666666,-0.4533504766666666,0.1045566921666666
769,7.690000477,-0.7653756571428572,0.2468349642857143,-0.8842066571428572,0.5055633714285714,-0.4199574814285714,0.1788473514285714
770,7.700000477,-0.67032362,0.2361723233333333,-1.0760790666666666,0.4136454,-0.3238508433333333,0.2768156133333333
771,7.710000477,-0.5931443471428571,0.2209972142857143,-1.1818110857142856,0.2456260445714286,-0.2667220871428571,0.3020639728571428
772,7.720000477,-0.6084094666666666,0.2369752066666667,-1.0991799333333334,-0.123849278,-0.198219935,0.2434226349999999
773,7.730000477,-0.6541932128571428,0.2644318,-0.9790292428571428,-0.4115583285714285,-0.1122649999999999,0.2196868514285714
774,7.740000477,-0.6570505371428571,0.2597625385714285,-0.7948721742857143,-0.4796241657142857,-0.0455953849999999,0.2626206971428571
775,7.750000477,-0.6782713,0.26739365,-0.5466477,-0.2598646,0.0573178351666666,0.3036929083333333
776,7.760000477,-0.7236659285714285,0.29982587,-0.5602635342857143,0.0134168254285714,0.11776263,0.3114884671428571
777,7.770000477,-0.7928714833333333,0.3324940066666667,-0.6688906733333333,0.2307729971666666,0.1534244783333333,0.3128555866666666
778,7.780000477,-0.8756826057142858,0.38731354,-0.8286458914285715,0.3303374771428571,0.2001397485714285,0.3217856071428571
779,7.790000477,-0.9255011333333334,0.4396293233333333,-0.9376258333333332,0.3216110733333333,0.2841457866666667,0.3342352566666666
780,7.800000477,-0.9534223457142856,0.4813390714285714,-1.0091268,0.23742323,0.3634977428571428,0.3392383857142857
781,7.810000477,-0.9637249266666666,0.5160971866666667,-1.0443495,0.0844496346666666,0.4706577999999999,0.3440088166666666
782,7.820000477,-0.9606353,0.53317136,-1.0386581,-0.061455598,0.581482957142857,0.3547713671428571
783,7.830000477,-0.8380889828571428,0.52006955,-0.8070505857142857,-0.1413893171428571,0.7006854142857143,0.3600072057142857
784,7.840000477,-0.7114642566666666,0.52691082,-0.6606279733333333,-0.0295751799999999,0.6754952433333333,0.3407509733333334
785,7.850000477,-0.4618823457142857,0.5589481271428572,-0.64608738,0.52578678,0.5071341271428571,0.15877666
786,7.860000477,-0.32392135,0.59930325,-0.8068154,0.7972574833333333,0.34441604,-0.08745297
787,7.870000477,-0.31053207,0.60104551,-0.8631514285714285,0.8668358857142857,0.2739649857142857,-0.2276278671428571
788,7.880000477,-0.2826558557142857,0.6085372600000001,-1.1017977142857145,0.8930150571428571,0.1303286242857143,-0.68227276
789,7.890000477,-0.361515,0.56637454,-1.2375417,0.6976894083333334,0.1868174533333333,-1.0194023266666667
790,7.900000477,-0.4273942571428571,0.54108994,-1.2523727714285715,0.5343604714285715,0.2818187442857143,-1.2011439142857143
791,7.910000477,-0.54308045,0.48021096,-1.2636713,0.19821994,0.5158605,-1.3948697
792,7.920000477,-0.6227453785714286,0.4350645957142857,-1.1878393714285715,-0.0165583242857142,0.6842798071428572,-1.3896338428571429
793,7.930000477,-0.697525475,0.3911661166666667,-1.0653771833333332,-0.192060555,0.750629505,-1.29998475
794,7.940000477,-0.6674038942857143,0.3611186242857142,-0.9628523,-0.2235919085714285,0.6781713542857143,-1.132728971428571
795,7.950000477,-0.5431617666666667,0.35745988,-0.8292556666666666,-0.1138721116666666,0.5500679633333333,-0.9998551666666669
796,7.960000477,-0.4410361628571428,0.3651955357142857,-0.7478615714285715,0.0734543842857142,0.3846156271428572,-0.9390031142857144
797,7.970000477,-0.3773042342857143,0.3692375757142857,-0.8178569628571429,0.2903487842857143,0.19891805,-0.8824561714285715
798,7.980000477,-0.34189494,0.3533539666666667,-0.9300035216666666,0.372515,0.1937403833333333,-0.8455144266666667
799,7.990000477,-0.3286951371428571,0.3504211428571429,-1.0044837714285717,0.380776,0.2647150157142857,-0.7969375028571429
800,8.000000477,-0.30097794,0.3253695849999999,-1.0434145499999998,0.310005,0.378419875,-0.741874
801,8.010000477,-0.2784875142857143,0.2800512057142857,-1.0404701285714286,0.2083425542857142,0.5193510328571429,-0.6794803057142857
802,8.020000477,-0.27303423,0.271052425,-1.0502442,0.1003825673333333,0.6278491666666667,-0.60239718
803,8.030000477,-0.2493917228571428,0.2805564528571428,-1.0323512428571429,-0.0230594839999999,0.7177891428571428,-0.5089666428571429
804,8.040000477,-0.2003034885714285,0.3082279214285714,-1.0111392285714285,-0.1246346531428571,0.6968458342857142,-0.4409008228571429
805,8.050000477,-0.1391493883333333,0.335746205,-1.0081787666666668,-0.2028521949999999,0.60708039,-0.4160887716666666
806,8.060000477,-0.0813897728571428,0.3304330285714286,-1.0179165285714284,-0.2815351342857143,0.5703131857142857,-0.3986650857142857
807,8.070000477,-0.0283959666666666,0.2942549866666666,-0.9635725,-0.35983994,0.5826464733333333,-0.3702752466666667
808,8.080000477,-0.0154930641428571,0.2502628714285714,-0.8602592857142858,-0.3670537657142857,0.6207516828571428,-0.3246653242857143
809,8.090000477,-0.042543132,0.2192505966666666,-0.7808586000000001,-0.3020130766666667,0.6543192000000001,-0.2578793566666666
810,8.100000477,-0.1133820479999999,0.1999027785714286,-0.7262270557142857,-0.1148611012,0.6811383442857143,-0.1096470844285714
811,8.110000477,-0.0778224834285714,0.1968364014285714,-0.6850922557142857,0.1700555102285714,0.6231950871428572,0.0572014812857142
812,8.120000477,0.0190407456666666,0.1896350466666666,-0.6576908166666667,0.37007164,0.5203400466666667,0.1017060666666666
813,8.130000477,0.0983332645714285,0.15952585,-0.7312316714285715,0.6498978657142856,0.1961255971428571,-0.0805009399999999
814,8.140000477,0.059541075,0.1578953933333333,-0.9095500233333332,0.74553909,0.0542635966666666,-0.2185815133333333
815,8.150000477,0.0001263139999999,0.1531448257142857,-1.0848194114285714,0.6683978114285714,0.1038003968571428,-0.2508400571428571
816,8.160000477,-0.0533720128333333,0.1341135116666666,-1.2347976666666665,0.42952745,0.3519498216666666,-0.20717902
817,8.170000477,-0.0916604014285714,0.12603523,-1.252555657142857,0.1932240857142857,0.6151668185714286,-0.1243074157142857
818,8.180000477,-0.1475949966666666,0.1150067066666666,-1.2129518666666668,0.0025961024999999,0.8115105850000001,-0.015576605
819,8.190000477,-0.1643519228571428,0.0913467891428571,-1.158312342857143,-0.1474977964285714,0.93629796,0.1179371514285714
820,8.200000477,-0.1092790181428571,0.026630473,-0.8541177442857143,-0.1091016822857142,0.8012134399999999,0.3914221914285714
821,8.210000477,0.1565945,0.009695687,-0.49368733,0.19577655,0.4535541,0.5195256
822,8.220000477,0.3028573928571428,0.0459565155714285,-0.5639440514285715,0.8387369357142856,-0.1318121057142857,0.3195167399999999
823,8.230000477,0.278989875,0.1143511828333333,-0.96544254,1.0546278,-0.327719545,0.2171561949999999
824,8.240000477,0.2055215757142857,0.1418549642857142,-1.2853885571428572,1.0052364257142856,-0.2930757957142857,0.1408002942857142
825,8.250000477,0.1571738033333333,0.1513096366666666,-1.4495561,0.6541156216666667,-0.0530419058333333,0.1691028916666666
826,8.260000477,0.1190748848571428,0.1554097614285714,-1.3945151571428571,0.2993369785714285,0.1275361834285714,0.1968237142857143
827,8.270000477,0.109453244,0.1398339428571428,-1.2123180285714283,-0.0120642314285714,0.2294604028571429,0.2308566285714285
828,8.280000477,0.10790264,0.1100470733333333,-0.9189509333333332,-0.13097583,0.2381286166666666,0.26235889
829,8.290000477,0.1140266942857142,0.0958156957142857,-0.8215244,-0.1183516536714285,0.2261443771428571,0.26663482
830,8.300000477,0.0820525516666666,0.0416131999999999,-0.64171935,0.3067216807166666,0.1094434633333333,0.2798698616666666
831,8.310000477,-0.0256591619999999,0.0838724935714285,-0.73621452,0.4968369657142857,0.1495266728571428,0.3654175628571429
832,8.320000477,0.006153815,0.1132942083333333,-0.8378131166666667,0.5997502066666667,0.2179706583333333,0.5238015066666667
833,8.330000477,0.0605915157142857,0.09576778,-0.9763287257142858,0.5898602857142857,0.2467386714285714,0.62040264
834,8.340000477,0.0935638177142857,0.08704776,-1.0896279714285717,0.4893322857142857,0.2849602571428571,0.7057467285714285
835,8.350000477,0.1117239906666666,0.0671279016666666,-1.0332716666666668,0.3352533333333333,0.3185568333333333,0.7691585233333332
836,8.360000477,0.1512893154285714,0.0593109528571428,-0.9093431,0.2778046128571428,0.3237054171428571,0.7877748028571429
837,8.370000477,0.19881749,0.0278725611666666,-0.7785007333333334,0.3150953833333333,0.3281267966666666,0.77465611
838,8.380000477,0.2412466514285714,-0.0149224738571428,-0.7356483285714285,0.3902005128571429,0.3296393628571428,0.77119464
839,8.390000477,0.29326407,-0.048630885,-0.7416439,0.4999785,0.309394135,0.7791356700000001
840,8.400000477,0.28395822,-0.0200055213142857,-0.8914588285714286,0.5408179842857143,0.2579084442857143,0.8219822428571428
841,8.410000477,0.2570794514285714,0.0379421086285714,-1.0573135,0.3287667214285714,0.3071252828571428,0.9287932571428572
842,8.420000477,0.3091288,0.0685913961666666,-1.0237995,0.041690327,0.4437805399999999,0.98743457
843,8.430000477,0.3574903742857143,0.0644332028571428,-0.8646715228571429,-0.088158349,0.5694405628571428,0.9623025671428572
844,8.440000477,0.3768106033333333,0.0236853258333333,-0.66697486,-0.0975828491666666,0.7074629833333334,0.899065375
845,8.450000477,0.3649516085714285,-0.053069295,-0.5327749828571429,0.0566997185714285,0.7971993357142857,0.8584585771428571
846,8.460000477,0.4004908466666666,-0.1229136716666666,-0.4711657066666666,0.33662773,0.7821899166666667,0.87870378
847,8.470000477,0.4898718114285714,-0.1658197771428571,-0.5013663414285714,0.6444875000000001,0.6022517571428571,0.8931895714285715
848,8.480000477,0.5732259928571429,-0.1930513342857142,-0.6581481285714286,0.8937131857142857,0.3310355742857143,0.8570623285714286
849,8.490000477,0.426340925,-0.1573211766666666,-1.101415866666667,0.9554669166666666,0.0206669975833333,0.8530481833333333
850,8.500000477,0.3440967342857143,-0.12847004,-1.2238170428571429,0.6128979571428571,0.1064183154571428,0.98027894
851,8.510000477,0.3031985783333333,-0.1012660691666666,-1.1743469666666666,0.16388523,0.346859425,1.1855526666666665
852,8.520000477,0.3736890585714286,-0.1043789142857142,-1.0299773285714289,-0.0741961245714285,0.5643792228571429,1.3549901
853,8.530000477,0.4994956216666666,-0.1365780966666666,-0.8651266483333333,-0.25029466,0.80418044,1.5408622
854,8.540000477,0.6070519499999999,-0.1668172257142857,-0.7757813157142858,-0.2590210457142857,0.8338501257142857,1.6028196285714285
855,8.550000477,0.8742278071428571,-0.1823843371428571,-0.7155338928571429,-0.2227192742857142,0.7368126857142857,1.6349327142857142
856,8.560000477,1.0101910666666667,-0.15716364,-0.6946340366666667,-0.14034216,0.51667498,1.4708184666666666
857,8.570000477,1.0368027,-0.1188179085714285,-0.7349558042857144,-0.0836206277142857,0.3353987871428571,1.2994903285714283
858,8.580000477,0.9664283666666668,-0.0911028766666666,-0.8184318733333332,-0.0853659039999999,0.2727432999999999,1.1943082
859,8.590000477,0.9300847428571428,-0.0707053444285714,-0.79250266,-0.1244601257142857,0.3867099257142857,1.0876135714285715
860,8.600000477,0.93360625,-0.0538344395,-0.693536425,-0.0438282891333333,0.6779386533333334,1.033859
861,8.610000477,0.9041904085714286,-0.0583527062857142,-0.7311925128571428,0.0762468307428571,0.7830625542857143,1.0082034028571427
862,8.620000477,0.8601771733333333,-0.0555825143333333,-0.860538025,0.2668129883333333,0.7828007516666666,0.94915484
863,8.630000477,0.9176406571428573,-0.0808148185714285,-0.9585707714285716,0.2989224542857143,0.6537374571428571,0.9064536857142856
864,8.640000477,1.0735644228571428,-0.1038910757142857,-1.0471909857142858,0.2898470257142857,0.3895023914285714,0.7978974
865,8.650000477,1.1570747166666666,-0.0956153316666666,-1.1417231,0.235481615,0.1202351024999999,0.6264238416666666
866,8.660000477,1.1986849142857143,-0.10789828,-1.2595507857142856,0.0721236065714285,-0.0269209112857142,0.4703087442857143
867,8.670000477,1.2449202285714287,-0.1349904542857143,-1.3608328428571428,-0.1577949405714285,-0.0934159991428571,0.3216110742857143
868,8.680000477,1.2837335,-0.169689775,-1.3365109000000002,-0.4445441,-0.0558925248666666,0.175414964
869,8.690000477,1.298281357142857,-0.2287459157142857,-1.19473,-0.8372316428571429,0.0460317067142857,-0.0778830257142857
870,8.700000477,1.2428571333333334,-0.2834819799999999,-1.0144901133333333,-1.2044381666666666,0.2120658166666666,-0.4236225799999999
871,8.710000477,1.0758293714285716,-0.2817629571428571,-0.8583688971428571,-1.3297490714285711,0.3320827514285714,-0.6534756714285714
872,8.720000477,0.9268224333333334,-0.2120550533333333,-0.6812795733333333,-1.1993476666666665,0.3912476683333333,-0.6726446250000001
873,8.730000477,0.9082760571428572,-0.1548304585714285,-0.5352272314285714,-0.9576557999999998,0.3125356514285714,-0.6302634571428571
874,8.740000477,0.9740289285714284,-0.1230254751428571,-0.4693348771428572,-0.5422796571428571,0.0284044005714285,-0.6142069
875,8.750000477,1.0615253,-0.091102876,-0.5249392,-0.1584639583333333,-0.248309411,-0.6203154
876,8.760000477,1.1591355142857145,-0.1026018038571428,-0.6697864857142858,0.1831669085714285,-0.4524196642857143,-0.7096736285714286
877,8.770000477,1.20575625,-0.1108601275,-0.75983093,0.3285340066666666,-0.52990999,-0.7897237133333334
878,8.780000477,1.2829798714285714,-0.1184912357142857,-0.8671368128571428,0.3408091328571428,-0.5670843985714286,-0.9241682571428572
879,8.790000477,1.3803941428571431,-0.1155990814285714,-1.097267842857143,0.2334745514285714,-0.70286703,-1.2733982857142858
880,8.800000477,1.2268196333333332,-0.0584332883333333,-1.2905579833333334,-0.0918561483333333,-0.81252865,-1.6109060833333333
881,8.810000477,1.0202512285714285,-0.0635446514285714,-1.2175840999999998,-0.4386101457142857,-0.7979846428571429,-1.7872082571428571
882,8.820000477,0.8996866666666666,-0.097927465,-0.9684558833333332,-0.6620057300000001,-0.7198834499999999,-1.8273496
883,8.830000477,0.8437643999999999,-0.1262530142857142,-0.690432257142857,-0.73897246,-0.6341030571428571,-1.7355479285714286
884,8.840000477,0.8515131,-0.1235895249999999,-0.511711775,-0.5323024749999999,-0.7373944233333333,-1.614163866666667
885,8.850000477,0.8435161828571429,-0.1143098088571428,-0.4863001485714285,-0.27263422,-0.8285270114285714,-1.5301287285714285
886,8.860000477,0.7971850428571429,-0.0999535685714285,-0.6309950000000001,-0.0394650964285714,-0.7723291142857143,-1.4093555
887,8.870000477,0.7642824,-0.097444708,-0.78594525,0.0019852535,-0.57572355,-1.2812521
888,8.880000477,0.7414152142857143,-0.0559527388571428,-0.9283425,-0.1574458868571428,-0.1550242985714285,-1.1149271571428572
889,8.890000477,0.7000103666666666,0.0875457593333333,-1.0208421,-0.4490236433333334,0.2527889466666667,-1.0014841333333333
890,8.900000477,0.7275903857142857,0.1918491785714285,-0.7039217285714285,-0.7798119785714286,0.3741439342857143,-0.937257857142857
891,8.910000477,0.8662446333333333,0.1740243833333333,-0.4036871666666666,-0.6516213166666667,0.25380704,-0.98560205
892,8.920000477,0.9186250328571428,0.1267756921428571,-0.22633289,-0.1591911592857142,-0.0736943571428571,-1.1658892285714286
893,8.930000477,0.896341537142857,0.0608136547142857,-0.2032174328571428,0.1379205868571428,-0.2380995357142857,-1.2660681857142857
894,8.940000477,0.7740391,-0.053753138,-0.4273115,0.7321003999999999,-0.37597647,-1.3899829
895,8.950000477,0.6389005,-0.0573073485714285,-0.7122236428571428,0.8954584571428571,-0.3414199928571428,-1.4004546142857142
896,8.960000477,0.3425606333333333,0.0387319343333333,-1.1288768666666666,0.7402450666666667,-0.04815513,-1.3525176333333333
897,8.970000477,0.20565225,0.08704776,-1.3134608,0.6490252,0.095597595,-1.3276765
898,8.980000477,0.015295615,0.1453031933333333,-1.3531582333333334,0.5651355166666666,0.1558678533333333,-1.3016137
899,8.990000477,-0.2988937371428571,0.2432110499999999,-0.9554390285714286,-0.6750734700000001,0.5088794242857143,-0.6253766971428572
900,9.000000477,-0.319043,0.24788031,-0.81096196,-0.85381174,0.5476246,-0.52135813
901,9.010000477,-0.319043,0.24788031,-0.8109619599999999,-0.8538117399999999,0.5476246,-0.52135813
902,9.020000477,0.2111011714285714,0.2106089814285714,-0.2893330877142857,0.1957110828571428,-0.737249,-0.2354816195714285
903,9.030000477,0.5501997833333333,0.2074409666666666,-0.4968785973333334,1.1045136,-1.5738479333333333,-0.3381039733333333
904,9.040000477,0.4983740142857143,0.2472443814285714,-0.9735541914285716,1.1490473,-1.3465255,-0.6005937428571428
905,9.050000477,0.4085400933333333,0.2799350233333333,-1.2551240666666663,0.9385668,-0.90659912,-0.84388548
906,9.060000477,0.2405453957142857,0.2783176142857143,-1.360061971428571,0.5262667228571429,-0.3777217507142857,-1.0433707657142857
907,9.070000477,-0.01165573,0.2208273228571428,-1.300337242857143,-0.0548235471428571,0.3305120028571428,-1.211964614285714
908,9.080000477,-0.182373445,0.113543205,-0.98935655,-0.270452635,0.7992936300000001,-1.11510165
909,9.090000477,-0.2825382628571428,0.0448066178,-0.7906994714285714,-0.1101052257142857,0.9064536857142856,-0.8716353857142857
910,9.100000477,-0.30627802,-0.0301643629,-0.7971400433333334,0.5569908866666666,0.37658733,-0.3157062366666667
911,9.110000477,-0.2825730914285714,-0.0553560158571428,-1.0484802114285714,0.8507793428571429,-0.2592173942857143,-0.0377416357142857
912,9.120000477,-0.2180869,-0.0090503243333333,-1.3934958666666664,0.8467361233333334,-0.8587494000000001,0.1837632219999999
913,9.130000477,-0.1401301285714285,0.0111940326,-1.6647269142857142,0.5420396857142857,-1.0815922714285715,0.23330002
914,9.140000477,-0.14259979,0.06485134,-1.7458946,-0.21608722,-1.0210311,0.2202104299999999
915,9.150000477,-0.1234349042857142,0.0866296185714285,-1.6087131714285714,-0.7047649914285714,-0.8089798857142857,0.2079934942857143
916,9.160000477,-0.1215009899999999,0.0768032635,-1.3518928499999998,-1.13968825,-0.57938861,0.1982199399999999
917,9.170000477,-0.12723303,0.058265597,-1.1499451,-1.3791404,-0.43461782,0.19333316
918,9.180000477,-0.14368434,0.0395406357142857,-0.9300237471428572,-1.3698904285714286,-0.2262316442857142,0.2722197171428571
919,9.190000477,-0.0810064685714285,0.042798664,-0.3961947242857143,-0.3515207742857143,0.0585977037142857,0.5439594685714286
920,9.200000477,-0.1574583766666666,0.050251913,-0.7277914566666667,0.1489194716666666,-0.1511846956666666,0.4327852733333333
921,9.210000477,-0.3228933971428572,0.0892430154285714,-1.1548583514285713,0.3006677299999999,-0.23740142,0.3027620742857143
922,9.220000477,-0.63119537,0.17028433,-1.4913675,0.1164427583333333,-0.1821342866666666,0.2544178733333333
923,9.230000477,-0.8033395442857143,0.22989583,-1.5375984428571428,-0.2221956871428571,-0.0996989957142857,0.3940401142857143
924,9.240000477,-0.80110874,0.2607672466666667,-1.4303832666666665,-0.6575261583333334,-0.0198525358333333,0.6803820333333332
925,9.250000477,-0.6359648114285715,0.2658256014285714,-1.228904485714286,-0.8812126257142857,-0.053100078,0.8499067028571429
926,9.260000477,-0.3352482266666667,0.263734875,-0.9954289916666668,-0.9627461433333334,-0.2069754093333333,0.8760567666666667
927,9.270000477,-0.1913177885714286,0.2806870857142857,-0.9268789557142856,-0.9166417542857144,-0.3187313771428571,0.7561852571428572
928,9.280000477,-0.043752555,0.3018164,-0.95615333,-0.83025051,-0.3642831157142857,0.3807760142857143
929,9.290000477,-0.0631235983333333,0.2578910666666666,-0.9854436433333332,-0.83915145,-0.22448636,0.178061985
930,9.300000477,-0.18924448,0.2065016,-0.9318966857142856,-0.8206514857142857,0.0442864314285714,-0.0511802714285714
931,9.310000477,-0.471806,0.216369325,-0.7530266,-0.5630485,0.14568707,-0.0045813546
932,9.320000477,-0.5859880000000001,0.2344300471428571,-0.680941257142857,-0.2899124785714285,-0.0480387728571428,0.1760548986857142
933,9.330000477,-0.6521722,0.24958774,-0.7589772,0.1544170966666666,-0.4309527516666667,0.5089375916666666
934,9.340000477,-0.5833092999999999,0.2417475614285714,-0.8820462000000001,0.4717049614285714,-0.7108952971428572,0.8385623814285715
935,9.350000477,-0.3473170066666666,0.2349527483333333,-1.03905455,0.6355866,-0.9000834333333333,1.0446506233333337
936,9.360000477,-0.2484465442857142,0.2404234457142857,-1.0898981,0.6804402571428572,-1.0060218428571428,1.0671938
937,9.370000477,-0.0924618381428571,0.2659737,-1.198188342857143,0.6884685342857144,-1.1365686714285714,1.02425996
938,9.380000477,-0.0399362743333333,0.3293230916666667,-1.3554348666666665,0.3997995299999999,-1.1749647,0.8750386999999998
939,9.390000477,0.0094474154285714,0.3369709,-1.369766414285714,0.1106506191428571,-1.0932857571428571,0.7839351800000001
940,9.400000477,0.0021495156666666,0.3225137333333334,-1.26977935,-0.103691322,-1.0251035333333334,0.7255847533333334
941,9.410000477,-0.0201623260857142,0.3217130142857143,-1.1479545714285713,-0.2853747428571428,-0.9358616428571428,0.6830581214285714
942,9.420000477,-0.0573966448333333,0.315638325,-1.0289218666666666,-0.3675773366666666,-0.8937713666666666,0.6634819616666666
943,9.430000477,-0.0854579514285714,0.3138379814285714,-0.9994616342857144,-0.3928838685714285,-0.9035739914285716,0.6444874971428571
944,9.440000477,-0.1218211383333333,0.3145407283333333,-1.00313776,-0.4288656783333333,-0.9114859266666668,0.6166503283333333
945,9.450000477,-0.1761034828571428,0.3203192285714286,-0.9936773142857142,-0.4893977314285714,-0.8887391571428572,0.5996338714285715
946,9.460000477,-0.2129595766666666,0.3205979866666666,-0.9403902466666666,-0.5691569200000001,-0.884201415,0.5995465999999999
947,9.470000477,-0.2138887785714285,0.3189341285714286,-0.7845013285714285,-0.5407088857142858,-0.9372578357142858,0.6382044942857144
948,9.480000477,-0.1183954114285714,0.3474592828571429,-0.5987021714285714,-0.1366770714285714,-1.1493091,0.7909163157142858
949,9.490000477,-0.022531802,0.34916672,-0.7470253000000001,0.2295513083333333,-1.3022245166666668,0.837980675
950,9.500000477,0.0448153325714285,0.3675650171428571,-0.9934421285714288,0.3727477285714285,-1.3955678285714286,0.7788739142857143
951,9.510000477,0.0859450591666666,0.3738836,-1.3001012666666667,0.2505491916666666,-1.4231723166666663,0.57592716
952,9.520000477,0.0237426751428571,0.3770429057142857,-1.519326457142857,-0.1801126757142856,-1.2690351857142856,0.3036347285714286
953,9.530000477,-0.08646846,0.39993185,-1.4754825,-0.7057830966666666,-1.008203408333333,0.055485295
954,9.540000477,-0.1443463971428571,0.4216753071428571,-1.3206999285714285,-1.0510281428571429,-0.7852441299999999,-0.1230857268571428
955,9.550000477,-0.2276352385714286,0.4414674142857143,-1.0099326342857142,-1.268315242857143,-0.5862824714285714,-0.2815569557142857
956,9.560000477,-0.272927515,0.4323728,-0.70552898,-1.1519052666666667,-0.4879651666666666,-0.3975597533333333
957,9.570000477,-0.3355770828571428,0.3676651999999999,-0.366132,-0.6541520000000001,-0.4918629571428571,-0.4995421514285714
958,9.580000477,-0.38787325,0.28338545,-0.231720845,0.0038941499999999,-0.5635066000000001,-0.5702259150000001
959,9.590000477,-0.4703932814285714,0.1570561999999999,-0.4520647128571428,0.7553126428571428,-0.7101972071428572,-0.6533011442857143
960,9.600000477,-0.5675636133333334,0.0988472266666666,-0.7046345933333334,1.1364813,-0.78524415,-0.7233449433333333
961,9.610000477,-0.7378697028571429,0.0596245577142857,-1.07204862,1.2754054714285714,-0.8192770885714287,-0.7487678285714285
962,9.620000477,-0.8682562328571429,0.0662103134285714,-1.3204821,1.1110003,-0.8119468714285715,-0.6775605142857143
963,9.630000477,-0.90647568,0.07021751,-1.4366997,0.6508577666666666,-0.7384125,-0.5280774333333333
964,9.640000477,-0.8924954457142856,0.0733884271428571,-1.4774119714285714,0.26724568,-0.675989742857143,-0.45730642
965,9.650000477,-0.876087675,0.069973595,-1.39898405,-0.1372879175,-0.56961506,-0.40957308
966,9.660000477,-0.9295402928571428,0.0954977342857142,-1.0387931914285713,-0.4794496357142857,-0.3428162028571428,-0.3084342285714285
967,9.670000477,-0.9959901857142855,0.1707634471428571,-0.6374631457142856,-0.6457746428571429,-0.0721236085714285,-0.069156635
968,9.680000477,-0.9986761666666668,0.2362891983333333,-0.4470382766666667,-0.4382320166666666,-0.0341056391666666,0.1456870685
969,9.690000477,-0.9065424,0.2530374257142857,-0.4082860285714285,-0.1920023857142857,0.0043195628571428,0.2912432342857142
970,9.700000477,-0.7889992666666666,0.2982745166666666,-0.4491268083333333,0.1531954,0.104149457,0.3668137666666666
971,9.710000477,-0.7802545714285715,0.3562707742857142,-0.5786225757142857,0.3730967785714286,0.16488513,0.3388893328571428
972,9.720000477,-0.8241334199999999,0.3972386433333333,-0.7230909233333334,0.49712785,0.20025609,0.2845530233333333
973,9.730000477,-0.8902217671428571,0.44942956,-0.8710917257142857,0.4914266214285714,0.2504037342857143,0.2446443357142857
974,9.740000477,-0.9390893566666666,0.5166561666666666,-0.9736543333333332,0.382084965,0.333828015,0.246476865
975,9.750000477,-0.8955618142857142,0.5463080028571429,-0.9632051628571427,0.1901043885714285,0.42196456,0.2699508557142857
976,9.760000477,-0.7155643857142857,0.5281188099999999,-0.7929295514285715,-0.010842538,0.43767205,0.16889927
977,9.770000477,-0.6099949333333333,0.5035507066666667,-0.7454805083333333,0.0176636661666666,0.4030573749999999,0.0457117366666666
978,9.780000477,-0.5496749142857144,0.4754371471428572,-0.7789304714285714,0.023364907,0.3689081085714285,-0.0983027757142857
979,9.790000477,-0.499150075,0.4227025116666666,-0.8366138666666667,-0.0369053576666666,0.3452305066666667,-0.3490992033333333
980,9.800000477,-0.4614598671428571,0.3571767485714286,-0.8540480714285714,-0.1918278542857143,0.39072408,-0.6278200828571429
981,9.810000477,-0.4245166549999999,0.2252163883333333,-0.7964692333333333,-0.4188885,0.5439595,-0.9526163
982,9.820000477,-0.4577052771428572,0.1800061528571428,-0.6830407285714285,-0.4686289285714285,0.6268602142857143,-1.0477339428571428
983,9.830000477,-0.5271474628571429,0.2056740285714286,-0.5786531142857143,-0.3550113285714286,0.7437938285714285,-1.102361142857143
984,9.840000477,-0.61930442,0.2248708466666666,-0.5544530933333333,-0.2274897,0.8163973866666666,-1.100848533333333
985,9.850000477,-0.7060342257142856,0.2257884342857143,-0.5732825971428571,-0.042432072,0.9001707057142857,-1.0479084285714286
986,9.860000477,-0.9103732933333334,0.2156172466666666,-0.7745574066666667,0.2722851746666666,1.0688808533333334,-0.7522584
987,9.870000477,-0.9228282714285714,0.2227438285714285,-0.8845899228571429,0.3977052028571428,1.1919811,-0.3670755714285714
988,9.880000477,-0.8004024,0.2220048166666667,-0.95013672,0.3531715333333333,1.1835166,-0.0357345633333333
989,9.890000477,-0.5566178857142857,0.2250523257142857,-0.93193594,0.3074743285714286,1.1270568714285716,0.0999607942857142
990,9.900000477,-0.3713195885714286,0.2552326785714285,-0.9105409357142856,0.2882762771428572,1.053755214285714,0.0877438442857142
991,9.910000477,-0.27583927,0.28205913,-0.9415183700000002,0.2986025233333333,1.0367096333333332,-0.0923397475
992,9.920000477,-0.2938324685714286,0.2881222028571428,-0.9834633542857144,0.2917668371428571,1.1048918428571428,-0.2663730328571428
993,9.930000477,-0.3855611083333333,0.2844169916666666,-1.1111675,0.25950829,1.3201427,-0.4291202
994,9.940000477,-0.4840265071428571,0.2915370385714286,-1.1531378571428572,0.21881422,1.503513257142857,-0.4079150714285715
995,9.950000477,-0.6080842666666667,0.3129552499999999,-1.1320376,0.215323655,1.55979845,-0.284960245
996,9.960000477,-0.608031997142857,0.3258726642857143,-1.1048597142857142,0.2861819357142857,1.3720937714285717,-0.1075527509285714
997,9.970000477,-0.4273768657142857,0.3444277642857142,-1.0983785714285712,0.4470965642857142,0.8907461942857143,0.0889655420714285
998,9.980000477,-0.2660978416666666,0.3377026449999999,-1.142012866666667,0.5183038916666667,0.57083676,0.08989636
999,9.990000477,-0.1469859242857143,0.3300497514285713,-1.2294707142857142,0.5039926257142857,0.4010212142857142,0.0050176757142857
