id,timestamp,acc_x,acc_y,acc_z,gyro_x,gyro_y,gyro_z
0,4.77e-07,-0.7152725685714286,0.4905687099999999,0.9358603371428572,0.4767662857142857,-0.0319822164285714,-0.2183778942857142
1,0.010000477,-0.8612610142857143,0.5095724457142857,1.0016874142857142,0.42248813,0.2990969914285714,-0.1791091414285714
2,0.020000477,-0.8509134533333333,0.475729,1.0426523,0.47717352,0.60993098,-0.0424538833333333
3,0.030000477,-0.83056676,0.43212888,1.0740565,0.5464029,0.873817,0.05283829
4,0.040000477,-0.800565,0.3952974399999999,1.0555189,0.7179636942857143,1.2017547285714285,0.1228239357142857
5,0.050000477,-0.8099776028571429,0.4001757871428571,1.0220021771428571,0.8158737857142857,1.2364856999999998,0.1277107128571428
6,0.060000477,-0.8635259999999999,0.41334727,0.99231404,0.9886563,1.0741749,0.14446537
7,0.070000477,-0.8610171428571428,0.3790334414285715,1.0109213771428571,1.1520142714285715,0.8867320714285715,0.2104368785714285
8,0.080000477,-0.81234925,0.3548987416666667,0.9194998066666668,1.4286699333333333,0.7390233833333334,0.3004350433333333
9,0.090000477,-0.763947,0.3811198,0.80193704,1.5152066000000002,0.7125533,0.32894126
10,0.100000477,-0.6959450566666666,0.4414891666666666,0.69407506,1.4533074,0.6932098,0.3326063333333333
11,0.110000477,-0.726505782857143,0.4467203085714285,0.6039507142857143,1.3408533285714286,0.7160438857142858,0.34325252
12,0.120000477,-0.8674634657142857,0.4429701128571429,0.4941359428571429,1.1082078628571428,0.7146476785714285,0.4755445957142857
13,0.130000477,-0.8706350833333333,0.4484966816666667,0.5338929066666666,0.961779,0.8275962416666666,0.7105171650000001
14,0.140000477,-0.812273,0.44359294,0.6323234399999998,0.8945858,0.9630007,0.93245834
15,0.150000477,-0.7622396,0.43237278,0.7236093,0.917798,0.9972082,1.0399674
16,0.160000477,-0.57628363,0.36526522,0.89371073,1.3197355,0.9581139,1.2329952
17,0.170000477,-0.47984941,0.3485395,0.77595119,1.5930459571428572,0.9664912371428572,1.2120518571428571
18,0.180000477,-0.4037634066666666,0.3353854133333333,0.59808365,1.7414237,1.1043099933333334,1.1576573833333337
19,0.190000477,-0.3686321514285714,0.4109429885714286,0.5649763628571429,1.611895057142857,1.0354297714285714,0.8156992714285715
20,0.200000477,-0.47133848,0.43017754,0.5971995,1.61192415,0.8848122750000001,0.6693868
21,0.210000477,-0.52893335,0.4372511,0.5471661,1.7031730857142855,0.711506157142857,0.6137705571428571
22,0.220000477,-0.4637313133333333,0.40769147,0.4628572849999999,1.8271459333333333,0.5238015633333334,0.5730765416666667
23,0.230000477,-0.4470600399999999,0.3724781828571428,0.4257696314285714,1.9391346000000005,0.3863608800000001,0.51097375
24,0.240000477,-0.4561416199999999,0.3725173771428571,0.3821085257142856,2.0251767285714286,0.3271959642857143,0.4552993628571428
25,0.250000477,-0.43268278,0.4094852833333333,0.2214102773333333,2.096122316666667,0.213083885,0.336271425
26,0.260000477,-0.3795691714285714,0.4500436885714285,0.084800244,1.986082585714286,0.1760549085714285,0.2093897099999999
27,0.270000477,-0.40008432,0.49460202,0.032715324,1.7106777,0.2043284,0.03451287
28,0.280000477,-0.4800889828571429,0.5039144085714286,0.1535586068571428,1.325843957142857,0.6523412685714286,-0.0171473538857142
29,0.290000477,-0.4961824166666666,0.5201624433333333,0.338226025,0.9821405766666668,1.191254,-0.0143549108333333
30,0.300000477,-0.5454238285714286,0.5748636714285714,0.4806508571428571,1.0188495857142856,1.1647547857142857,-0.0450718018571428
31,0.310000477,-0.58912485,0.6428373333333334,0.469681875,1.168449,0.8304468433333333,-0.02779355
32,0.320000477,-0.5252746,0.705468,0.3556,1.2794195,0.39369106,-0.015576605
33,0.330000477,-0.4427784542857142,0.7534411714285714,0.2926956514285714,1.1921557,0.0270081757142857,-0.1888826942857142
34,0.340000477,-0.4318036566666667,0.7889281466666667,0.4569473866666667,1.098201566666667,-0.0257573916666666,-0.32100023
35,0.350000477,-0.47670463,0.80065644,0.7221458,1.0045383,-0.026571855,-0.4333961299999999
36,0.360000477,-0.6931807,0.8235847,1.220742,1.0326372,-0.07666133,-0.5091412
37,0.370000477,-0.7206038971428571,0.7877898542857142,1.568471257142857,1.3597023428571429,-0.0040577728571428,-0.47283942
38,0.380000477,-0.6995123666666667,0.68757061,1.558404,1.845471366666667,0.5288919166666667,-0.374754795
39,0.390000477,-0.6160899857142857,0.6730662857142856,1.4097208142857145,2.330600514285714,1.2066632857142856,-0.3377549057142857
40,0.400000477,-0.3875226142857143,0.6536139,0.8196341,2.713514514285714,2.0134617142857145,-0.5545184285714286
41,0.410000477,-0.3447457066666666,0.6093038333333333,0.4223823866666667,2.722648066666667,2.230865166666667,-0.8308541000000002
42,0.420000477,-0.4045314285714286,0.5858791485714285,0.1265666171428571,2.6131608857142856,2.0530357857142856,-1.0861300714285715
43,0.430000477,-0.4706067,0.55536777,-0.06222924,2.4402330666666665,1.7320573333333336,-1.2574291
44,0.440000477,-0.76004434,0.48704064,-0.0119519169999999,2.3435154,1.545749,-1.3154596
45,0.450000477,-0.8698678000000001,0.5514651,-0.28260794,2.165148,0.8982509,-0.9892670999999998
46,0.460000477,-0.6629524428571428,0.6225929571428572,-0.3488356828571429,1.9127808857142856,0.6919590714285714,-0.9463332685714284
47,0.470000477,-0.3951580857142857,0.5334501142857143,-0.2731736042857143,1.6991589428571428,0.7547890642857144,-1.1527996614285716
48,0.480000477,-0.2482309466666666,0.38361487,-0.3249325833333333,1.7021258999999995,1.1548067,-1.4938270000000002
49,0.490000477,-0.2495180371428571,0.22342766,-0.7680021,1.6899089,1.8257134285714285,-1.781972428571429
50,0.500000477,-0.36408484,0.0940821428571428,-1.0948896142857143,1.5239329857142856,2.4405311285714286,-1.9643539142857145
51,0.510000477,-0.5714053,0.03969744,-1.3795927,1.3197355,2.9117563,-1.965401
52,0.520000477,-0.8661698714285714,-0.0193957309285714,-1.6062391857142857,0.9937175571428573,3.3400473857142856,-1.632402028571429
53,0.530000477,-0.9843649142857144,-0.0357729938571428,-1.7224785571428571,0.7382089,3.6313343,-1.2641484
54,0.540000477,-1.0305566142857143,-0.0398847302857142,-1.759662742857143,0.4278985,3.6093438,-0.7388198
55,0.550000477,-0.9813987,-0.026922302,-1.7895862,0.16401249,2.9313033,-0.2831277
56,0.560000477,-0.84715307,-0.0503383,-1.7669017,-0.108425386,1.9356222,0.08582404
57,0.570000477,-0.7388018385714286,-0.0346579445714285,-1.5771695285714284,-0.3185568397142857,1.1843673771428571,0.3350497085714286
58,0.580000477,-0.6867474071428571,0.0054358565714285,-1.4625722857142858,-0.6353247757142857,0.0868712095714285,0.6361101314285714
59,0.590000477,-0.547709825,0.12029158,-1.059441876666667,-0.9092461666666668,-1.16620915,0.7789320666666667
60,0.600000477,-0.4656151228571428,0.1442985014285714,-0.8455066371428571,-1.0199840857142857,-1.8477693285714287,0.7893455857142858
61,0.610000477,-0.3713021514285714,0.1844010057142857,-0.6146438771428571,-1.091889542857143,-2.3420320714285716,0.7467607742857144
62,0.620000477,-0.3012371,0.22665958,-0.48075974,-1.1224319,-2.501725,0.69789296
63,0.630000477,-0.24827668,0.2608079,-0.44365394,-1.1909994000000002,-2.4479704,0.581832
64,0.640000477,-0.2723198971428571,0.2618532457142857,-0.4212833000000001,-1.2841973142857144,-2.2416785714285714,0.4603606714285714
65,0.650000477,-0.3474549428571428,0.2663831342857143,-0.3816424814285714,-1.3772205571428573,-2.0250896285714286,0.3710024357142857
66,0.660000477,-0.48287368,0.2675156083333333,-0.3491870466666666,-1.4339130999999998,-1.9692698,0.351338975
67,0.670000477,-0.5653335142857142,0.2194378828571428,-0.3006142228571428,-1.4475552285714284,-2.3987535857142857,0.4774644142857143
68,0.680000477,-0.5391778,0.19101724,-0.27062553,-1.4109044,-2.7485073,0.5476246
69,0.690000477,-0.5277485371428571,0.1299335371428571,-0.2247605185714285,-1.2941453,-3.2776754857142856,0.7684022285714286
70,0.700000477,-0.53527516,0.10168276,-0.14860623,-1.2237561,-3.5222725166666664,0.9157618833333334
71,0.710000477,-0.5601241714285715,0.1041959785714285,-0.0723300032857142,-1.1370921,-3.7993171,1.0766183
72,0.720000477,-0.545916,0.11488475,0.0059672464285714,-1.007418014285714,-4.213820685714286,1.3679051285714288
73,0.730000477,-0.4517424057142857,0.1340844757142857,0.0258812982857142,-0.92591355,-4.441928528571428,1.5501122285714286
74,0.740000477,-0.31660384,0.13952033,-0.0282943319999999,-0.89764005,-4.5592113,1.6642534
75,0.750000477,-0.1491289028571428,0.1164527871428571,-0.0994178214285714,-0.988568985714286,-4.455192714285714,1.6939230857142855
76,0.760000477,-0.1086692314285714,0.1196933999999999,-0.1026235857142857,-1.1735902714285715,-4.263212071428571,1.6630316714285716
77,0.770000477,-0.1902114371428571,0.1287923657142857,0.1475608714285714,-1.4871731285714287,-4.370371928571428,1.7050928000000003
78,0.780000477,-0.4053590000000001,0.2080696371428571,0.2137581257142857,-1.4960740857142858,-4.678762842857142,1.9119082142857144
79,0.790000477,-0.4708303066666666,0.24584768,0.32718374,-1.3575571833333333,-4.535388366666667,2.077185983333333
80,0.800000477,-0.3739460271428571,0.2785876828571428,0.5343996714285715,-1.1092767685714284,-4.439136157142857,2.407916228571428
81,0.810000477,-0.1810950648571428,0.4162350714285714,0.7207171857142857,-0.937956,-4.685569357142858,2.6624215
82,0.820000477,-0.024727052,0.5156093,0.7409274,-0.8524374,-4.891512,2.796917
83,0.830000477,0.1230356329999999,0.46390408,0.4973816633333333,-0.9485439833333332,-4.774229216666667,2.89628125
84,0.840000477,0.2468610942857143,0.45764864,0.2679381047142857,-1.0889443,-4.469329442857143,3.013505857142857
85,0.850000477,0.4794791999999999,0.61223084,-0.057350907,-1.3938007,-3.7394543,3.00827
86,0.860000477,0.4887436599999999,0.4016393,-0.3980502,-2.471160714285714,-2.691262057142857,2.7281091999999996
87,0.870000477,0.6057496142857143,0.40999344,-0.5020893657142856,-3.274686642857143,-1.8523071,2.342991885714286
88,0.880000477,0.5740070666666667,0.3846260933333333,-0.11851302,-4.0945602,-1.01125762,1.9570528333333332
89,0.890000477,0.5538781571428572,0.4509017314285714,0.5755170142857143,-4.636003514285714,-0.9245173085714288,1.7682719285714286
90,0.900000477,0.6960380285714285,0.5797899014285715,1.223943342857143,-5.0848887142857135,-1.8620806285714289,1.5462725285714285
91,0.910000477,1.1397971666666666,0.571801675,1.9772697833333333,-5.1910309,-2.849729783333333,1.2466374166666665
92,0.920000477,1.378556,0.3416053,2.4556007,-5.0454454,-3.6734827,0.7040014999999998
93,0.930000477,1.185496,0.122202255,2.154211,-4.407721,-3.552535,-0.096208446
94,0.940000477,0.7861695657142859,-0.0315436487142857,1.7519575428571428,-3.908222628571429,-2.3104641999999997,-0.4260659494285714
95,0.950000477,0.3156891599999999,0.1289840105714285,1.1366517571428572,-3.526530414285714,-0.5065232571428572,-0.3867972
96,0.960000477,-0.1583019228571428,0.3388699571428571,1.0684813857142856,-3.359507142857143,1.4267209714285711,0.22370098
97,0.970000477,0.1197427546666666,0.3134532466666666,1.708829333333333,-3.521178133333333,-0.6630746866666667,0.7300642533333334
98,0.980000477,0.3736193428571429,0.390197,1.9640997428571427,-3.1430926857142856,-3.501834528571429,0.7774776342857143
99,0.990000477,0.7287315333333334,0.5597786166666666,2.159252,-2.3711562666666666,-4.7180314333333335,0.5863115333333333
100,1.000000477,1.0371554857142855,0.6438659585714286,1.977240828571429,-1.5410585714285716,-4.349079785714286,0.0570269571428571
101,1.010000477,1.0750235499999998,0.3356990428571428,1.7308108857142857,-1.2357222,-3.6408242,-0.6651690142857143
102,1.020000477,0.7939741883333333,0.155669655,1.0266300716666663,-1.7028894,-3.0197234,-1.4327422
103,1.030000477,0.36038688,0.27422333,0.77730143,-2.6460376,-1.7357225,-1.7625997000000002
104,1.040000477,0.219484349,0.2707271866666667,0.8931415533333333,-2.95818055,-1.1829057,-1.6611991000000002
105,1.050000477,-0.2524493918571429,0.1117312631428571,1.6332094,-3.2223282857142856,-0.6143814357142857,-1.2875351428571429
106,1.060000477,-0.3268483300000001,0.053875092,1.857456,-2.5800662,-1.2946907,-0.9856021
107,1.070000477,-0.2431239371428571,0.0326238545714285,1.8225148714285715,-1.5141812857142856,-2.518130614285714,-0.7019944
108,1.080000477,-0.0918447866666666,0.0025763698333333,1.65932455,-0.9477295,-3.1638834,-0.5824429
109,1.090000477,0.07715607,-0.0116557326428571,1.4422576142857142,-0.3440379042857143,-3.752892914285714,-0.4820893828571429
110,1.100000477,0.16122891,-0.0005488125,1.3173635,-0.13774605,-3.980128,-0.4663818799999999
111,1.110000477,0.1435362442857143,0.0797607507142857,1.2980156142857144,-0.0859113028571428,-3.8457416,-0.3477029885714285
112,1.120000477,0.2365164157142857,0.1905729571428571,1.218982228571429,-0.1686374771428571,-3.7226995857142855,-0.185217615
113,1.130000477,0.38746163,0.23397705,1.1011618,-0.43461782,-3.5342095,-0.074217945
114,1.140000477,0.5558686614285714,0.1764562842857142,0.9764768714285716,-0.86500334,-3.1644288142857144,-0.1286706064285714
115,1.150000477,0.6243264857142857,0.1771139871428571,1.34755685,-1.584385,-2.7692761,-0.27213246
116,1.160000477,0.6690939,0.1995543199999999,1.5926539,-1.600267,-2.7252950000000005,-0.36742464
117,1.170000477,0.6739417471428572,0.1200374957142857,1.7382721428571428,-1.3084130571428572,-2.562286142857143,-0.5150751428571428
118,1.180000477,0.6717116671428572,0.1090873785714285,1.8421023714285711,-0.8662250714285714,-2.3195179571428572,-0.67843315
119,1.190000477,0.54951376,0.209311,1.8830673,-0.40896225,-2.0594716,-0.9123004
120,1.200000477,0.24812423,0.33501956,1.7041848,-0.09132166,-1.9922783,-0.6679615
121,1.210000477,0.3622510914285714,0.26077306,1.5783585428571427,-0.049784053,-2.1205564,-0.1243074199999999
122,1.220000477,0.49948034,0.24885598,1.475025,-0.0827698,-2.074132,0.09315421
123,1.230000477,0.6793906685714285,0.2898209228571428,1.381247857142857,-0.2250099428571428,-1.6570105,0.3331299171428571
124,1.240000477,0.8454499928571428,0.3774436257142857,1.4238853714285715,-0.5395090571428571,-0.6461455,0.2940356857142857
125,1.250000477,0.79715019,0.3531862666666667,1.6355222166666668,-0.67406994,-0.009468133,0.03939965
126,1.260000477,0.6959203914285714,0.3089944942857143,1.8671995428571428,-0.5044289471428571,0.1249182728571428,-0.0820716892857142
127,1.270000477,0.707134775,0.3343487833333333,1.9419679666666667,-0.1511847016666666,-0.1815234449999999,-0.0055994341666666
128,1.280000477,0.7809776,0.39738818,1.9225817,0.1598238257142857,-0.1565950522857142,0.0657533414285714
129,1.290000477,0.9924562666666668,0.3961054383333333,1.8495133333333331,0.1676775683333333,0.0795119475,0.0448972735
130,1.300000477,1.210597642857143,0.36383222,1.9774193714285715,0.13713521,0.5793886,-0.098651834
131,1.310000477,1.3626709,0.32889116,1.9870366,0.19821994,1.353943,-0.29900974
132,1.320000477,1.4609868142857143,0.2627984342857142,1.9458234571428572,0.2453424314285714,2.1258356285714286,-0.5388109342857142
133,1.330000477,1.3404746,0.177114,1.968743,0.3582619,3.288038,-0.87320614
134,1.340000477,1.0710889166666666,0.154973475,2.119884883333333,0.6117635166666667,4.328514333333334,-0.9648332316666668
135,1.350000477,0.8515783857142857,0.1126111014285714,2.1155851857142856,0.9832459214285716,4.913240571428572,-0.9808898
136,1.360000477,0.7708681,0.09534093,2.0360944,1.1865708,4.9690895,-0.9904888
137,1.370000477,0.7119361714285714,0.0789636657142857,1.9689736857142857,1.3968768,4.879207714285714,-0.982635057142857
138,1.380000477,0.637562635,0.0480414215,1.9452608,1.7302248666666669,4.542311166666667,-0.961982595
139,1.390000477,0.5707432428571428,0.0224490458571428,1.9278869714285716,2.242463914285714,4.021055,-0.9117768071428572
140,1.400000477,0.59556321,0.00855741,1.7770854333333332,2.6607488,3.860198333333333,-0.86546872
141,1.410000477,0.62808543,-0.009817646,1.6480535,2.930277814285714,3.9076117714285714,-0.8370788742857143
142,1.420000477,0.61271864,-0.004695396,1.3488592,3.1302867,4.0699224,-0.80356956
143,1.430000477,0.6188166,0.058753427,1.1641228,3.0948577,4.10413,-0.7974611
144,1.440000477,0.5855176000000001,0.0937946648571428,0.9117125857142856,2.800778271428571,4.268185999999999,-0.8541825999999999
145,1.450000477,0.4113908783333333,0.1109007799999999,0.7719657666666667,2.2983128166666664,4.5883284,-0.8662832133333334
146,1.460000477,0.2908532071428572,0.11282017,0.9039943571428573,2.0534503714285712,4.677628471428571,-0.8093289899999999
147,1.470000477,0.333408675,0.0947311375,1.1050492333333333,2.0197665,4.396522066666667,-0.7648825866666668
148,1.480000477,0.39088082,0.0703525414285714,1.2076314,2.194992442857143,4.186856000000001,-0.8239893285714286
149,1.490000477,0.4418550342857142,0.0304590958571428,1.0938661714285716,2.4023314,4.1254221428571425,-0.9095079428571428
150,1.500000477,0.4758102666666666,-0.0166778026666666,0.9085997999999998,2.5422443,4.109831233333334,-1.065012133333333
151,1.510000477,0.4240796,-0.02643447,0.8539218,2.6501607999999997,4.1994224,-1.2665918
152,1.520000477,0.2593444,0.10707942,0.8092545000000001,2.7234626,4.1652145,-1.2555965
153,1.530000477,0.2236454514285714,0.13662818,0.6933766714285714,2.6457977428571424,3.907786142857143,-1.2852662857142856
154,1.540000477,0.16848036,0.1779931083333333,0.6195737499999999,2.446137933333333,3.6378499333333334,-1.3036498666666667
155,1.550000477,0.1992363642857142,0.1236962337142857,0.7630845928571429,2.245779857142857,3.5370892857142855,-1.3503651571428572
156,1.560000477,0.1282087035,0.0393976223333333,0.7832672483333334,2.3777229166666665,3.716038333333333,-1.37776605
157,1.570000477,-0.0183721521428571,-0.0023607649714285,0.6333470714285714,2.6063543285714283,3.967998342857143,-1.2994030714285714
158,1.580000477,-0.1213921,-0.0014547886,0.5118199285714286,2.7876888285714285,4.027861271428572,-1.1287148571428571
159,1.590000477,-0.215525785,0.004858007,0.3655040483333333,2.90183,3.9660785,-0.9465078
160,1.600000477,-0.2288635242857142,0.0283074008571428,0.21002096,2.906891185714286,3.7233104571428575,-0.6527775385714286
161,1.610000477,-0.21482961,0.07997418,0.11421398,2.8199763,3.4395282,-0.45172155
162,1.620000477,-0.13284747,0.1234871657142857,0.0730007771428571,2.6623777999999994,3.1450999000000004,-0.36620292
163,1.630000477,0.035794772,0.14537434,0.25553322,2.4864538,2.800582,-0.4871507
164,1.640000477,0.0547288042857142,0.2056914414285714,0.1691039514285714,2.4594019428571428,2.6627050857142858,-0.6274710485714285
165,1.650000477,-0.017858184,0.24089385,0.0179278762857142,2.310704257142857,2.5513562285714286,-0.90915886
166,1.660000477,-0.11570797,0.26840998,-0.038538835,2.144379233333334,2.5525779833333333,-1.0067780666666666
167,1.670000477,-0.18873052,0.23934323,-0.0190255,1.9873042285714284,2.592195842857143,-1.0383094614285713
168,1.680000477,-0.3753013583333333,0.2914499466666667,-0.0854064106666666,1.88863785,2.5772153833333333,-0.961168175
169,1.690000477,-0.4517989914285714,0.33638724,-0.1171409805714285,1.6986353714285714,2.3970737,-0.7798337657142856
170,1.700000477,-0.46792364,0.3755097,-0.10982348,1.633711,2.2996871,-0.7180509599999999
171,1.710000477,-0.415695,0.4031028,-0.052228656,1.4712256,2.0736737,-0.60199
172,1.720000477,-0.3439442914285714,0.3937860514285714,0.0184766905714285,1.4530747428571429,2.0237587571428572,-0.6093201571428571
173,1.730000477,-0.2448211883333333,0.3199526033333333,0.2713979476666667,1.6785065166666666,1.8470494,-0.7742488916666667
174,1.740000477,-0.32904357,0.22104947,0.2967856,2.1883602,1.7619889,-0.9037485
175,1.750000477,-0.4201667899999999,0.1312271633333333,0.0491492066666666,2.44552695,1.7932185,-0.93306915
176,1.760000477,-0.7418812714285714,-0.0790594942857142,-0.7595434257142857,2.8461556142857143,2.136503757142857,-0.7794847085714285
177,1.770000477,-1.0840005,-0.1700708971428571,-1.3899069142857143,2.6396892285714286,2.3944558428571425,-0.4056461914285714
178,1.780000477,-1.2273073666666667,-0.1879987666666666,-1.6882286666666666,2.1472298666666667,2.2687377333333334,0.0373634933333333
179,1.790000477,-1.2055233285714286,-0.1835690671428571,-1.8391971142857144,1.5244566285714285,1.914657142857143,0.49858226
180,1.800000477,-0.9075224833333332,-0.1403130666666666,-1.7354061666666667,0.8748350833333333,1.2729039,0.8188407166666666
181,1.810000477,-0.72903645,-0.09524946,-1.6177773,0.4278985,0.6722374,0.9226848
182,1.820000477,-0.6311038833333333,-0.0524624106666666,-1.5219383666666666,0.09722652,0.2242827490866666,0.8958075066666668
183,1.830000477,-0.5827648571428572,0.0396495234285714,-1.343924242857143,-0.28592015,-0.2112222566242857,0.8593312085714286
184,1.840000477,-0.6844824285714285,0.2099469214285714,-0.9277152714285714,-0.7566215928571428,-0.7819281285714286,0.9050574714285714
185,1.850000477,-0.7036691,0.2591005,-0.7662947,-0.8622109,-1.0088142,0.961779
186,1.860000477,-0.6452989714285714,0.3017118485714286,-0.5479500942857143,-0.9152673857142856,-1.3194737285714286,1.0654485285714286
187,1.870000477,-0.5764005166666667,0.3066134166666667,-0.4509968333333333,-0.9173908166666666,-1.5158175,1.11510165
188,1.880000477,-0.5187584714285715,0.2984712557142857,-0.3934985728571428,-0.9171871714285714,-1.611982214285714,1.1008776285714286
189,1.890000477,-0.5178350933333333,0.2942956333333333,-0.39362562,-0.9414174166666666,-1.6102951,1.0672519666666669
190,1.900000477,-0.542074322857143,0.2701725642857143,-0.4360620457142857,-1.0217292285714286,-1.5268126857142856,1.0375241000000002
191,1.910000477,-0.5917244485714287,0.2313593028571428,-0.4838958371428571,-1.1683544285714285,-1.4018508142857142,1.0370004857142858
192,1.920000477,-0.65363574,0.21565282,-0.4734422599999999,-1.3192774,-1.3117945,1.07784
193,1.930000477,-0.6877404771428571,0.2533292342857143,-0.4082468085714286,-1.4672769142857145,-1.3627566142857144,1.2562074285714286
194,1.940000477,-0.6680420166666666,0.3404670183333333,-0.3510062333333333,-1.5953802999999998,-1.5048223,1.470004
195,1.950000477,-0.5060965714285713,0.3731794342857143,-0.2359109942857142,-1.7566439857142857,-1.7931421714285716,1.5935695571428572
196,1.960000477,-0.35394341,0.4007449266666666,-0.0867123733333333,-1.81609975,-1.9344515,1.5885083333333334
197,1.970000477,-0.27341317,0.4001322428571429,0.0005662359999999,-1.8353560142857144,-1.9863443857142855,1.5171264285714283
198,1.980000477,-0.2221115316666666,0.3840874533333333,0.04552095,-1.8226155333333331,-1.936284,1.4268373500000002
199,1.990000477,-0.2598191642857143,0.3738458571428572,0.0275146691428571,-1.8030684714285716,-1.843406157142857,1.3268911142857145
200,2.000000477,-0.3415573957142856,0.4024407257142857,-0.015401595,-1.8528088571428576,-1.8064062142857145,1.2916365714285714
201,2.010000477,-0.35517317,0.40139538,-0.030245667,-1.9753274,-1.8859909,1.3062968
202,2.020000477,-0.3508872028571428,0.3956328471428572,-0.009534528,-2.0549119714285715,-1.9397454714285711,1.3209572
203,2.030000477,-0.24883566,0.3829085333333333,0.1819923233333333,-2.3434645666666665,-2.2687886,1.4321314
204,2.040000477,-0.143649496,0.3751264228571428,0.2551847328571428,-2.391052514285714,-2.3650697,1.4302116142857142
205,2.050000477,-0.02866021,0.3507877566666667,0.25902425,-2.4536206833333334,-2.3449407166666667,1.3681960666666668
206,2.060000477,0.0638669608571428,0.2941765714285714,0.1893141857142857,-2.5603444714285715,-2.1140985857142858,1.2422452
207,2.070000477,0.0326499884485714,0.2543876685714286,0.0844125922857143,-2.7483109285714287,-1.7646940285714283,1.109255
208,2.080000477,-0.0059048161916666,0.2013786316666666,0.0202298386166666,-3.057952183333333,-1.5042113666666663,1.0200131166666668
209,2.090000477,-0.03741072,0.12634884,0.0017074167,-3.377134485714286,-1.3854452428571429,0.9497365428571428
210,2.100000477,-0.12162295,0.05046026,0.048082076,-3.6368318,-1.3875395,0.9434536
211,2.110000477,-0.1776802214285714,0.0174008411428571,0.2103999251428571,-3.834746257142857,-1.6273407285714288,1.0303684857142856
212,2.120000477,-0.21141478,0.07314452,0.54375124,-3.9654677,-2.301367,1.2219999
213,2.130000477,0.177114,0.08729168,1.0569824,-3.8066472999999994,-3.4912974999999995,1.4345748
214,2.140000477,0.5071289,0.08743106,1.2532612857142855,-3.456893657142857,-3.812886785714286,1.3336976714285715
215,2.150000477,0.6739824333333333,0.0735510406666666,1.2630412,-2.7714649,-3.7899001,1.0008732
216,2.160000477,0.5286632542857144,0.0604260014285714,1.0188747714285715,-2.4453306714285716,-3.343821642857143,0.8074964485714285
217,2.170000477,0.2549437366666666,0.0613552099999999,0.6971646666666667,-2.3756359666666667,-2.8177366,0.7736380466666667
218,2.180000477,0.0624296014285714,0.0468668478571428,0.4836345042857143,-2.508335242857143,-2.5505926571428574,0.8616000714285715
219,2.190000477,-0.11747637,0.028233355,0.33093393,-2.8109665000000006,-2.5066118,1.0521845
220,2.200000477,-0.17336378,0.09656051,0.589882,-3.364394,-3.157775,1.4919944
221,2.210000477,0.18687066,0.13537374,1.3076068,-3.7125769,-4.352745,1.8829367
222,2.220000477,0.9207506285714284,0.1754065785714285,2.2135612142857144,-3.1162154999999996,-5.2519120571428575,1.9640920285714285
223,2.230000477,1.1897862857142858,0.2208186442857143,2.342689071428571,-2.3662696,-5.2897844,1.809635
224,2.240000477,1.1761559833333333,0.3137327333333333,2.0979883666666668,-1.4646335333333331,-4.3955042833333335,1.4032179833333334
225,2.250000477,0.9529649757142856,0.3873614557142857,1.642891942857143,-1.0238236342857143,-3.3535295857142855,1.060736277142857
226,2.260000477,0.6431647185714287,0.4120580242857143,1.1418959314285717,-1.0516171642857144,-2.5926539285714285,0.8642179785714286
227,2.270000477,0.48313794,0.39115086,0.85270226,-1.2410889,-2.1633155,0.7699729999999999
228,2.280000477,0.2787357885714285,0.3258508985714286,0.6442361771428572,-1.7906769428571427,-1.8805805428571427,0.7279117771428572
229,2.290000477,0.14610608,0.28254697,0.673088,-2.23677,-1.9800614,0.77608144
230,2.300000477,0.22370207,0.26617405,0.98597217,-2.688797,-2.6605453,0.92512816
231,2.310000477,0.4630707616666667,0.2596696166666666,1.2784181116666666,-2.8415086666666665,-3.311097633333333,0.92512816
232,2.320000477,0.9323975857142858,0.1966273299999999,1.6835695000000002,-2.7202118285714283,-3.782715328571428,0.6539119942857142
233,2.330000477,0.9106280142857144,0.2045807585714285,1.7984803285714286,-2.4196750857142857,-3.5268355714285713,0.2779791428571428
234,2.340000477,0.7036690833333333,0.2356031966666666,1.8497115333333336,-2.1687623666666664,-3.0482295666666666,0.1546461633333333
235,2.350000477,0.5257057285714285,0.2579506157142857,1.8690942,-1.9746292428571428,-2.6507716,0.1839086542857142
236,2.360000477,0.4109436866666667,0.25149333,1.8367128666666663,-1.71978955,-2.209129116666667,0.3462486
237,2.370000477,0.3859632785714285,0.2116804714285714,1.7666928857142856,-1.4997390714285714,-1.870108857142857,0.5563509771428572
238,2.380000477,0.40331623,0.17906532,1.734705,-1.3217207,-1.6502038,0.74798244
239,2.390000477,0.46943509,0.1842921,1.7656474285714283,-1.1048263571428572,-1.5653833428571429,0.9207650057142855
240,2.400000477,0.6295489,0.19711517,1.7617795,-0.7742489,-1.5585767999999998,1.0570712
241,2.410000477,0.6785609833333334,0.2302725866666666,1.7253699166666667,-0.49081576,-1.5109307,1.0680665
242,2.420000477,0.7251991285714284,0.3436045585714286,1.6707857285714287,-0.0832933842857142,-1.4032470571428572,1.0169297714285714
243,2.430000477,0.7553388333333334,0.3786399766666666,1.5471075166666666,0.07482879,-1.2922474,0.9593355999999998
244,2.440000477,0.7959262428571429,0.3827923657142857,1.4025817571428572,0.0643571204285714,-0.9993897514285714,0.8488595257142857
245,2.450000477,0.8602635883333334,0.38860499,1.33421905,-0.035123717,-0.7375980600000002,0.7504259000000001
246,2.460000477,0.9295751342857144,0.39578092,1.3152422714285714,-0.18172707,-0.38941512,0.5793886
247,2.470000477,0.9340309514285714,0.3890993571428571,1.3312624142857143,-0.3185568499999999,-0.015576605,0.37414396
248,2.480000477,0.8967901,0.3842907,1.3632503,-0.40529716,0.28862533,0.1688992699999999
249,2.490000477,0.8191941399999999,0.3738023,1.3935264,-0.41367448,0.4875870185714285,-0.0080719085714285
250,2.500000477,0.7657459000000001,0.3677044,1.4127958000000005,-0.36742464,0.60137916,-0.14263284
251,2.510000477,0.7007638857142856,0.34309928,1.3277168142857143,-0.2325146442857142,0.7429211414285714,-0.2953446571428571
252,2.520000477,0.6821841333333333,0.30331545,1.2529797,-0.1664558783333333,0.8406276250000001,-0.3690535616666666
253,2.530000477,0.6771083428571428,0.26986766,1.2321363714285716,-0.1688120014285714,0.9685855714285714,-0.4040754614285714
254,2.540000477,0.6593372,0.25592956,1.2404993,-0.19760908,1.061958,-0.41018394
255,2.550000477,0.6977932971428571,0.2525495757142857,1.2960382285714285,-0.2318165314285714,1.1359577428571428,-0.4367121657142857
256,2.560000477,0.83139,0.24251415,1.433041,-0.24281178,1.2867497,-0.5555656
257,2.570000477,0.84290995,0.2341752383333333,1.4559131833333334,-0.1501666176666666,1.4146204166666667,-0.7469643933333333
258,2.580000477,0.7078069457142856,0.2103214971428571,1.489660042857143,0.0802391528571428,1.6043903428571429,-1.0596017714285713
259,2.590000477,0.59222966,0.20126174,1.4957579,0.2189887499999999,1.6410412,-1.1468657
260,2.600000477,0.5514650942857143,0.1712512814285714,1.4710831857142856,0.26052635,1.6911524285714283,-1.1384883857142856
261,2.610000477,0.4766284366666666,0.0995688193333333,1.4101533833333333,0.2715216,1.9734948,-1.0515735
262,2.620000477,0.4266538099999999,0.078580373,1.4249306571428573,0.2268424985714285,2.4597291857142856,-0.9341163771428572
263,2.630000477,0.3774261928571428,0.0740504907142857,1.551985142857143,0.2278896642857142,2.762709442857143,-0.8150884085714285
264,2.640000477,0.39462668,0.0957576213333333,1.7420224333333334,0.3236472566666666,2.737053866666667,-0.7249738733333334
265,2.650000477,0.5014011857142857,0.0949794114285714,1.8837816142857144,0.4680398928571428,2.5719504857142854,-0.7252066
266,2.660000477,0.6568218333333333,0.0582605146666666,1.9731741166666668,0.5989357,2.5012667,-0.8011262
267,2.670000477,0.7116268857142857,-0.0009016205714285,1.9977646142857144,0.9944157285714283,2.8086102,-1.1416298285714286
268,2.680000477,0.6036937,-0.033751972,1.9318811,1.2635375,3.1353264,-1.3081294
269,2.690000477,0.3846914285714286,-0.0521502562857142,1.9019577285714284,1.4886783285714285,3.321722057142857,-1.3091765714285717
270,2.700000477,0.20113543,-0.0587708544285714,1.8365226428571428,1.9623468,3.4383066,-1.1346488
271,2.710000477,0.189904375,-0.03838130485,1.4929173999999998,2.480956166666666,3.2137184333333337,-0.7946105
272,2.720000477,0.2991333,0.0006707709,1.2578174,2.7039154,2.960624,-0.5995466
273,2.730000477,0.4458745833333333,0.0422229899999999,0.9666875,2.5123128833333337,2.9380226666666664,-0.63538295
274,2.740000477,0.4504008357142857,0.0826659721428571,0.8448707571428571,2.1319878285714284,3.2206704,-0.76150836
275,2.750000477,0.3654989733333333,0.1136651733333333,0.9364164,1.83529055,3.4594826,-0.8579349500000001
276,2.760000477,0.30937782,0.12195834,1.0086564,1.6825788,3.6020136,-0.9342909
277,2.770000477,0.1780286742857142,0.18774615,1.0619217285714286,1.7466305,3.439702814285714,-0.8938004371428571
278,2.780000477,0.22614126,0.23544057,0.9700871,1.781536,3.1744206,-0.8536590299999999
279,2.790000477,0.2633516057142857,0.2420263128571428,0.9713894,1.7574511428571429,3.123109371428572,-0.8704136957142856
280,2.800000477,0.31571963,0.24373372,1.1438472,1.6789137,3.0730197,-1.001484
281,2.810000477,0.239856465,0.2560108683333333,1.22324215,1.8010830999999998,3.0208941,-1.0723423333333333
282,2.820000477,0.1398644257142857,0.2405584742857142,1.256697857142857,2.060431428571429,2.763756614285714,-1.1432006857142858
283,2.830000477,0.0923681843333333,0.2088638233333333,1.15690695,2.2714355666666664,2.7973241333333334,-1.136684933333333
284,2.840000477,0.0286122977142857,0.1877112985714285,0.9008321328571428,2.3344401857142856,2.9646379714285716,-1.0967762571428572
285,2.850000477,-0.052533552,0.2205616499999999,0.70775473,2.2286763,3.1133358,-1.0234746
286,2.860000477,0.0111199842857142,0.2647541357142857,0.8434725857142856,1.9466393142857144,3.0887273285714287,-0.9154418714285714
287,2.870000477,0.12025091,0.27644905,1.0357312,1.8157434,3.0436993,-0.9049701999999998
288,2.880000477,0.1562111985714285,0.2751684871428571,1.0735992571428572,1.8438425,3.0571377000000006,-0.9501729
289,2.890000477,0.12610492,0.29084012,1.1590005,1.9501299,3.013157,-1.0662339
290,2.900000477,0.0465271029999999,0.26788148,1.4479504,2.337407,2.515927,-1.2128372
291,2.910000477,-0.0711409134285714,0.2333846985714285,1.2750743528571429,2.8016509,2.516276271428571,-1.2285447285714284
292,2.920000477,-0.1488654049999999,0.21710107,0.9576625833333332,2.949476016666667,2.82766285,-1.1112329166666666
293,2.930000477,-0.17796335,0.2083048314285714,0.7750452571428571,2.8946742285714286,3.3524389714285716,-0.9374323571428572
294,2.940000477,-0.1551360811666666,0.27748062,0.5199591933333333,2.6758163333333336,3.8654923333333335,-0.7188653833333333
295,2.950000477,0.003062024,0.2757739271428571,0.4808860614285714,2.287142985714286,4.135370357142857,-0.6187446285714285
296,2.960000477,0.1912437345714285,0.1646873099999999,0.7035994214285715,2.227454557142857,4.3427095,-0.8159609999999999
297,2.970000477,0.0787444324333333,0.17239319,0.6351082,2.4386040833333333,4.214896966666667,-0.9617789833333332
298,2.980000477,-0.0648949009999999,0.1316366028571428,0.5013097657142858,2.6232836857142856,3.9074370857142857,-1.0309792285714283
299,2.990000477,-0.2226349399999999,0.06436351,0.32142118,2.8944998,3.5409288,-1.0246962
300,3.000000477,-0.24824184,0.0629000092857142,-0.2438644071428571,2.8403961428571427,3.3541841714285714,-0.8978145985714285
301,3.010000477,-0.27681494,0.0933895899999999,-0.5442086,2.589076,3.3576746000000006,-0.82800347
302,3.020000477,-0.2565480814285714,0.2242421842857142,-0.6737762885714286,1.6506402,3.4494764142857144,-0.6988529
303,3.030000477,-0.1657871145,0.27505671,-0.6020930833333333,1.1757791933333337,3.52138175,-0.70542674
304,3.040000477,-0.0713325578571428,0.1332525488571428,-0.3293397771428571,0.7806191628571428,3.7653716285714287,-0.8810599
305,3.050000477,-0.1987354557142857,-0.0575556207142857,-0.1920887357142857,1.0413636785714286,3.9100552,-0.9454606857142858
306,3.060000477,-0.4517336799999999,-0.2928422799999999,-0.2918768,1.7399984,3.6997492333333337,-0.82800348
307,3.070000477,-0.6966608799999999,-0.4701406571428571,-0.5976263514285715,2.3173363428571427,3.404099157142857,-0.5962305714285714
308,3.080000477,-0.8812150416666666,-0.5650482,-0.9030405083333334,2.6279668,3.0801464,-0.2768156066666666
309,3.090000477,-1.2234861,-0.7004982,-1.5428644000000002,3.0423248,2.2544844,0.53052086
310,3.100000477,-1.1659624,-0.64907242,-2.1718442,2.7977823333333336,1.246840993333333,1.38082025
311,3.110000477,-0.9306641142857144,-0.5624239428571428,-2.4922055142857142,2.1501387285714286,0.40712968,1.9234271142857144
312,3.120000477,-0.6625735285714286,-0.3952495442857143,-2.4863080714285712,1.182905654285714,-0.3998867857142856,2.226581885714286
313,3.130000477,-0.4264780999999999,-0.191205275,-2.1565028833333333,-0.1116832466666666,-1.3671779666666666,2.2942404666666665
314,3.140000477,-0.2265681,0.140496,-1.6031423,-0.7070557,-1.8859909,2.2347846
315,3.150000477,-0.065074935,0.4222095999999999,-1.1012939666666668,-1.3587788666666667,-2.3188780333333336,1.9643829666666663
316,3.160000477,0.0031578492857142,0.5743061457142857,-0.7581409285714286,-1.7711298142857144,-2.3898526714285713,1.6755976714285714
317,3.170000477,0.0459579666666666,0.6664972333333333,-0.4359857949999999,-1.9386765,-2.3563433,1.5066546999999997
318,3.180000477,0.0431079185714285,0.6754270571428572,-0.2306580442857143,-2.0008084285714287,-2.1748344000000004,1.206117942857143
319,3.190000477,-0.06923749,0.6380424285714286,0.0902448099999999,-1.866771,-1.8390429,0.8467652000000001
320,3.200000477,-0.2468436716666666,0.58023205,0.1716868499999999,-1.529408833333333,-1.5593912666666665,0.6412878000000001
321,3.210000477,-0.39959648,0.5275613,0.12717205,-1.2688170857142858,-1.455954414285714,0.5895112371428571
322,3.220000477,-0.5979210533333333,0.44910651,-0.1133907683333333,-1.026121575,-1.44271935,0.6478035333333333
323,3.230000477,-0.7149937928571429,0.4179817285714285,-0.3127229571428572,-1.0130029214285714,-1.613553,0.879227357142857
324,3.240000477,-0.6797500166666667,0.4066395999999999,-0.3524697583333333,-1.17417575,-1.8823258000000005,1.14829105
325,3.250000477,-0.5601546,0.4109081,-0.26623505,-1.316834,-2.0961223,1.2806413000000003
326,3.260000477,-0.4066221585714286,0.4419944371428572,-0.1694349685714285,-1.5231258142857145,-2.3432537142857144,1.3459147142857142
327,3.270000477,-0.240623785,0.44898455,-0.1010373983333333,-1.6540216,-2.429645,1.3319525
328,3.280000477,-0.14381936,0.4440808,-0.04978949,-1.8470494,-2.4235365,1.2061179
329,3.290000477,-0.13249466,0.4606540642857143,-0.031822415,-2.038681,-2.350234928571429,1.0867408714285716
330,3.300000477,-0.1050112066666666,0.4115534916666667,0.0436204308333333,-2.2726063166666663,-2.2484270166666667,0.97012725
331,3.310000477,-0.1321897771428571,0.3351240857142857,0.1452262414285714,-2.5332925571428575,-2.067499785714286,0.8476378285714284
332,3.320000477,-0.2773942466666667,0.33671681,0.2331640133333333,-2.60551805,-1.9941109166666664,0.8640434516666667
333,3.330000477,-0.3306900257142857,0.3342660357142857,0.3421018285714286,-2.6477829714285717,-2.1245705142857143,1.0404910142857144
334,3.340000477,-0.3547971166666666,0.3435566349999999,0.4786610583333333,-2.5878036000000004,-2.3708001166666666,1.2576326666666666
335,3.350000477,-0.2629378028571428,0.3291960514285714,0.6283642285714286,-2.4430618571428573,-2.677823371428571,1.4741926142857142
336,3.360000477,-0.131369456,0.2917751766666667,0.7606338500000001,-2.2225168666666666,-2.83769085,1.5803636666666667
337,3.370000477,-0.014238636,0.27937606,0.7870581,-1.9618887,-2.9171011,1.6312675
338,3.380000477,0.0758276,0.26275924,0.758032,-1.8320400428571428,-2.9013935285714285,1.6207958714285715
339,3.390000477,0.1602329333333333,0.2163896566666666,0.5875952166666666,-1.5528246833333337,-2.6798886833333335,1.5009535166666668
340,3.400000477,0.0064768599999999,0.2159751457142857,0.3124572571428571,-1.4948523142857142,-2.4308666142857143,1.418867285714286
341,3.410000477,-0.158179965,0.2491049883333333,0.1364815416666666,-1.7480921833333334,-2.5074263,1.53149595
342,3.420000477,-0.2098859457142857,0.3156586585714285,0.2554286514285714,-2.202911614285714,-2.9139814,1.784852057142857
343,3.430000477,-0.0656571414285714,0.3627215257142857,0.5965896485714285,-2.813060671428572,-3.804902,2.192199857142857
344,3.440000477,0.05921077,0.3606308,0.7526353599999999,-2.9221406,-4.026552,2.281209
345,3.450000477,0.4763126485714286,0.2948778314285714,1.1776122857142857,-3.0748525,-4.4724708,2.393605
346,3.460000477,0.55244076,0.263491,1.235133,-3.0039941999999997,-4.384509,2.3361855
347,3.470000477,0.6507565971428572,0.2153784228571428,1.3135871142857145,-2.880428485714286,-4.175075571428572,2.2293742714285716
348,3.480000477,0.6590120116666666,0.1534693183333333,1.3315411333333331,-2.4800907833333334,-3.6657453333333336,1.8756064833333337
349,3.490000477,0.5673981,0.0895958201428571,1.187229557142857,-2.1858078,-3.3178822857142856,1.595489414285714
350,3.500000477,0.3584761966666667,0.0259974518333333,0.8672203666666668,-1.8617097,-2.8450210000000005,1.237882
351,3.510000477,0.0739372419999999,0.0365657237142857,0.5747155571428572,-2.0906902142857144,-2.7691013714285715,1.326018557142857
352,3.520000477,0.0619156351428571,0.0858412457142857,0.6220833157142858,-2.7095656999999997,-3.009251657142858,1.796894442857143
353,3.530000477,0.2401969416666667,0.1117900583333333,0.8176544250000001,-3.0394232,-3.2457368,2.1101718
354,3.540000477,0.6733101857142857,0.1043745585714285,1.1759265714285714,-3.3420544285714286,-3.5555020285714285,2.434793542857143
355,3.550000477,1.0002260583333331,0.1165515106666666,1.4618026999999998,-3.3619506,-3.6172848,2.4473596
356,3.560000477,1.2245531,0.122446164,1.6665912000000005,-3.1334937,-3.4192176,2.185917
357,3.570000477,1.2360985,0.1413090546666666,1.7222448,-2.8777523666666665,-3.165105,1.8666474666666664
358,3.580000477,1.0138701228571427,0.1894448485714285,1.6132605142857144,-2.383024328571428,-2.7441441,1.2757545
359,3.590000477,0.8127738971428571,0.2029343071428571,1.4125650285714286,-2.0976712857142856,-2.4902062,0.9340290514285714
360,3.600000477,0.6673966766666667,0.1742581399999999,1.188036833333333,-2.0742846333333333,-2.283448833333334,0.80499486
361,3.610000477,0.5945904614285714,0.1406353834285714,1.1029041000000002,-2.1851096857142855,-2.1160184857142856,0.84327462
362,3.620000477,0.49167505,0.122446164,1.1250657,-2.2986691333333336,-2.151913,1.0297866666666666
363,3.630000477,0.5924343857142856,0.1128288842857142,1.3292282714285717,-2.371330942857143,-2.3664658857142853,1.2930328
364,3.640000477,0.7003457000000001,0.12171442,1.4393827,-2.3457044333333332,-2.62043295,1.46756055
365,3.650000477,0.90020496,0.19223683,1.580458,-2.280227271428571,-2.7015593428571427,1.5225368285714287
366,3.660000477,1.0207608,0.23105007,1.6131734,-2.2477653,-2.6690972,1.485886
367,3.670000477,1.1789103,0.27596122,1.6341501,-2.2310104714285717,-2.127711885714286,1.1937264571428572
368,3.680000477,1.1258191714285717,0.3310559028571428,1.7851347285714283,-2.195406814285714,-1.4978411285714286,0.9307130785714286
369,3.690000477,1.1836717,0.3935239799999999,2.026566416666667,-2.008109433333334,-1.06093995,0.6675542533333334
370,3.700000477,1.2172357,0.41895738,2.163236,-1.7199931,-0.8328902000000001,0.40590802
371,3.710000477,1.0006885333333333,0.4994905533333333,2.2314005333333333,-0.90334128,-0.45579386,0.0117079056666666
372,3.720000477,0.9307250285714286,0.5478760428571429,2.2011694285714287,-0.5468391942857143,-0.4405517685714285,-0.0914961935714285
373,3.730000477,0.9664232333333334,0.5488632999999999,2.1675044166666666,-0.3043037533333333,-0.4382829133333333,-0.1953693166666666
374,3.740000477,1.0464155571428573,0.5323002428571428,2.1243662142857143,-0.1290196714285714,-0.2504909995428571,-0.3943019142857142
375,3.750000477,1.0832746,0.5071484916666666,2.058575466666667,-0.0909144316666666,0.1179953263333333,-0.591605575
376,3.760000477,1.0505491,0.4867967,2.0173128,-0.13163759,0.6820109499999999,-0.78402245
377,3.770000477,0.9488881,0.4807336142857142,2.055363942857143,-0.1808544242857142,1.398272992857143,-0.8918806357142858
378,3.780000477,0.92389536,0.42773837,2.1539671,-0.1473159966666666,2.123534166666667,-0.9322547166666668
379,3.790000477,0.9709974514285714,0.3247881042857142,2.250231442857143,0.3050309328571429,2.903727857142857,-1.0840356942857143
380,3.800000477,0.975509175,0.27119977,2.3395572833333333,0.71845815,3.0194688,-1.1993986
381,3.810000477,0.9449680285714284,0.2234102485714285,2.2394207285714285,1.3544665571428571,2.7471764571428574,-1.3444312
382,3.820000477,0.91972335,0.199188445,1.9887491666666668,1.6947957,2.5220356,-1.4168601999999997
383,3.830000477,0.9582571142857144,0.1585022742857142,1.7232278285714284,1.848205642857143,2.4527480857142856,-1.5194826142857143
384,3.840000477,0.9601518514285716,0.1165878114285714,1.5378989571428572,1.7689700285714287,2.8255394857142853,-1.6203595714285712
385,3.850000477,0.81455976,0.07851068,1.4186499,1.5323104,3.5983484000000003,-1.69785
386,3.860000477,0.7390326514285714,0.0624121794285714,1.4253400714285716,1.4516785,3.9208758,-1.6770811
387,3.870000477,0.5979058,0.0412066743333333,1.4913471833333334,1.4101409,4.261321466666666,-1.566314166666667
388,3.880000477,0.5883226571428571,0.0128317594285714,1.6770970571428572,1.6040413,4.539402614285715,-1.2491389571428573
389,3.890000477,0.7520691285714286,-0.0373061845714285,1.8264263285714288,2.164100942857143,4.082663128571428,-1.1889269428571427
390,3.900000477,0.7677328050000001,-0.056481955,1.8401633166666669,2.718168466666667,3.597533933333333,-1.3032426333333331
391,3.910000477,0.70449233,-0.07988271,1.6732074,3.0740888000000006,3.3026984,-1.3887613
392,3.920000477,0.5622736933333333,-0.0887043683333333,1.35301595,3.3729967000000003,2.9614383333333336,-1.4368145666666667
393,3.930000477,0.5058221657142857,-0.0712323791428571,1.0722880885714283,3.220692142857143,3.1082744,-1.3922518
394,3.940000477,0.49484593,-0.042289052,0.86465406,3.025221,3.3344624,-1.3545538
395,3.950000477,0.52439034,0.019208437,0.7916925499999999,2.6159534,3.7229614,-1.3252331
396,3.960000477,0.5480503,0.042136606,0.8112364,2.4082654,3.912324,-1.3288982
397,3.970000477,0.59954715,0.03725827,0.96423316,1.9501299,4.3069315,-1.4461809
398,3.980000477,0.5449882371428572,0.0008667748,1.2273495457142858,2.078931428571429,4.116870485714285,-1.651949142857143
399,3.990000477,0.4226161133333333,-0.038559159,1.4459786666666667,2.477494666666667,3.7078938,-1.7882553
400,4.000000477,0.1817092011428571,-0.0315610725714285,1.3518514285714287,3.0857821428571426,3.192571514285714,-1.7844157
401,4.010000477,0.0314855773333333,0.053946236,1.03126945,3.5430159999999997,2.7321671666666667,-1.6064264166666666
402,4.020000477,0.0642459071428571,0.12718512,0.7202946,3.4400734571428573,2.5677619,-1.3971386
403,4.030000477,0.2381185649999999,0.1274058116666666,0.6233900166666667,3.182005116666667,3.0023652500000004,-1.34661275
404,4.040000477,0.2171816571428571,0.1327952057142857,0.4653625228571428,2.6819248142857144,3.965904142857142,-1.3606623
405,4.050000477,0.1110430568,0.1343632414285714,0.519577337142857,2.4922131285714286,4.200120342857143,-1.3650255285714283
406,4.060000477,0.0075004376,0.14000817,0.573753,2.3801663,4.2702804,-1.3179029
407,4.070000477,0.0147482475428571,0.0998490328571428,0.7642519142857144,2.405647357142857,4.1446204571428575,-1.2767143571428572
408,4.080000477,0.0859196483333333,0.011311636,0.9969484333333334,2.8073521333333336,3.569027933333333,-1.1867744
409,4.090000477,0.0058147998571428,-0.072512944,0.6982593571428571,3.6242004571428574,2.9695248857142857,-1.2355258428571427
410,4.100000477,-0.0359929525,-0.0983797266666666,0.4188303471666667,4.023345583333334,2.6214000833333335,-1.22892285
411,4.110000477,-0.0859893371428571,-0.0785498817142857,-0.1841048121428571,3.8852939,2.693596471428571,-1.1555921
412,4.120000477,-0.1797360971428571,0.0368139951428571,-0.6460829828571428,3.157164114285714,3.0459681142857145,-1.0264415371428572
413,4.130000477,-0.23486127,0.136486625,-0.61352668,2.3891253666666663,3.1927459333333332,-0.9114858866666666
414,4.140000477,-0.2453148342857143,0.19413154,-0.4438369014285714,1.7260361571428573,3.1515573142857143,-0.8346354714285714
415,4.150000477,-0.2197994033333333,0.2015971299999999,-0.21954533,1.43029885,3.0481786833333335,-0.8113069166666667
416,4.160000477,-0.1778065457142857,0.15151145,-0.0249448345714285,1.3193863571428572,2.9147231714285717,-0.8444090571428572
417,4.170000477,-0.30782793,0.1838623449999999,0.0559737949999999,1.4419049,2.7859216,-0.8842013999999999
418,4.180000477,-0.3747910314285714,0.1918099657142857,0.1127591914285714,1.6579703,2.206140371428571,-0.8126450142857143
419,4.190000477,-0.4113349685714285,0.1054286227142857,0.1307480442857142,2.032856014285714,1.848292957142857,-0.7772158842857142
420,4.200000477,-0.4854958,0.0472791824999999,0.0495201616666666,2.330076883333333,1.7078272,-0.7243630483333333
421,4.210000477,-0.6142475285714285,-0.01918666,-0.1428959714285714,2.769363285714286,1.4956595571428573,-0.5356694085714285
422,4.220000477,-0.7399821933333333,-0.0176077341666666,-0.3977975949999999,2.8989793,1.404846933333333,-0.2998242126666666
423,4.230000477,-0.7811431214285715,0.0388393721428571,-1.1116023257142855,2.7871652142857144,1.3775041714285714,0.0668005157142857
424,4.240000477,-0.7290567500000001,0.0594038708333333,-1.3525484833333332,2.3589901666666666,1.4414976833333333,0.2810915583333333
425,4.250000477,-0.6640152571428571,0.0856888014285714,-1.5897095285714289,1.7043947,1.5492395428571428,0.4268513285714285
426,4.260000477,-0.6106759,0.07021751,-1.7376013,1.0143119,1.5848432,0.5012002
427,4.270000477,-0.6040901285714285,0.0476682855714285,-1.6815875428571427,0.1940312714285714,1.3736646571428572,0.5127190342857143
428,4.280000477,-0.6263301342857143,0.0100441398571428,-1.451861642857143,-0.3051182,1.1071607,0.51463884
429,4.290000477,-0.70415694,0.010671355,-1.1899475,-0.5580089833333334,0.21145495,0.6594096333333334
430,4.300000477,-0.7405092428571428,0.0296968551428571,-1.0758510857142858,-0.5279902285714286,-0.2257080614285714,0.8122086857142856
431,4.310000477,-0.7276644333333332,0.0558874053333333,-0.9521795333333332,-0.3947091233333333,-0.8850158533333333,1.1051244666666666
432,4.320000477,-0.6179367971428571,0.08785791,-0.9087769428571428,-0.2689909471428571,-1.5962747857142856,1.4401596714285714
433,4.330000477,-0.4777616033333333,0.1208200566666666,-0.9954443,-0.3065435016666666,-1.8183905,1.5602057166666663
434,4.340000477,-0.37213407,0.13199376,-1.0782859571428571,-0.5438721999999999,-1.889132442857143,1.6256827142857142
435,4.350000477,-0.33831242,0.13634941,-1.1047901,-0.7980973666666666,-1.8530051833333332,1.6151820166666668
436,4.360000477,-0.3178234,0.17223567,-1.0681721,-1.4060177,-1.7552696,1.5714046
437,4.370000477,-0.3621814142857142,0.1774624471428571,-0.90397258,-1.9481009,-1.7554441571428572,1.5652960714285715
438,4.380000477,-0.4174024,0.1891523066666667,-0.6691193383333335,-2.313329416666667,-1.8916921666666668,1.6422628833333337
439,4.390000477,-0.3657356214285713,0.2293078057142857,-0.3119432657142857,-2.5055428,-2.241329557142857,1.8092859714285716
440,4.400000477,-0.2832533116666667,0.2558177633333333,-0.0990708183333333,-2.48395955,-2.631428233333333,1.9326189166666667
441,4.410000477,-0.1204904815714285,0.3464836142857143,0.1486585071428571,-2.2594586,-3.2638878,2.0785822714285715
442,4.420000477,0.0081407192142857,0.3667374142857143,0.2209101057142857,-2.1755108571428567,-3.399495857142857,2.092021028571428
443,4.430000477,0.0546627433333333,0.398224445,0.2494352866666666,-2.1235594333333334,-3.379308833333333,2.0515304333333333
444,4.440000477,0.1180687357142857,0.41616973,0.3028269028571428,-2.1509022142857144,-3.255161442857143,2.000219271428571
445,4.450000477,0.120007,0.43359238,0.33264136,-2.180572,-3.1137938,1.9330262
446,4.460000477,0.1263401205714285,0.49008522,0.32044552,-2.347420685714286,-2.9827234714285713,1.8921866428571428
447,4.470000477,0.20857923,0.46923468,0.33825144,-2.5849528,-2.8193655,1.8242953
448,4.480000477,0.2907965871428571,0.3997707,0.4156601228571429,-2.8415086857142855,-2.4402912428571426,1.5792583
449,4.490000477,0.2549234142857143,0.3097567499999999,0.4544167671428571,-2.9676923142857143,-2.181291942857143,1.3331742285714283
450,4.500000477,0.0763967283333333,0.2285194333333333,0.4103288166666667,-3.090734466666667,-1.9250851666666664,1.1389247000000002
451,4.510000477,-0.0244874914285714,0.2184796457142857,0.3381120671428571,-3.247460342857143,-1.9826793,1.1651038428571427
452,4.520000477,-0.0930897838333333,0.2364568833333333,0.3379008033333333,-3.494300883333333,-2.1718674166666667,1.2822701833333332
453,4.530000477,0.0133500821428571,0.2450840028571428,0.5801688528571428,-3.828987,-2.5542577285714287,1.4848387857142855
454,4.540000477,0.14878917,0.21736026,0.73897606,-3.952639883333333,-2.81936555,1.5638708166666666
455,4.550000477,0.47435695,0.1492769999999999,1.0755202,-3.9251518,-2.9537518,1.5139849
456,4.560000477,0.62735367,0.09436526,1.2495241,-3.6832561,-2.8621250000000003,1.2867497
457,4.570000477,0.610000752857143,0.0523157685714285,1.2261080714285717,-3.295804557142857,-2.5553049714285714,0.9663167342857144
458,4.580000477,0.3702480714285714,0.014783092,0.8812360571428571,-3.0790411,-2.239933185714286,0.7516475542857143
459,4.590000477,0.0488138166666666,0.0109965773333333,0.5644943266666668,-3.1153720000000003,-2.1069139666666667,0.7196798833333333
460,4.600000477,-0.0819080917142857,0.0467100428571428,0.6264781857142857,-3.5961668571428573,-2.6504225999999997,1.1127455428571429
461,4.610000477,0.1404960026666666,0.0715997033333333,1.1180631666666667,-4.048950233333333,-3.6163684,1.6939812666666667
462,4.620000477,0.4276033428571428,0.0977147628571428,1.4692015714285716,-4.0529060999999995,-4.236509428571428,2.042804142857143
463,4.630000477,0.8651165,0.13700495,1.808916483333333,-3.833728333333333,-4.5569716,2.1708494
464,4.640000477,1.131316,0.1744309,1.9689869,-3.492672,-4.5579896,2.0955114
465,4.650000477,1.3827026,0.25153908,2.0114284,-3.0198762,-4.1499434,1.7595456000000005
466,4.660000477,1.36243215,0.29970752,1.7983976833333333,-2.6118302,-3.3935618,1.1829057
467,4.670000477,0.898048957142857,0.3295009428571429,1.4014886,-2.4453306571428572,-2.3315603571428576,0.4556484071428571
468,4.680000477,0.53438079,0.2821302933333333,1.1840325333333332,-2.543415333333334,-1.712714,0.092950594
469,4.690000477,0.3336431614285714,0.2165457371428571,1.1504765428571428,-2.7079948285714286,-1.6865057,0.0544090357142857
470,4.700000477,0.2454411416666666,0.1598721366666666,1.191045116666667,-2.809744633333333,-1.94198525,0.1581076266666666
471,4.710000477,0.34102163,0.1005198028571428,1.2979633428571429,-2.8563435142857143,-2.4406402857142857,0.3357478428571429
472,4.720000477,0.5405890171428572,0.0387391931428571,1.3964011428571428,-2.8137588428571427,-2.725469514285714,0.4059080171428571
473,4.730000477,0.6108486466666667,0.0234363266666666,1.4523307,-2.7335924000000005,-2.750136133333333,0.37984519
474,4.740000477,0.6009671,0.0349584857142857,1.5268791285714285,-2.6427216,-2.5774700000000004,0.3594836128571428
475,4.750000477,0.572198,0.03286777,1.5960687,-2.5458586,-2.3758905,0.37780902
476,4.760000477,0.53017466,0.0755444757142857,1.6529623285714286,-2.3646988857142857,-2.1517967571428573,0.4657710428571429
477,4.770000477,0.6171092,0.09729226,1.6829641,-2.080742171428571,-1.941490728571429,0.5877659542857143
478,4.780000477,0.7698925,0.11878742,1.7512913,-1.7920731000000003,-1.8383448,0.6087093
479,4.790000477,0.7698925,0.11878742,1.7512913,-1.7920731,-1.8383448,0.6087093
480,4.800000477,0.7698925,0.11878742,1.7512913,-1.7142918833333336,-1.8540232,0.5901802633333334
481,4.810000477,0.8550586257142856,0.2568442485714285,1.6810737285714286,-1.279135957142857,-1.9926273142857145,0.4369739385714286
482,4.820000477,0.93999386,0.3345317,1.8059591,-1.2592107666666663,-1.9747674333333336,0.2593046533333333
483,4.830000477,1.0815309142857144,0.3526861,1.9332095714285715,-1.2620322285714285,-1.4945250714285714,0.1065928514285714
484,4.840000477,1.1090064,0.3433388485714285,2.0102610000000003,-1.2328642142857142,-1.0191113914285714,-0.0454208542857142
485,4.850000477,1.0258474333333334,0.3194596916666667,2.0956812333333334,-1.0360987333333334,0.1359135066666666,-0.3845283366666667
486,4.860000477,0.7608676,0.28815705,2.1166174,-0.8292252,0.8249492,-0.55800897
487,4.870000477,0.6587782999999999,0.266870245,2.09108745,-0.6323287366666667,0.9957828333333336,-0.5753163283333333
488,4.880000477,0.6434827,0.24666072,2.0795422,-0.5059997014285714,1.0164061285714288,-0.5868060757142857
489,4.890000477,0.7609082333333334,0.1995949683333333,2.154871483333334,-0.3808632666666667,1.1185630666666666,-0.6667397866666667
490,4.900000477,0.8325703285714285,0.1652186985714285,2.3553813714285714,-0.2332127617142857,1.3602258857142857,-0.7449282428571429
491,4.910000477,0.88642871,0.141466585,2.5182975,-0.0491732033333333,1.6255917666666668,-0.7923707249999999
492,4.920000477,0.96389776,0.09875576,2.725525,0.21654536,1.9881551,-0.84632885
493,4.930000477,0.9582876,0.012866604,2.8636427,0.7638644999999998,2.7065115,-0.91352206
494,4.940000477,0.8884867999999999,-0.0281317226666666,2.7826217,1.3136270833333334,3.2786717499999996,-0.9277751766666666
495,4.950000477,0.7779068857142857,-0.0795647494285714,2.403794414285714,2.164973542857143,3.8412912857142856,-0.8793146314285715
496,4.960000477,0.71709469,-0.0747502966666666,2.0351187,2.6884405333333334,3.8842249333333334,-0.7404487
497,4.970000477,0.72278607,-0.05277747,1.9091967,2.765,3.7816026,-0.6655181
498,4.980000477,0.76606097,-0.0404190253333333,1.9014625333333337,2.7580771,3.7516711,-0.6561517766666667
499,4.990000477,1.1093592,0.0002874731428571,2.0190070714285717,2.693967314285714,3.5932872,-0.7725036171428571
500,5.000000477,1.1934886,-0.0010802024285714,2.060812728571429,2.8253867714285716,3.995399228571429,-1.2494880428571429
501,5.010000477,1.0493143,-0.048508928,1.97006915,2.9600640333333335,4.3944861,-1.4755015666666669
502,5.020000477,0.9382080857142856,-0.0767597042857142,1.9180038714285712,3.1341263571428573,4.8216138428571425,-1.5913880428571427
503,5.030000477,0.8831308,-0.10378654,1.8869698,3.2414609999999997,5.0179577,-1.6062229
504,5.040000477,0.6852447142857143,-0.2230356485714285,1.7173344571428573,3.826827171428571,5.488135357142857,-1.5224495285714286
505,5.050000477,0.5725486616666667,-0.28711026,1.52993685,4.350301616666667,5.494622116666666,-1.4013855
506,5.060000477,0.4671439871428572,-0.3487877571428571,0.9412396,5.048150885714286,4.989509314285714,-1.176011857142857
507,5.070000477,0.4974578866666667,-0.2684506066666667,0.4239983366666667,5.112028,4.371681,-1.057682
508,5.080000477,0.56339088,-0.1814043085714285,0.1403609802857142,4.3738844,3.734305628571428,-1.1056772
509,5.090000477,0.5785616071428572,-0.1181645585714285,0.0391616914285714,3.891227942857143,3.6885793,-1.1929410714285713
510,5.100000477,0.5186887666666667,-0.0945990199999999,0.1365120266666666,3.070831,3.8272126,-1.3435585666666665
511,5.110000477,0.45026582,-0.1154989042857142,0.3649603171428572,2.7128164714285714,3.9154656,-1.4585723714285714
512,5.120000477,0.31889054,-0.16382053,0.5486296,2.6562693,3.912324,-1.5475816
513,5.130000477,0.18565106,-0.23483077,0.7253166999999999,2.8517404,3.796263,-1.5292561
514,5.140000477,-0.037166804,-0.1296722,0.4119753,3.2834057333333333,3.42161,-1.3409116
515,5.150000477,0.0744250741428571,0.0501292304285714,0.0375283277142857,2.8079340142857143,2.9229259571428576,-0.9995642685714284
516,5.160000477,0.2354275014285714,0.1986091499999999,0.0118648031428571,2.4155955,2.7993603,-0.92207396
517,5.170000477,0.37294859,0.32951617,0.114839023,1.5494141,2.961845633333333,-1.0271396666666666
518,5.180000477,0.4310835114285714,0.3360213285714285,0.2838711042857142,0.9130858142857142,3.1941421857142855,-1.2597851857142857
519,5.190000477,0.4023862833333333,0.26493415,0.66878395,0.7628464166666666,3.414687066666667,-1.4818136333333332
520,5.200000477,0.1228468871428571,0.1764519285714285,1.0240318857142856,1.2183348857142855,3.6817727857142857,-1.7067509142857145
521,5.210000477,-0.0496065575,0.125373172,1.0029244,1.7074199666666665,3.6272618666666663,-1.6098879333333336
522,5.220000477,-0.1089828485714285,0.0589581430571428,0.9153234571428572,2.4527699428571426,3.4744338285714287,-1.3987093285714285
523,5.230000477,-0.1371029514285714,0.0037371518571428,0.5037314428571429,3.049655,3.4126508,-1.2604833
524,5.240000477,-0.19897503,0.019940188,0.16083255,3.4029283333333336,3.3373131333333332,-1.12813305
525,5.250000477,-0.2646495814285715,0.1414890982857143,-0.2650720928571429,3.351937142857143,2.9349683000000004,-0.9419701185714284
526,5.260000477,-0.2526672,0.2524435933333333,-0.58123308,2.8334148999999997,2.5334381,-0.8813507866666667
527,5.270000477,-0.2555942,0.30937782,-0.69723576,2.4742367,2.4071963,-0.8805363
528,5.280000477,-0.1373149183333333,0.265442305,-0.6888562166666666,1.7129174666666664,2.507375283333334,-1.0623651666666667
529,5.290000477,-0.1999942371428571,0.1782551728571428,-0.6195091428571429,1.2185093714285713,2.6525824428571427,-1.2681625142857142
530,5.300000477,-0.3341571228571429,0.0841120514285714,-0.5324918771428572,0.9253027,2.7853981142857145,-1.4641572428571428
531,5.310000477,-0.45792308,0.037746105,-0.49588257,0.9471187,2.7749264,-1.4632846
532,5.320000477,-0.5903218928571429,-0.0622031042857142,-0.5163890114285714,1.2150187714285714,2.6813794,-1.3161577142857142
533,5.330000477,-0.7309878,-0.16869886,-0.57619214,1.6129422,2.5147054,-1.0674555
534,5.340000477,-0.8167636571428571,-0.2044762071428571,-0.9323453771428571,1.9351205571428576,2.2885174142857143,-0.7732017057142857
535,5.350000477,-0.8999610933333334,-0.2118975266666666,-1.542402,2.1480443,1.9478391,-0.36131614
536,5.360000477,-0.97352372,-0.1133385,-2.0387340000000003,1.6639042714285712,1.3871249857142856,0.0739561519999999
537,5.370000477,-0.941706405,-0.0405359018333333,-2.16875965,0.95444879,0.7247702741666666,0.4472419966666667
538,5.380000477,-0.7513025557142858,0.0456646864285714,-2.0504376714285715,-0.0461189657142857,-0.1447271657142857,0.7265155400000001
539,5.390000477,-0.5669712285714286,0.1320591014285714,-1.6138441,-0.9868673714285714,-1.0023567071428572,0.8336756285714285
540,5.400000477,-0.4672630266666666,0.1946048533333333,-1.20989782,-1.4377816666666667,-1.4917907999999998,0.8277998666666666
541,5.410000477,-0.43527802,0.2405671714285714,-0.9283860514285714,-1.6795027,-1.8345052,0.7985955285714285
542,5.420000477,-0.40593323,0.29953983,-0.6107978266666666,-1.7444271,-1.9776180000000003,0.7846333
543,5.430000477,-0.37419868,0.32352498,-0.43487296,-1.7370968999999998,-2.1425467,0.73332214
544,5.440000477,-0.3483435,0.3103535,-0.2757478,-1.6796771999999998,-2.1865277,0.63802993
545,5.450000477,-0.3929279785714286,0.27452386,-0.1217318471428571,-1.5096871714285716,-2.1106082,0.4936954628571429
546,5.460000477,-0.4659723,0.25690526,-0.08198649,-1.363607357142857,-2.0605186,0.4216154985714285
547,5.470000477,-0.5833063833333333,0.2312939849999999,-0.1145341233333333,-1.2410889,-2.037481,0.41323817
548,5.480000477,-0.7751454142857143,0.1856162357142857,-0.2072246442857142,-1.1201630285714284,-2.1193346571428573,0.5823555928571429
549,5.490000477,-0.8128421600000001,0.18475671,-0.2397294366666666,-1.1214392,-2.2431329833333336,0.7514439666666667
550,5.500000477,-0.7629757,0.1928291871428571,-0.2556420814285714,-1.2358531,-2.537852114285714,1.1596934857142855
551,5.510000477,-0.7112305,0.19882257,-0.25452703,-1.3204991,-2.6434414,1.3429477
552,5.520000477,-0.5723679285714286,0.1984044314285714,-0.2136013285714286,-1.4763523714285711,-2.755139285714286,1.499673657142857
553,5.530000477,-0.396639,0.19857866,-0.1210436499999999,-1.6613518,-2.869455,1.6166073
554,5.540000477,-0.24852058,0.2183359,0.0119824065,-1.82200465,-2.984701466666667,1.5901372166666663
555,5.550000477,-0.0730573967857143,0.2533510185714285,0.2047985214285714,-1.9648556571428573,-3.0783648,1.4590086714285715
556,5.560000477,0.004227889,0.2513764666666667,0.3037677133333333,-2.016457733333333,-3.0588176666666667,1.3612731333333332
557,5.570000477,0.0114248827142857,0.2248345457142857,0.3583876371428571,-2.022798914285714,-2.930190671428572,1.1329907428571429
558,5.580000477,-0.053936072,0.1802747433333333,0.3258218633333333,-2.0079058666666665,-2.768461633333333,0.9695164
559,5.590000477,-0.1443899542857142,0.1597697728571428,0.2298740514285714,-2.044963971428571,-2.680616,0.9458969714285717
560,5.600000477,-0.3082344616666667,0.2026541033333333,0.12214635,-2.235548133333334,-2.7244806166666664,1.0324336833333334
561,5.610000477,-0.3526817357142857,0.2956792828571428,0.1782029042857142,-2.6209056285714287,-3.0881382,1.2794195571428573
562,5.620000477,-0.1217100734285714,0.2666618942857143,0.3838028885714286,-2.9539046,-3.3886752,1.4846643
563,5.630000477,0.068022266,0.2432459,0.54423904,-3.2348943,-3.5452049,1.5982819
564,5.640000477,0.3036893122857143,0.2004907971428571,0.8289943657142856,-3.3504317571428572,-3.5245669285714283,1.5333575
565,5.650000477,0.4770400166666667,0.13801111,1.056799466666667,-3.164647,-3.2634515,1.2586508
566,5.660000477,0.4278646885714286,0.1071273314285714,1.0971633,-2.864197342857143,-3.0022705714285713,1.0219911571428573
567,5.670000477,0.1236454266666666,0.13862598,0.8892286833333333,-2.4477158,-2.7595023666666663,0.7984792000000001
568,5.680000477,-0.1137348542857142,0.1805462514285714,0.7365325142857142,-2.383198757142857,-2.8724219285714283,0.8624727285714285
569,5.690000477,-0.2539520857142857,0.3097611142857143,0.6916431457142858,-2.726145857142857,-3.760484928571429,1.3504524285714286
570,5.700000477,-0.040500325,0.3115273166666666,0.8089496166666666,-3.0286315666666668,-4.37799335,1.66282805
571,5.710000477,0.3260643,0.2609821271428571,1.0179731571428572,-3.3460685999999997,-4.911233657142857,1.9152242857142856
572,5.720000477,0.6195483,0.2444654899999999,1.2055887,-3.4853418,-5.044224,1.9330262
573,5.730000477,0.8017540971428572,0.17440043,1.2976323,-3.4528795714285714,-4.757300571428572,1.7194041714285715
574,5.740000477,0.8622302049999999,0.1435907033333333,1.3701154833333336,-3.3181732000000004,-4.110849333333333,1.3295090833333334
575,5.750000477,0.5836185628571428,0.1086038999999999,1.3466901142857142,-2.830338942857143,-2.324579228571429,0.55530382
576,5.760000477,0.4062533933333332,0.0765136116666666,1.2756436666666666,-2.6751545833333332,-1.87377395,0.4521287833333333
577,5.770000477,0.1927246599999999,0.02262327,1.160952,-2.426307142857143,-1.3903319285714286,0.4685634914285714
578,5.780000477,0.1030547957142857,-0.0071694075714285,1.107386057142857,-2.1550911142857143,-1.8332834714285713,0.8780056714285713
579,5.790000477,0.28106316,-0.01218567,1.0843112333333331,-2.0940353333333332,-2.68419005,1.2462301833333334
580,5.800000477,0.7111347285714286,-0.0318354811428571,1.1080960714285717,-2.1823172285714287,-3.707864685714285,1.5705318571428573
581,5.810000477,1.1165234833333333,-0.0537988716666666,1.1354727666666669,-2.2923570166666667,-4.185983666666666,1.5249801666666667
582,5.820000477,1.4402974,-0.07476046,1.1338466,-2.4236891,-4.152387,1.250099
583,5.830000477,1.4370401166666664,-0.0860161978333333,1.1638586,-2.6729150166666664,-3.5073067000000004,0.590791105
584,5.840000477,1.065144914285714,-0.0579694107142857,1.3124894714285715,-2.8544237000000003,-2.9258274285714285,0.1247437375428571
585,5.850000477,0.8139978428571428,-0.0549465871428571,1.521090528571429,-2.8210889142857143,-2.6563565714285713,-0.0070247436
586,5.860000477,0.6657604,-0.071101712,1.6601781666666666,-2.54911655,-2.5343035166666663,0.015169372
587,5.870000477,0.6984858571428572,-0.0807189942857142,1.5797525,-2.283892357142857,-2.6193567428571427,0.1449889528571428
588,5.880000477,0.8181981666666666,-0.1100114966666666,1.4947620166666666,-2.2155938666666666,-2.7187794000000003,0.1611618666666666
589,5.890000477,0.9043864171428572,-0.1405439128571428,1.4250962142857142,-2.287034,-2.757757114285714,0.0531873437142857
590,5.900000477,0.8950014000000001,-0.1720781333333333,1.4063371166666665,-2.459525633333333,-2.7401589000000004,-0.0892855091666666
591,5.910000477,0.8694714428571428,-0.20228533,1.5034369857142855,-2.6877497285714287,-2.5994604000000003,-0.25328346
592,5.920000477,0.8470529428571428,-0.2131918828571428,1.679187742857143,-2.8354003,-2.3355744,-0.4187358
593,5.930000477,0.6503580883333334,-0.1851073416666666,1.8957711666666668,-2.8634992,-1.7357225000000005,-0.589773
594,5.940000477,0.3876750499999999,-0.1279190483333333,2.1703095833333337,-2.5454513999999997,-0.937752395,-0.5170822
595,5.950000477,0.1982998928571428,-0.0789767314285714,2.433229985714285,-1.6513601285714288,-0.3463067642857143,-0.1546752514285714
596,5.960000477,0.2756214914285714,-0.0840292942857142,2.4111206142857142,-0.9702435857142856,-0.3740566928571428,0.11793715
597,5.970000477,0.4745195666666666,-0.0886637113333333,2.3172287333333332,-0.3698680133333333,-0.54986435,0.2878108666666666
598,5.980000477,0.6304026285714286,-0.0589668534285714,2.2028898285714287,0.0364326742857142,-0.6086220642857143,0.2987479514285714
599,5.990000477,0.7419843233333333,-0.0167133731666666,2.0732305833333333,0.25808296,-0.5396836,0.24464433
600,6.000000477,0.8153219342857143,0.01872496,1.9796146142857145,0.3367949957142856,-0.08922733,0.0788429242857142
601,6.010000477,0.7891619,0.056802094,2.0024033,0.32527617,0.42179003,-0.03634541
602,6.020000477,0.75804512,0.0846782828571428,2.0980186714285716,0.4015448028571429,1.1183522614285717,-0.0789301934285714
603,6.030000477,0.7707868616666667,0.0726515896666666,2.22677125,0.6669433833333334,1.9893768,-0.11229409
604,6.040000477,0.8057220928571428,0.0058191548571428,2.293165028571429,1.079236242857143,2.4867809285714286,-0.1021423871428571
605,6.050000477,0.8532118142857142,-0.0437264197142857,2.2961314285714285,1.248004642857143,2.564969357142857,-0.1257036371428571
606,6.060000477,0.9738983,-0.16211312,2.3306544,1.5359755,2.5733469,-0.2586938
607,6.070000477,0.9997490314285714,-0.23128527,2.395819257142857,1.941752542857143,2.5654930285714284,-0.5140279542857142
608,6.080000477,0.9639180066666668,-0.2374528833333333,2.4097342,2.3418866,2.7228008,-0.7033906266666667
609,6.090000477,0.9233987742857144,-0.2138539414285714,2.294550257142857,2.691873,3.028340685714286,-0.8255600857142857
610,6.100000477,0.8890610166666667,-0.1881969516666666,2.091173766666667,2.896943,3.3503443999999996,-0.8866448
611,6.110000477,0.8333413,-0.18187036,1.8552606,2.9384808999999996,3.9587483,-0.89886177
612,6.120000477,0.7429484114285714,-0.15643335,1.6625011857142855,2.7211937285714285,4.689670614285715,-0.7972865528571429
613,6.130000477,0.68667626,-0.14633984,1.6339063333333332,2.5520181333333336,5.063771016666667,-0.69361705
614,6.140000477,0.6817165942857143,-0.1469205971428571,1.7055742857142857,2.3710908714285712,5.142396,-0.5196128571428572
615,6.150000477,0.7436104583333334,-0.1564674683333333,1.8268189833333333,2.4829921833333333,5.030378,-0.507715885
616,6.160000477,0.8656863714285715,-0.1966403985714285,1.847342214285714,2.820674428571429,4.780425085714286,-0.5909947228571427
617,6.170000477,0.8831308,-0.20604862,1.7842505,3.1913714,4.5207276,-0.7669187000000001
618,6.180000477,0.7861086114285715,-0.1940966828571428,1.5268443428571428,3.613030600000001,4.2844172,-0.9791445114285714
619,6.190000477,0.6701523428571429,-0.1962222514285714,1.2137859714285717,3.8564968285714287,4.205530728571429,-1.0924130857142855
620,6.200000477,0.5763751,-0.19238928,0.9676479,3.808327233333334,4.249104483333333,-1.074785775
621,6.210000477,0.48265013,-0.17040628,0.84245765,3.531002657142857,4.262601342857143,-0.9686728471428572
622,6.220000477,0.5153857666666667,-0.166142825,0.8835017216666667,3.2948084166666667,4.378807616666667,-0.8803327149999999
623,6.230000477,0.5852170571428571,-0.1975812257142857,0.8761965785714285,3.0953812142857147,4.524567642857143,-0.8986871857142856
624,6.240000477,0.5601190716666666,-0.2179649666666666,0.8942341083333334,3.0962829500000004,4.616020249999999,-0.980308
625,6.250000477,0.4674096642857143,-0.2391428757142857,0.8304274071428572,3.2011452,4.6893215,-1.069899
626,6.260000477,0.2525190985714286,-0.2211365985714285,0.6979544728571428,3.403073742857143,4.535911714285715,-1.0836866714285711
627,6.270000477,0.1042947033333333,-0.1751423299999999,0.6533307866666666,3.4878360333333336,4.138337666666667,-0.9481367
628,6.280000477,0.0555171742857142,-0.1443333328571428,0.6419625457142857,3.5903419857142858,3.7952157428571422,-0.7814045085714286
629,6.290000477,0.0498606309999999,-0.08930399,0.5182111333333334,3.6951168,3.5625120666666668,-0.58977301
630,6.300000477,0.057015523,-0.03399589,0.36413708,3.681271,3.419981,-0.47004697
631,6.310000477,0.18565106,0.054606844,0.2513866,3.410055,3.2428353,-0.40651885
632,6.320000477,0.2771154771428571,0.29567927,0.0028311758571428,2.5276422857142857,3.4096839,-0.6114145142857143
633,6.330000477,0.27275982,0.41456687,0.023934323,1.9272667428571428,3.490664771428572,-0.7733762571428571
634,6.340000477,0.329622895,0.33831242,0.4246589149999999,1.3539429333333333,3.7982992,-1.1203956333333334
635,6.350000477,0.2531245131428571,0.2720150114285714,0.5687439571428571,1.303329857142857,4.250559000000001,-1.3550774142857145
636,6.360000477,0.0043091949999999,0.2086198966666666,0.713024345,1.5410658166666666,4.579980166666667,-1.4066793666666666
637,6.370000477,-0.2189849071428571,0.1786733217142857,0.8139803957142858,2.196039542857142,4.509907071428572,-1.2245305857142856
638,6.380000477,-0.239480455,0.106454388,0.67162453,2.976760533333333,4.0951709,-0.9281824
639,6.390000477,-0.2149341585714285,0.1067440385714285,0.3611011702857142,3.616346685714286,3.730291414285714,-0.6712774857142857
640,6.400000477,-0.1756548528571428,0.1587244242857143,-0.1122190891428571,3.911124228571429,3.401306528571429,-0.4674290371428571
641,6.410000477,-0.06646729,0.19345641,-0.3404467,3.9048412,3.1499864999999994,-0.38575006
642,6.420000477,0.0863857014285714,0.2004603142857142,-0.7709596142857144,3.245300585714286,3.059755757142857,-0.7182254914285714
643,6.430000477,0.0370296004999999,0.135373755,-0.94859195,2.8594778,3.1308466666666668,-0.9481367333333334
644,6.440000477,-0.0167344262857142,0.0677696317142857,-1.0245284142857145,2.5063498857142856,3.2028684285714286,-1.1723467428571428
645,6.450000477,-0.212451425,-0.0682407733333333,-1.1926458166666667,2.2995346,3.240392,-1.3093511
646,6.460000477,-0.4476350142857143,-0.2124688542857143,-1.351733957142857,1.9832902571428572,3.037939785714286,-1.2929455142857142
647,6.470000477,-0.7007420999999999,-0.33587328,-1.4862453,1.8340689,2.8189075,-1.1847383
648,6.480000477,-1.027198385714286,-0.4190401714285715,-1.6396689285714283,1.6679184,2.3852057,-0.76814044
649,6.490000477,-1.1649808714285714,-0.4082686071428571,-1.7373575,1.4597067714285714,1.669838271428571,-0.0878311142857142
650,6.500000477,-1.0980519,-0.36371025,-1.7373575,1.2513206,0.9263499,0.4242334
651,6.510000477,-0.75533154,-0.2501844385714286,-1.7429327571428572,0.7361145885714285,-0.3850519285714285,0.8602038571428572
652,6.520000477,-0.5227526685714285,-0.1166662088571428,-1.7107575714285714,0.3032856599999999,-0.94895124,0.9972082
653,6.530000477,-0.3820395666666666,0.0017074166666666,-1.51670435,-0.4289165749999999,-1.23686385,0.9442680583333334
654,6.540000477,-0.3348409542857142,0.09437833,-1.1713531271428572,-1.1135745142857143,-1.3751480142857144,0.7985955214285714
655,6.550000477,-0.3622111633333333,0.1465583516666666,-0.917568775,-1.5412185333333337,-1.4307061,0.6871013666666667
656,6.560000477,-0.4434405228571428,0.2136405142857143,-0.5233929114285715,-1.8011485571428572,-1.5063930142857145,0.6245913
657,6.570000477,-0.4754444,0.2286922033333333,-0.2824300866666667,-1.8051045666666663,-1.5836214833333333,0.6207225783333333
658,6.580000477,-0.5139280857142857,0.2246036899999999,-0.1031854668571428,-1.6041067000000002,-1.6875528000000002,0.6406478614285714
659,6.590000477,-0.55619099,0.2193377171428571,-0.0624905805714285,-1.3607932142857142,-1.7713261714285713,0.6755534285714286
660,6.600000477,-0.63192713,0.20028608,-0.18863906,-1.0527953,-1.8603354,0.75409096
661,6.610000477,-0.6638453542857142,0.1654626185714285,-0.4029503314285714,-1.0239981571428571,-1.8933211,0.9099442571428572
662,6.620000477,-0.67738706,0.1571738033333333,-0.4718974599999999,-1.0974125666666668,-1.91449715,1.0067780666666666
663,6.630000477,-0.6778444014285714,0.1741521428571428,-0.4823277857142857,-1.2941453571428572,-2.0392262857142858,1.1666745714285711
664,6.640000477,-0.6245994416666667,0.19386294,-0.44530545,-1.4267864999999995,-2.1474335,1.2635375
665,6.650000477,-0.54318066,0.2004951457142857,-0.3966738528571428,-1.6372669428571427,-2.3287679,1.3658108857142857
666,6.660000477,-0.4592950866666667,0.2131730083333333,-0.3002868166666666,-1.8169142333333337,-2.4585583833333335,1.4176746333333332
667,6.670000477,-0.39541942,0.21175015,-0.23989205,-1.9350114,-2.5420408,1.4309098
668,6.680000477,-0.3838856514285714,0.2140194514285714,-0.2022722571428571,-1.9952235142857144,-2.5825312714285715,1.4405087857142858
669,6.690000477,-0.3733043166666667,0.2569103133333333,-0.08116835555,-2.1372020000000003,-2.737715549999999,1.5078764333333332
670,6.700000477,-0.34688,0.28864488,0.0009756667,-2.201341,-2.9342048,1.5933951
671,6.710000477,-0.1645218,0.2883603133333333,0.1625907877833333,-2.1726310000000004,-3.299898666666667,1.6689365
672,6.720000477,-0.0537357114285714,0.2997605285714285,0.2140020328571428,-2.132926,-3.381345,1.6557015
673,6.730000477,-0.0251451958285714,0.3104231857142857,0.2234799271428571,-2.180921,-3.3577836285714286,1.608404414285714
674,6.740000477,-0.0074902746,0.3214211933333333,0.2347799566666666,-2.3002981666666664,-3.288088933333333,1.5876938666666665
675,6.750000477,-0.005623151,0.3483652571428571,0.2903610271428571,-2.459467442857143,-3.272614285714286,1.5839706285714286
676,6.760000477,0.05137495,0.3511129533333333,0.385774545,-2.619771083333333,-3.3387894,1.579141983333333
677,6.770000477,0.1819705542857142,0.2805869271428571,0.4946935071428572,-2.7196883000000005,-3.3185150857142856,1.4813482571428571
678,6.780000477,0.1926738416666666,0.231573475,0.51319053,-2.7366465000000004,-3.1687701500000003,1.3718612166666666
679,6.790000477,0.10582935,0.212238,0.48981518,-2.75599,-2.9916244,1.3087403
680,6.800000477,0.1310398742857143,0.16999685,0.4041176571428572,-2.967692414285714,-2.8877804285714284,1.2946035142857144
681,6.810000477,0.19345641,0.1156165,0.3216651,-3.0675223,-2.829139,1.265981
682,6.820000477,0.1810340742857143,0.1049669285714285,0.3466535071428572,-3.4621296142857143,-2.831408,1.2268867142857145
683,6.830000477,0.1834354966666666,0.1582307733333333,0.8906922333333332,-3.7492278333333338,-3.208907866666667,1.3040570333333334
684,6.840000477,0.40977565,0.19836958,1.8658798285714289,-3.7345675714285713,-4.3183630285714285,1.5059565999999998
685,6.850000477,0.6241929333333333,0.1940255383333333,2.4461641833333334,-2.677801733333333,-4.867892666666666,1.4545291333333334
686,6.860000477,0.7037213914285714,0.1866615914285714,2.671863228571429,-1.7389948571428573,-4.850672671428571,1.3466127714285714
687,6.870000477,0.5984444466666667,0.198339825,2.456007,-0.8715772433333333,-4.4606358,1.2405290166666667
688,6.880000477,0.2058351778571428,0.2678466357142857,1.4845683428571428,0.4507616485714286,-3.4139816142857144,1.1268822714285711
689,6.890000477,-0.0761368471428571,0.2492392685714285,0.6498332299999999,0.4013702685714285,-2.7331487857142855,1.2439904428571429
690,6.900000477,-0.21922012,0.22665958,0.15595421,-0.14629792,-2.3111405,1.4565653
691,6.910000477,-0.3785281542857143,0.3363567371428572,0.0690719738571428,-1.665366028571429,-2.5802625,2.176666957142857
692,6.920000477,-0.15869829,0.3684361299999999,0.2496792,-2.7901976000000004,-3.1797655,2.7613351
693,6.930000477,0.8959887428571428,0.1509452185714285,0.9576603942857144,-3.7944305,-3.3837883,2.996053
694,6.940000477,1.3130542,0.0904625933333333,1.2672589,-4.2028837333333335,-2.8890022,2.4966346666666666
695,6.950000477,1.4509513714285716,0.1036428057142857,1.599426957142857,-4.181358742857143,-2.561937142857143,2.005106157142857
696,6.960000477,1.3959045571428572,0.1529705985714285,1.8101840142857144,-3.809789,-2.4062582285714287,1.2872733714285716
697,6.970000477,1.3302301,0.15610667,1.9335885,-3.264215,-2.3392396,0.6306998
698,6.980000477,1.14833794,0.1480574171428571,1.8841169142857144,-3.0299987142857145,-2.293513285714286,0.4732757328571429
699,6.990000477,0.5468764266666667,0.171905355,1.5854939666666663,-1.9468211333333336,-2.1156695,0.0080428216666666
700,7.000000477,0.3067687685714286,0.1810515014285714,1.3271375714285714,-1.4075884142857142,-2.1502260142857144,0.1062437871428571
701,7.010000477,0.1900067214285714,0.2098772314285714,0.8631993357142858,-1.2272357857142857,-2.555850414285714,0.5263321528571429
702,7.020000477,0.5853949083333333,0.277460305,0.2904945866666666,-2.00240825,-3.5897966166666664,1.2680170333333334
703,7.030000477,1.0460845428571428,0.1984087971428571,0.4324511685714286,-2.8219616142857142,-3.6881429714285714,1.237009357142857
704,7.040000477,1.3349994857142855,0.1034816487142857,0.6879016142857143,-3.963722385714285,-3.548673442857143,0.95985922
705,7.050000477,1.2743325,-0.002103781,1.2926364,-4.681380866666667,-3.2135655666666665,0.5529185933333333
706,7.060000477,1.22011685,-0.0310688851666666,1.7936208833333334,-4.83633245,-2.962914616666667,0.3152989966666666
707,7.070000477,1.0994978457142857,-0.0394317428571428,2.2308445,-4.4703767,-2.344824457142857,0.0195034771428571
708,7.080000477,0.85894386,-0.0329853732857142,2.4730145142857145,-3.836491728571428,-1.6566613714285714,-0.1326847528571428
709,7.090000477,0.68985736,-0.010335969,2.6147258,-3.2727668,-1.2604833,-0.15973656
710,7.100000477,0.5504981371428571,-0.0027179285,2.6475324428571425,-2.1495059714285714,-1.0452905428571428,-0.1044112471428571
711,7.110000477,0.4928946,-0.0132629685,2.5417643,-1.2960652,-1.0882244,-0.05833591
712,7.120000477,0.4402826485714285,-0.0171307901428571,2.116029457142857,-0.2987043142857142,-1.1140545,-0.0349491882571428
713,7.130000477,0.3299408485714285,-0.0036326165714285,1.693861914285714,0.3495355285714286,-1.0575074857142857,0.0514420616571428
714,7.140000477,0.2936654933333333,0.0222167433333333,1.5547452333333334,0.4918338466666667,-0.9860093,0.1945548433333333
715,7.150000477,0.3767684857142857,0.0353417831428571,1.4649809571428574,0.5233652057142857,-0.9588993,0.3819976785714286
716,7.160000477,0.5190242,0.042136606,1.4264551,0.48409647,-0.9623898,0.5085303
717,7.170000477,0.7676623857142857,0.098760118,1.4522580428571428,0.3306865285714285,-0.7386452285714286,0.5624594142857143
718,7.180000477,0.99197865,0.15244792,1.5099355999999995,0.2495311,-0.5091412,0.5231907
719,7.190000477,1.245007242857143,0.1568035742857143,1.6613469428571428,0.19944163,0.0894891249999999,0.2483093999999999
720,7.200000477,1.1814408333333333,0.1618895233333333,1.96483,0.4517215416666666,0.937955975,-0.2444407166666666
721,7.210000477,1.0927771,0.18126057,2.145918,0.9204159142857142,1.0930239714285714,-0.5128062742857143
722,7.220000477,1.0564291714285714,0.1486846328571428,2.149219371428571,1.4298625428571428,1.0500900714285712,-0.73812164
723,7.230000477,0.9871307666666668,0.1462331166666666,2.077864983333334,1.7746130999999998,1.1283367,-0.8683193933333334
724,7.240000477,0.9551123857142856,0.1992755714285714,1.9627408,1.9080686714285715,1.2195565571428573,-0.878442
725,7.250000477,1.1122854166666667,0.2093923049999999,1.883372066666667,1.8181868666666663,1.5005972333333333,-0.915151
726,7.260000477,1.3542732285714287,0.17850345,1.8008717285714284,1.6188761142857142,2.1548292142857144,-1.1278421857142855
727,7.270000477,1.3027234,0.140943185,1.84955915,1.4064758,2.952275766666667,-1.3946661166666663
728,7.280000477,1.0700624,0.12366576,2.0480464,1.3087403,3.6496596,-1.5769022
729,7.290000477,0.915216,0.069851638,2.32621815,1.4930124666666666,4.036529516666667,-1.5677395333333333
730,7.300000477,0.8287373914285714,0.0147134021428571,2.546943042857143,2.1372237285714286,4.088422514285714,-1.498364742857143
731,7.310000477,0.8103303857142857,0.0138074255714285,2.261978728571429,3.534842271428571,3.6754897428571423,-1.3189501142857143
732,7.320000477,0.91217718,0.050602548,1.8702209666666665,3.9337546,3.4497089333333335,-1.2108010666666666
733,7.330000477,1.0472344714285715,0.1174415257142857,1.5983031,3.9182797428571425,3.390485857142857,-1.169379857142857
734,7.340000477,1.1920818,0.15196009,1.4879526,3.7350256,3.4419714999999997,-1.1920685
735,7.350000477,1.3732727142857144,0.1618430714285714,1.4624459428571428,3.3784652857142854,3.8444326857142856,-1.4639827
736,7.360000477,1.3961180000000002,0.14561825,1.4523408,3.144947,4.236073,-1.7467177000000005
737,7.370000477,1.2596902571428572,0.1172890805714285,1.4609737285714286,3.0194617142857143,4.686180071428572,-2.148131542857143
738,7.380000477,1.0649402,0.105372004,1.3576401,3.028886,4.8945665,-2.364895
739,7.390000477,0.9183332285714286,0.0276888988571428,1.2452773285714287,3.126970814285714,4.996316,-2.4497156714285713
740,7.400000477,0.6234728,-0.0745992988571428,1.0174854,3.353333385714286,4.897009528571429,-2.389503642857143
741,7.410000477,0.5965032666666666,-0.121887195,0.93992272,3.3917294166666667,4.554527916666666,-2.22073525
742,7.420000477,0.6824832142857142,-0.18751094,0.9083500928571429,3.469219628571429,4.313563514285714,-2.1462118
743,7.430000477,0.753036825,-0.1977147883333333,0.7491036966666668,3.546681,4.0996505333333335,-2.201188166666667
744,7.440000477,0.7698837485714286,-0.1837389492857142,0.4566250914285715,3.383352185714286,3.9763756714285714,-2.3518055714285713
745,7.450000477,0.657218255,-0.1242399758333333,0.2451616833333333,2.92850365,4.069515483333333,-2.4941912166666667
746,7.460000477,0.5612783828571428,-0.1357352685714285,0.2052645914285714,2.4082654,4.2629504,-2.5359323
747,7.470000477,0.4322421214285714,-0.1751495914285714,0.3574990628571429,1.9211581857142856,4.756514885714286,-2.531045642857143
748,7.480000477,0.15724494,-0.21938272,0.5462717,1.8352905666666668,4.997188566666666,-2.3196923333333337
749,7.490000477,0.0092383431428571,-0.2315553285714285,0.6621466428571428,2.043153157142857,4.892646428571429,-2.023693242857143
750,7.500000477,0.0003353846666666,-0.2055607866666666,0.6322523333333333,2.4713861833333333,4.3898029166666666,-1.602965016666667
751,7.510000477,0.0662103057142857,-0.2013401557142857,0.5076951514285714,2.7747736,4.0589275,-1.4156386
752,7.520000477,0.0787546,-0.14674637,0.22696446,2.9995655833333337,3.8180498333333337,-1.2625194666666666
753,7.530000477,0.0673950514285714,-0.0112680794285714,-0.1090786642857142,2.8613395571428577,3.651230385714286,-1.1414553714285716
754,7.540000477,0.0591548729333333,0.0723365383333333,-0.2878928133333333,2.4481739333333334,3.6822383,-1.0637905333333333
755,7.550000477,-0.0040072028571428,0.1612463471428571,-0.2951086885714286,2.081898257142857,3.757866957142857,-0.9873472571428572
756,7.560000477,-0.0372938443333333,0.224992795,-0.2285854883333333,1.7778709333333331,3.7689784,-0.8943822133333333
757,7.570000477,-0.059881546,0.25080732,-0.18180938,1.665475,3.775494,-0.85854584
758,7.580000477,-0.0908589614285714,0.2844634714285714,-0.1609850057142857,1.5605839,3.6358720142857144,-0.8019988342857143
759,7.590000477,-0.094517715,0.27644905,-0.17058922,1.5982819,3.5311553,-0.80723464
760,7.600000477,-0.1915791135714286,0.3139512414285714,-0.2058613057142857,1.6708854285714287,3.3157880857142854,-0.8068855828571427
761,7.610000477,-0.3298667966666667,0.36851744,-0.2660825799999999,1.7799071,2.9080912,-0.7648825666666667
762,7.620000477,-0.3644071471428572,0.3835241285714286,-0.3154060285714286,1.8356396714285712,2.5352998,-0.7108953285714286
763,7.630000477,-0.34142745,0.3784773683333333,-0.3914811583333333,1.8548377333333337,2.2337157333333333,-0.7107207999999999
764,7.640000477,-0.3271967857142857,0.35996438,-0.5645668671428572,1.7759512,2.131093371428572,-0.7229377571428571
765,7.650000477,-0.30252635,0.2589306157142857,-0.6642547542857142,1.5462725142857143,2.2194043999999997,-0.7889092142857143
766,7.660000477,-0.3892503333333333,0.1536776613333333,-0.7746691533333333,1.373490033333333,2.4361097666666667,-0.8577313666666666
767,7.670000477,-0.5477279428571429,0.0617806074285714,-0.9188515085714286,1.2757545,2.5745685000000003,-0.8854231
768,7.680000477,-0.7278778666666667,-0.00515274,-1.0629431166666663,1.0570711333333334,2.4609509166666665,-0.7801538
769,7.690000477,-0.9498376285714284,-0.1238617585714285,-1.1960061714285717,0.8127322999999999,2.1188765,-0.5347968
770,7.700000477,-1.0065222,-0.1711380299999999,-1.192661,0.68689775,1.6801354,-0.24403349
771,7.710000477,-1.0587855857142856,-0.2110314757142857,-1.2541367857142858,0.6006810214285715,0.9959864142857144,0.1825124314285714
772,7.720000477,-1.0195324142857145,-0.2247953457142857,-1.302532542857143,0.5045162200000001,0.45529936,0.5320915828571429
773,7.730000477,-0.9437542166666668,-0.1988073333333333,-1.3449718,0.3647776366666666,0.006821125,0.8147684000000001
774,7.740000477,-0.7999813257142857,-0.1183692757142857,-1.3603102,0.0638335457142857,-0.4719667842857142,1.0818540571428572
775,7.750000477,-0.7189088166666666,-0.0601966019999999,-1.313816433333333,-0.231612915,-0.7994972749999999,1.22118545
776,7.760000477,-0.6439095057142857,0.0190734132857142,-1.1871074857142858,-0.5616740485714286,-1.1260969142857142,1.3111835714285716
777,7.770000477,-0.58107555,0.0888415691666666,-1.01591291,-0.8255601,-1.3753225999999998,1.3624947999999997
778,7.780000477,-0.5005518285714287,0.1424908985714285,-0.7436757857142856,-1.1887305714285714,-1.6865056714285716,1.454645542857143
779,7.790000477,-0.4307045714285714,0.1666952742857142,-0.5947210642857143,-1.2686643285714283,-1.8107694857142855,1.5033387571428574
780,7.800000477,-0.3292468616666666,0.1931718316666666,-0.4590054416666667,-1.228872,-1.941781566666667,1.5033969666666664
781,7.810000477,-0.3117951928571428,0.21482525,-0.4188441057142857,-1.1485455142857144,-2.036957442857143,1.4811737285714286
782,7.820000477,-0.3533234533333333,0.2444299133333333,-0.4544371083333333,-1.101255766666667,-2.1661661666666667,1.4867004
783,7.830000477,-0.4243365985714286,0.2907007628571428,-0.5378058142857143,-1.157381042857143,-2.328244414285714,1.5406876857142855
784,7.840000477,-0.4091448216666666,0.3005154983333333,-0.5792818,-1.30115555,-2.4838067333333336,1.6170145666666669
785,7.850000477,-0.3478513071428571,0.3072217571428571,-0.5739534,-1.5313286285714285,-2.6069651571428567,1.6871165142857143
786,7.860000477,-0.3069821928571428,0.3321578757142857,-0.4864700142857142,-1.7700826,-2.7106347,1.7290032
787,7.870000477,-0.2408727783333333,0.3097436616666666,-0.3805049266666667,-2.0290818,-2.8157005,1.7607672
788,7.880000477,-0.16970502,0.29084012,-0.27208906,-2.3826751428571424,-2.7855072428571432,1.741918285714286
789,7.890000477,-0.1130858662333333,0.3613625466666666,-0.1630074766666666,-2.6639559,-2.7983931166666665,1.7412200666666664
790,7.900000477,0.0533611295,0.3585749228571428,-0.0066162442857142,-2.9837488285714286,-2.8586342000000005,1.6120695428571428
791,7.910000477,0.1880089433333333,0.3650212966666666,0.22323458,-3.165665066666666,-2.887983983333333,1.3914082
792,7.920000477,0.1906949271428571,0.3827923642857143,0.4385229857142856,-3.2572340142857144,-3.0200725142857143,1.0205948685714286
793,7.930000477,0.1452959328571428,0.3597509457142857,0.6053053285714285,-3.2195359285714287,-3.1296758857142857,0.8041804285714286
794,7.940000477,0.0732156503333333,0.29481395,0.6711367200000001,-3.0744451666666666,-3.1748786,0.6262202666666666
795,7.950000477,0.0104187261428571,0.2458854242857142,0.5865672971428572,-2.949192457142857,-3.1157137285714285,0.5626339628571428
796,7.960000477,-0.031068886,0.21467716,0.43124464,-2.8915981999999993,-2.9513085,0.55739814
797,7.970000477,-0.1570082894285714,0.1845708657142857,0.2542657085714285,-3.160720142857143,-2.763865671428572,0.6956241342857143
798,7.980000477,-0.2721805,0.19004159,0.41465837,-3.5647518999999996,-2.989181,0.96788746
799,7.990000477,-0.1088173214285714,0.2180702128571428,1.0100937671428571,-3.765109771428571,-3.7563834,1.3644146142857143
800,8.000000477,0.05652769,0.2007739099999999,1.3449565,-3.6991384,-4.36374,1.6324893
801,8.010000477,0.5402805350000001,0.2607774116666667,1.7088598833333333,-3.2055735999999997,-4.692783166666667,1.6764702666666669
802,8.020000477,0.8317340828571428,0.3202625871428571,1.7542792428571428,-2.871527514285714,-4.4274426,1.522711357142857
803,8.030000477,0.8869775333333333,0.357297275,1.6007031833333334,-2.6045000333333332,-3.491221166666667,1.140146433333333
804,8.040000477,0.6720862428571428,0.3650909857142857,1.2170439714285717,-2.6219528571428574,-2.1411506285714283,0.6483271
805,8.050000477,0.4587615116666667,0.3275699116666666,1.00683205,-2.8586126000000003,-1.0308047733333334,0.28333133
806,8.060000477,0.1497953214285714,0.2149428428571428,0.7943015800000001,-3.0614138,-0.45416492,0.11880979
807,8.070000477,-0.24095917,0.12122658,0.75287926,-3.3973796,-0.07788303,0.11514471
808,8.080000477,-0.33316985,0.0807872333333333,0.96806975,-3.3633759666666667,-0.9699236166666668,0.4087586166666666
809,8.090000477,-0.2311110468571428,0.1018265028571428,1.1276137142857143,-3.0629844142857143,-2.4149846285714287,0.7265155828571429
810,8.100000477,0.0640455502857142,0.1071099092857142,1.2129844857142855,-2.7999711857142855,-3.522908814285714,0.8972037342857143
811,8.110000477,0.3944640866666666,0.098755762,1.2501033666666668,-2.4912896333333334,-4.318740916666667,0.9308294166666666
812,8.120000477,0.4648224414285714,0.1057640122857142,1.1673894714285713,-2.2547463142857143,-4.552404642857143,0.8663122999999999
813,8.130000477,0.5476081583333333,0.1357345516666666,1.032616166666667,-2.204395116666667,-4.365776250000001,0.7801537333333334
814,8.140000477,0.6001047,0.0890339385714285,0.9142737814285714,-2.3383450857142862,-3.7341963714285713,0.5610632542857144
815,8.150000477,0.5590090600000001,0.0825875699999999,0.9257944028571428,-2.4015241285714284,-3.3469629857142853,0.4648984057142857
816,8.160000477,0.40651762,0.07777893,0.913224,-2.4664485,-2.7961533,0.37170056
817,8.170000477,0.2195555,0.0282333549999999,0.9366705,-2.5971699,-2.5664747,0.54518116
818,8.180000477,0.35849652,0.039046995,0.9569155566666666,-2.7429587333333334,-3.0478223666666664,0.7834115833333333
819,8.190000477,0.5533772285714286,0.0362129144285714,0.9861986314285714,-2.9579187428571427,-3.514880642857143,0.8837650914285714
820,8.200000477,0.8972068333333333,0.022867188,1.188839633333333,-3.364393999999999,-4.046506766666667,0.7935924166666667
821,8.210000477,1.081326142857143,0.0097261781428571,1.3242017857142858,-3.6144922857142854,-4.219230957142857,0.59212917
822,8.220000477,1.1893464,-0.0357468595714285,1.481240642857143,-3.9429537142857143,-4.086589785714286,0.1921114642857143
823,8.230000477,1.2478573666666668,-0.0843545183333333,1.7906584499999998,-4.10535165,-3.642711166666667,-0.1937403883333333
824,8.240000477,0.9961905428571428,-0.12138339,2.2690131428571427,-3.8932131571428568,-2.4043383714285715,-0.7869894357142856
825,8.250000477,0.8535863999999999,-0.11842154,2.3992255,-3.6453838,-1.9226418,-0.8829797
826,8.260000477,0.46557596,-0.098420374,2.659149199999999,-3.163687085714286,-1.4995863428571428,-0.8452817257142857
827,8.270000477,0.3001496266666666,-0.110905858,2.5477351166666664,-1.9111883833333332,-1.34192965,-0.4285093566666667
828,8.280000477,0.3817208757142857,-0.1238835342857142,2.4026401857142856,-1.1616788,-1.5170392,-0.13041589
829,8.290000477,0.5018026416666667,-0.0928458611666666,2.34775395,-0.5954742916666667,-1.6937777166666663,-0.0009162711666666
830,8.300000477,0.5586780457142857,-0.0168041144285714,2.299001757142858,-0.1923732637142857,-1.7006424285714286,0.0456826488571428
831,8.310000477,0.5816846,0.0405075921428571,2.2847675,0.0919325085714285,-1.5294307,0.0615646771428571
832,8.320000477,0.6427001,0.0962810266666666,2.2487338833333332,0.307968815,-1.1601007666666667,0.0717745543333333
833,8.330000477,0.8129960785714285,0.1372902328571428,2.1012157857142855,0.4380211114285714,-0.3290285128571428,0.0355600367142857
834,8.340000477,0.8621539500000001,0.14293517,2.0775907,0.41812494,0.06994201,-0.016798299
835,8.350000477,0.837244,0.14952092,2.0363383,0.3626251114285714,0.9453734585714284,-0.1445526484285714
836,8.360000477,0.7711119999999999,0.11390909,2.0575593,0.30450734,1.9319571,-0.24403349
837,8.370000477,0.771112,0.11390909,2.0575593,0.30450734,1.9319571,-0.24403349
838,8.380000477,0.6988125714285714,0.0294572942857142,2.3370091,0.45180881,2.4440216285714285,-0.2766701728571428
839,8.390000477,0.8337071833333334,-0.0027847152833333,2.3698639333333333,1.3415223833333334,2.1966577,-0.3045073599999999
840,8.400000477,0.9726525142857144,-0.0089203810714285,2.2287364285714286,1.7899134714285714,2.246281785714286,-0.4607969999999999
841,8.410000477,0.9788324666666668,-0.022531802,1.9966713833333336,2.0307618,2.5711070333333335,-0.6370119000000001
842,8.420000477,0.8147949285714285,-0.0241346831428571,1.664234742857143,2.1119171142857143,3.3039202142857143,-0.8267817857142857
843,8.430000477,0.7280404583333334,-0.0320039,1.5638209333333333,2.0101964000000003,3.73945425,-0.8237275333333334
844,8.440000477,0.56268525,-0.05131397,1.4879526,1.8157434,4.121234,-0.7351547
845,8.450000477,0.5306276914285715,-0.0636883885714285,1.5465623,1.813125514285714,4.2283938999999995,-0.6616784857142858
846,8.460000477,0.5340708,-0.085330185,1.5821197666666666,2.0116218,4.1310072,-0.5091411666666666
847,8.470000477,0.58787402,-0.0650342828571428,1.4983277857142858,2.094987957142857,3.869215714285714,-0.4946554
848,8.480000477,0.6234560499999999,-0.0208193046666666,1.4607508666666664,2.1504877,3.632556,-0.5396836
849,8.490000477,0.6828360285714286,0.0203234861428571,1.3743833142857145,2.067936142857143,3.425566028571428,-0.7032161214285715
850,8.500000477,0.6473853666666667,0.0074902746666666,1.3762794333333332,1.9672336,3.6146377666666663,-0.8540663
851,8.510000477,0.5580509,-0.023751386,1.4525847000000005,1.9635685428571428,3.984927628571429,-0.9845549
852,8.520000477,0.4946368814285714,-0.0609007651428571,1.6141577428571428,2.2239639714285713,4.101512357142857,-1.0397057
853,8.530000477,0.4535325833333333,-0.1307850666666666,1.6504875,2.6955672666666666,4.058316533333333,-1.1110293166666667
854,8.540000477,0.3261775842857143,-0.1776192457142857,1.5059502285714286,3.2526308,3.927507928571429,-1.1589081
855,8.550000477,0.2138996833333333,-0.1636934873333333,1.2083275666666666,3.702447083333333,3.69893475,-1.10593895
856,8.560000477,0.1625661071428571,-0.0714370925714285,0.6532916142857143,3.6072712142857144,3.406717,-0.9583757142857144
857,8.570000477,0.21150625,-0.035459384,0.5051819,3.1628652833333333,3.31593335,-0.8770748833333334
858,8.580000477,0.3424502885714285,0.0603955085714285,0.4494513142857142,2.494656557142857,3.6028862285714287,-0.9262626
859,8.590000477,0.2964458571428571,0.1284395485714285,0.4215577028571428,1.8506491,3.9529889714285713,-1.0075925857142858
860,8.600000477,0.13715231,0.1113784499999999,0.9554520733333334,0.8921424333333333,4.251955,-1.1399427333333334
861,8.610000477,0.1185565671428571,0.0520108728571428,1.5778402714285715,1.0185005571428571,4.104304628571429,-1.1369176
862,8.620000477,0.12715172,-0.03839655,2.0286955666666664,1.877235533333333,3.886261133333333,-1.1199884333333332
863,8.630000477,0.1019615185714285,-0.0915950671428571,2.0989595714285714,2.8215472285714287,3.681947228571429,-1.092587571428571
864,8.640000477,0.0526097728333333,-0.13658318,1.7476426166666668,4.010746666666667,3.4609078333333336,-0.9884526566666666
865,8.650000477,0.0228018517142857,-0.1461539942857142,1.2112247785714283,4.668553,3.256274,-0.84999394
866,8.660000477,0.1163613157142857,-0.1714167914285714,0.7626620742857142,4.979561314285715,3.326608785714286,-0.6690086285714285
867,8.670000477,0.2347799633333333,-0.1538910866666666,0.21924044,4.9257195,3.7109480833333337,-0.5985284999999999
868,8.680000477,0.29972567,-0.1114524942857142,-0.1813955914285714,4.468325857142857,4.220016628571428,-0.6468436285714285
869,8.690000477,0.3178742316666667,-0.0664164798666666,-0.3828576983333333,3.943935533333333,4.504845883333334,-0.7479825166666667
870,8.700000477,0.2405148922857143,0.011716712,-0.4454528199999999,3.218074257142857,4.490883714285714,-0.9529654
871,8.710000477,0.0147620424999999,0.0427463983333333,-0.4246233533333333,2.6853864,4.3040807333333335,-1.1016631
872,8.720000477,-0.1741173014285714,0.0376851271428571,-0.3612057371428571,2.390987085714286,3.782824342857143,-1.0243472
873,8.730000477,-0.27364403,0.050948095,-0.32773253,2.309308,3.4896176000000003,-0.953838
874,8.740000477,-0.310262,0.0670466,-0.30578002,2.249619642857143,3.1028641571428572,-0.8323666571428571
875,8.750000477,-0.24844654,0.1092528905714285,-0.2859095342857142,2.2286763,2.5782335,-0.6386408
876,8.760000477,-0.1984058916666666,0.2113537866666666,-0.5540668833333334,2.0586571,2.459933,-0.5402943916666666
877,8.770000477,-0.1720309528571428,0.3553212414285714,-0.7654235857142858,1.5200934285714285,2.4867811428571427,-0.5560891471428572
878,8.780000477,-0.1533321266666666,0.4440807666666666,-0.7104784466666666,0.87951828,2.519185,-0.6569662100000001
879,8.790000477,-0.1519470285714285,0.4079637028571429,-0.4382877628571428,0.4744974457142857,2.457634771428572,-0.8440600214285714
880,8.800000477,-0.195732975,0.2988385766666667,-0.1283103361666666,0.4221972733333333,2.2803437333333334,-1.0688809
881,8.810000477,-0.3667156585714286,0.0924357075014285,0.024335046,0.8324539142857142,2.0579661428571425,-1.2149315857142855
882,8.820000477,-0.5480764214285714,-0.0454904598785714,0.0071127871428571,1.4741926142857142,1.8189940285714288,-1.2243560999999998
883,8.830000477,-0.7515073,-0.15845437,-0.13738607,2.14478655,1.5439164333333333,-1.0450578166666666
884,8.840000477,-1.163452,-0.2365382,-0.8734351,2.7882123,1.1377031,-0.5543439
885,8.850000477,-1.22051335,-0.2081981166666666,-1.31055415,2.705951583333333,0.8872556166666666,-0.1654377933333333
886,8.860000477,-1.0886044485714286,-0.1295241085714285,-2.037775742857143,1.6850221285714286,0.4748464642857143,0.5607141514285715
887,8.870000477,-0.9047174183333334,-0.0783328255,-2.202704766666667,0.916779885,0.3794379616666667,0.7329148999999999
888,8.880000477,-0.6827793685714286,-0.010187877,-2.0179792,-0.1770148114285714,0.2530216574285714,0.7841096857142856
889,8.890000477,-0.5985845857142857,0.0425634585714285,-1.6038653285714286,-1.1568574714285715,-0.1033640842857143,0.6587987714285715
890,8.900000477,-0.6206053,0.087464452,-1.14107265,-1.6418047666666666,-0.5889585666666667,0.5366292933333333
891,8.910000477,-0.6810327428571429,0.11694062,-0.7866879185714285,-1.771304357142857,-1.0156208142857144,0.5181293714285714
892,8.920000477,-0.7233450416666667,0.152737565,-0.5102025366666667,-1.6945412,-1.4170638,0.586718795
893,8.930000477,-0.7083035000000001,0.17491874,-0.28529102,-1.4457882142857144,-1.8083260142857145,0.7251193271428572
894,8.940000477,-0.6490013,0.18784632,-0.22574489,-1.1566393,-2.0606933,0.85915667
895,8.950000477,-0.5659476457142858,0.17425668,-0.2491608928571428,-0.7702347828571429,-2.213579557142858,0.9827223242857144
896,8.960000477,-0.5595665885714286,0.1630670128571428,-0.3740157314285714,-0.4988440342857143,-2.2881029714285717,1.1043682
897,8.970000477,-0.619467,0.15285445,-0.5432430666666667,-0.5128062800000001,-2.3457552666666666,1.2171131
898,8.980000477,-0.6524509428571429,0.1510889557142857,-0.6244615142857144,-0.6642964142857143,-2.443607142857143,1.357084414285714
899,8.990000477,-0.6452155066666667,0.1511876833333333,-0.6512676666666667,-0.9294041333333332,-2.5815423333333336,1.536382666666667
900,9.000000477,-0.6031101000000001,0.1610590471428571,-0.6460176771428572,-1.129762,-2.665432,1.6593666
901,9.010000477,-0.54327864,0.1766261633333333,-0.6106454,-1.5693175666666666,-2.7189828666666664,1.8582991333333332
902,9.020000477,-0.4671744514285714,0.2106743171428571,-0.4577662857142857,-1.9093559,-2.7423987,2.0038843
903,9.030000477,-0.2470483771428571,0.2219815914285714,-0.1368067588571428,-2.4121703714285716,-2.8382144857142855,2.1901055
904,9.040000477,-0.19458452,0.21516497,-0.056619156,-2.4823306,-2.8486862,2.2005773
905,9.050000477,-0.0276104957142857,0.2453714571428571,0.2982447571428571,-2.5085097714285713,-2.879403142857143,2.124832242857143
906,9.060000477,0.030428605,0.25129515,0.41904885,-2.4456797,-2.9195445,2.0515306
907,9.070000477,0.0312648914285714,0.3145784614285714,0.5119157614285715,-2.228218,-3.002445271428571,1.9037054142857144
908,9.080000477,0.055552024,0.3547768,0.53399456,-2.132111483333333,-3.1080927000000003,1.8141145
909,9.090000477,0.2002207371428571,0.3403813628571428,0.4549263828571429,-2.0866760999999996,-3.120425942857143,1.6378996428571428
910,9.100000477,0.22148504,0.3227932285714286,0.3466273685714285,-2.1516004714285715,-3.0185017000000003,1.401589057142857
911,9.110000477,0.1403232311666666,0.3092152166666667,0.2878979,-2.3129223166666666,-2.9164903333333334,1.17781535
912,9.120000477,0.0498374012857142,0.27249412,0.3747605571428571,-2.6071178285714285,-2.933157642857143,1.0719060142857144
913,9.130000477,0.03961105,0.216105095,0.5090490499999999,-2.8260338,-2.964339883333333,1.0415964000000002
914,9.140000477,0.0244657142857142,0.2243815514285714,0.6212514414285714,-2.899451857142857,-2.970332014285714,1.0835993428571429
915,9.150000477,0.1446121,0.2021328742857142,0.8011399499999999,-3.1019042285714287,-3.0537562714285715,1.2459103142857144
916,9.160000477,0.2988894,0.16711341,0.95350075,-3.05265825,-2.9394988166666667,1.2185385
917,9.170000477,0.3663410485714286,0.2066409728571428,1.2295272785714284,-2.772395714285714,-2.862299371428571,1.1019248857142858
918,9.180000477,0.3118169666666666,0.25732193,1.3168146,-2.3662694666666666,-2.9684122999999993,1.0016877333333334
919,9.190000477,0.1486628657142857,0.34829125,1.2543805714285714,-2.0461856,-3.256426757142857,1.0361278285714286
920,9.200000477,0.15010022,0.4603622466666666,1.1157155,-1.9492644666666668,-3.7317169333333338,1.2659809333333332
921,9.210000477,0.3895567,0.4316759,1.0355569857142857,-2.0814401714285715,-3.752500228571429,1.3295091142857145
922,9.220000477,0.5643927,0.3957853,1.0369507,-2.2856376,-3.5316133,1.2684244
923,9.230000477,0.5479718928571429,0.3572812999999999,1.099611157142857,-2.3578923428571428,-3.2870999714285714,1.1911085285714285
924,9.240000477,0.4293325471428572,0.2436204771428571,1.2717510714285714,-2.291571757142857,-2.748856257142857,1.0263543428571429
925,9.250000477,0.37599754,0.18906592,1.277849,-2.1109354,-2.6275594,0.98010445
926,9.260000477,0.2898601085714286,0.14144117,1.1162019714285714,-1.7754930000000002,-2.5945737714285717,0.9876090857142856
927,9.270000477,0.3026192933333333,0.18696213,0.8742684666666666,-1.6593156333333334,-2.9716701666666663,1.0851701666666669
928,9.280000477,0.4233435142857142,0.2431152242857142,0.7377564742857142,-1.8549031,-3.5436995,1.1776699571428573
929,9.290000477,0.6243860166666666,0.3002715883333333,0.6960416583333333,-2.2679231666666664,-4.082343166666667,1.2116155833333333
930,9.300000477,0.9184507714285716,0.3214995971428571,0.6549293428571429,-3.0266827857142857,-4.466711285714286,1.147127547142857
931,9.310000477,1.1647274833333334,0.2298558766666666,0.7153009,-3.74841325,-4.386137666666667,0.9096533666666669
932,9.320000477,1.2127014,0.0673209997142857,1.1473491714285713,-4.687489285714286,-4.107184085714286,0.4411626285714285
933,9.330000477,1.1723243999999995,0.027989438,1.3381268,-4.848753,-4.0338826,0.2935121
934,9.340000477,1.0290539,-0.052289635,1.7964462,-4.871965,-3.7418976,0.030847786
935,9.350000477,0.7402870871428571,-0.0707140557142857,2.1436746,-4.084844885714285,-3.1211457714285715,-0.1541516762857142
936,9.360000477,0.5560995333333333,-0.0796387913333333,2.2196111,-3.3739638333333333,-2.7578734666666667,-0.2202104433333333
937,9.370000477,0.4280084485714285,-0.0929496714285714,2.171716414285714,-2.545160485714286,-2.5916068571428568,-0.1787600914285714
938,9.380000477,0.3624079271428572,-0.1022185042857143,2.054322885714286,-1.8254080142857143,-2.634889657142857,-0.0818971671428571
939,9.390000477,0.3786857316666667,-0.1069168043333333,1.92216495,-1.2595925383333333,-2.7507471166666666,0.0082464383333333
940,9.400000477,0.4068922114285714,-0.1025321142857143,1.5663325857142856,-0.8035695828571429,-2.782540171428572,0.0854749871428571
941,9.410000477,0.3848598583333333,-0.07638149,1.3624321,-0.59282725,-2.594980833333333,0.2128802749999999
942,9.420000477,0.3602431342857142,-0.0528123178571428,1.3143319714285713,-0.6164758,-2.4615835428571424,0.3153280857142858
943,9.430000477,0.33450124,-0.016433885,1.3063872,-0.7033906,-2.1987448,0.5635066
944,9.440000477,0.40136486,0.02042802,1.3876724,-0.69483876,-2.041146,0.7638644999999998
945,9.450000477,0.6385128714285714,0.0673602014285714,1.4936455285714283,-0.4925610514285714,-1.8245571285714284,0.9111659357142856
946,9.460000477,0.7630425166666667,0.0845679408333333,1.4957834333333333,-0.31977853,-1.6709727,0.9190197
947,9.470000477,0.8568313285714285,0.0957982714285714,1.4390517428571428,-0.05955761,-1.3557755,0.8542698599999999
948,9.480000477,0.8675201933333333,0.1319589133333333,1.2901159,0.0953939799999999,-1.07336045,0.78239352
949,9.490000477,0.8972779742857143,0.1572304242857143,1.1581816285714286,0.1392295485714285,-0.9231211142857144,0.6746807942857143
950,9.500000477,0.9246423433333332,0.1684549516666666,1.07311644,0.0585395274999999,-0.9548560666666668,0.5612668016666666
951,9.510000477,0.96389776,0.16784516,0.99036264,-0.12675081,-0.9782719,0.39124766
952,9.520000477,0.93517648,0.15982204,1.0153902342857142,-0.3110521471428571,-0.8529609542857143,0.2666348314285714
953,9.530000477,0.882399,0.14756958,1.0794227,-0.47859883,-0.6985038500000001,0.15301724
954,9.540000477,0.7890312371428571,0.1246414171428571,1.2047262142857142,-0.5368911071428571,-0.5100138242857143,0.1149701771428571
955,9.550000477,0.7727889916666667,0.1217144199999999,1.3358705999999998,-0.53846186,-0.38575006,0.12980504
956,9.560000477,0.9373412428571428,0.14775688,1.4407895714285712,-0.4803440942857143,-0.1735242599999999,0.0825080148571428
957,9.570000477,1.0354160666666667,0.1649079966666666,1.4744660666666665,-0.5295027666666666,0.1131085466666666,-0.0339020253333333
958,9.580000477,1.101105228571429,0.1650357614285714,1.6037128571428572,-0.6812255714285714,0.5418651428571428,-0.2042411457142857
959,9.590000477,1.1249743,0.18004099,1.8247405,-0.78320795,1.1028847333333334,-0.4101839333333333
960,9.600000477,1.195949585714286,0.1354782828571428,2.2375478428571425,-0.5988484971428572,1.5063057428571427,-0.5934381571428571
961,9.610000477,1.1498754714285713,0.1241100257142857,2.572654385714286,0.0130459514285714,1.854706857142857,-0.8196261285714286
962,9.620000477,1.124486366666667,0.08428337,2.593830066666667,0.65065414,2.1921780666666666,-0.9416210333333334
963,9.630000477,1.0859387571428571,0.0370012894285714,2.4214043142857142,1.0038402228571428,2.620120157142857,-0.9711162342857144
964,9.640000477,1.0554274,0.004573438,2.2401001,1.1682454,3.2965898999999994,-0.97216344
965,9.650000477,0.9355685357142856,-0.0481082081428571,2.133987585714286,1.0972125285714287,3.9877201,-0.9133475828571428
966,9.660000477,0.8427495014285714,-0.0782449842857142,2.2960094142857144,1.0797597571428572,4.956349071428571,-0.7360273142857142
967,9.670000477,0.83675617,-0.08256579,2.4238913,1.2464339,5.2451925,-0.6374191
968,9.680000477,0.8290989,-0.0852140328571428,2.535997242857143,2.4904679714285716,5.103825428571429,-0.4491036171428571
969,9.690000477,0.9406951571428572,-0.1031244814285714,2.3572934142857145,3.3297721285714283,4.655289057142857,-0.4293819885714285
970,9.700000477,1.1350764333333334,-0.0838666816666666,2.0172212000000003,4.053531466666667,4.0703298000000006,-0.6056550733333333
971,9.710000477,1.1917202571428571,-0.0606394254285714,1.671020757142857,4.347072571428571,3.6494850857142858,-0.9417955857142858
972,9.720000477,1.0902464833333332,0.0357642816666666,0.9572305916666664,4.3069315,3.4932828,-1.2323843
973,9.730000477,0.9746431285714284,0.1198676157142857,0.5432459642857143,3.2002723714285715,3.679678428571429,-1.5802182000000002
974,9.740000477,0.9184987,0.14756958,0.45295325,2.4282196000000003,3.9316674166666665,-1.6758593833333333
975,9.750000477,0.83895576,0.1202509242857142,1.0048539428571428,1.4766360000000005,4.424039642857143,-1.7474158714285717
976,9.760000477,0.7234481285714286,0.0669464202857142,1.5729184285714286,1.3591788142857142,4.817948800000001,-1.8079769285714284
977,9.770000477,0.6870827500000001,-0.047375734,1.8982915666666669,1.8829366333333333,4.96013075,-1.82592425
978,9.780000477,0.5805739342857142,-0.1425518771428571,1.7187587714285717,2.682099357142857,4.858089885714286,-1.8547504428571429
979,9.790000477,0.4478310033333333,-0.2042598833333333,1.3702526666666668,3.15920015,4.714569999999999,-1.792938516666667
980,9.800000477,0.3894826557142857,-0.2125995071428571,1.1266031714285716,3.430649142857143,4.523171228571428,-1.6132039857142857
981,9.810000477,0.38965687,-0.20214595,1.0023146,3.457701,4.4315443,-1.5329212
982,9.820000477,0.48752844,-0.17552854,0.55302006,3.0679803,4.3545775,-1.2983558
983,9.830000477,0.5418477857142857,-0.1073756028571428,0.4995413542857143,2.4843593857142854,4.5106052142857145,-1.2501861428571428
984,9.840000477,0.5490208416666668,-0.0899645999999999,0.6818894000000001,2.0413498,4.717828,-1.2653700666666663
985,9.850000477,0.4760208228571428,-0.1115265485714285,0.924361357142857,2.0145306714285716,4.891948571428571,-1.2831719428571429
986,9.860000477,0.3638322,-0.1528087166666666,1.1837224666666668,2.42272205,4.905765,-1.1936973
987,9.870000477,0.2712614714285714,-0.2533771485714285,1.1545186428571428,3.5659080000000003,4.695255628571429,-0.9658804
988,9.880000477,0.2731714216666667,-0.286774865,0.83536885,4.210289833333333,4.482448033333333,-0.8100852433333333
989,9.890000477,0.3138815342857143,-0.23764452,0.3104013857142856,4.566977471428571,4.189474242857143,-0.6836689657142857
990,9.900000477,0.4100718514285714,-0.1654408314285714,-0.2221688928571428,4.388762971428571,3.953861657142857,-0.6606313328571428
991,9.910000477,0.4299336,-0.04472822,-0.64012885,3.897511,3.9978426,-0.74859333
992,9.920000477,0.4221282885714285,0.0671511314285714,-0.8004256,2.7606368857142862,4.155615857142857,-0.9220739042857142
993,9.930000477,0.3599701966666666,0.0476044023333333,-0.4802718933333333,1.882122216666667,4.259692783333333,-1.1556211333333333
994,9.940000477,0.0748693642857142,0.0333294707142857,-0.1630147271428571,1.5766404,4.190172242857143,-1.3664216428571427
995,9.950000477,-0.33076115,0.0897359283333333,0.0309672525,1.7025331999999995,3.75228195,-1.3429477
996,9.960000477,-0.3856758142857143,0.1504704528571428,0.0502424782857142,1.8965499,3.219274014285714,-1.0969507342857143
997,9.970000477,-0.2810094342857142,0.2210364199999999,-0.0233506628571428,2.2288507857142856,2.396550128571428,-0.6592351
998,9.980000477,-0.17190027,0.27718082,-0.21473813,2.2439473333333333,2.1978793333333333,-0.5523077333333334
999,9.990000477,-0.0740243542857142,0.36763904,-0.4141400028571428,1.9825919285714284,2.2129468,-0.5670844242857143
