id,timestamp,acc_x,acc_y,acc_z,gyro_x,gyro_y,gyro_z
0,2.38e-07,-0.6446020499999999,0.5158533071428572,0.8104131571428572,0.5710113,0.4868889142857142,0.2538942942857143
1,0.010000238,-0.5717711457142858,0.5048596200000001,0.8146860314285714,0.5231906828571429,0.5057379285714285,0.3149790257142857
2,0.020000238,-0.5480400983333333,0.4948053166666666,0.8229849816666667,0.54355224,0.5052725066666667,0.2910687266666666
3,0.030000238,-0.529604055,0.480576815,0.85337293,0.5958814849999999,0.488372385,0.23456535
4,0.040000238,-0.5429759428571429,0.4775627142857143,0.8514477628571429,0.6680487199999999,0.4655965042857142,0.1997906828571428
5,0.050000238,-0.505745965,0.46960056,0.8242706649999999,0.7473716,0.4205683449999999,0.1786728199999999
6,0.060000238,-0.4682372457142857,0.46041884,0.7917273628571427,0.7975483585714286,0.3895023914285714,0.15371535
7,0.070000238,-0.4462716771428571,0.46111576,0.7055159142857143,0.8202369785714286,0.3671628342857143,0.100658906
8,0.080000238,-0.4320373799999999,0.46947864,0.6208594,0.8298359999999999,0.32527617,0.006413896
9,0.090000238,-0.4293194971428571,0.5157836,0.5435334485714286,0.7331475999999999,0.0179327299999999,-0.1691610557142857
10,0.100000238,-0.4604232,0.52104671,0.39407786,0.4783952333333334,-0.2334454666666666,-0.37516202
11,0.110000238,-0.4905730285714285,0.4888525785714285,0.37703854,0.13922954,-0.0750905796571428,-0.3766746057142857
12,0.120000238,-0.5076922,0.45988456,0.4706981766666667,-0.0233140033333333,0.0516165937333333,-0.3539859933333333
13,0.130000238,-0.5282712571428572,0.4594431885714286,0.5845376071428572,-0.12011875,0.1367861542857142,-0.3264105942857143
14,0.140000238,-0.5731606285714286,0.4526745114285714,0.6917389857142856,-0.0934159981714285,0.1242201514285714,-0.2761465928571429
15,0.150000238,-0.592382125,0.4243591233333333,0.7563449416666668,0.0585395275999999,0.0878601973333333,-0.1813198233333333
16,0.160000238,-0.5585387214285714,0.3863117371428571,0.82129795,0.2957809728571429,-0.03826522,-0.09393958
17,0.170000238,-0.5151062833333333,0.3825883916666666,0.7695215233333333,0.589569425,-0.27457585,-0.0467298133333333
18,0.180000238,-0.4465199342857143,0.4002803214285714,0.5997257528571429,0.7326239857142857,-0.4478819342857143,-0.0412321885714285
19,0.190000238,-0.35468534,0.40383455,0.40706643,0.7357655,-0.4981459399999999,-0.06322269
20,0.200000238,-0.2778603042857143,0.4275641414285714,0.3523550714285714,0.5368038599999999,-0.2997078305714286,-0.1667176742857143
21,0.210000238,-0.2842500342857142,0.4174241628571428,0.3619592928571428,0.2854838228571428,-0.0955103324285714,-0.3614906771428571
22,0.220000238,-0.3420626499999999,0.4020458033333333,0.3890979166666666,0.1754149733333333,-0.094986748,-0.47859884
23,0.230000238,-0.4266668828571429,0.3867472985714286,0.3887030028571429,0.1327720157142857,-0.2180288399999999,-0.5417778999999999
24,0.240000238,-0.50346432,0.36485868,0.3889454699999999,0.1269544233333333,-0.34054735,-0.51280625
25,0.250000238,-0.5553808457142857,0.3428597285714286,0.4074018071428571,0.1484795157142857,-0.4878487957142857,-0.4091367642857142
26,0.260000238,-0.5496662266666666,0.3459958,0.3607832333333333,0.18152344,-0.6602240733333332,-0.2814987833333333
27,0.270000238,-0.5052995257142857,0.3639410999999999,0.2821898085714285,0.15511158,-0.7494659628571428,-0.2222175
28,0.280000238,-0.33882058,0.3894231333333333,0.2337331566666666,-0.03593818,-0.8703555266666667,-0.23670331
29,0.290000238,-0.15791426,0.3976277114285714,0.2163366685714285,-0.2288495628571428,-0.909857,-0.3503209057142857
30,0.300000238,-0.0506867557142857,0.3708404457142857,0.1572478521428571,-0.4084386485714285,-0.9067154857142856,-0.6204899342857143
31,0.310000238,-0.06620305,0.3513619533333333,0.1009611766666666,-0.53805462,-0.9371415133333332,-0.8182299
32,0.320000238,-0.1227510642857142,0.3271009628571429,0.0816336857142857,-0.6580134,-1.0072434914285713,-0.9587247428571428
33,0.330000238,-0.1803357233333333,0.2995398266666667,0.11324848,-0.76569705,-1.2103938333333333,-1.0723424
34,0.340000238,-0.2118372671428571,0.2810791057142857,0.1359182114285714,-0.7903054857142857,-1.4161620857142856,-1.1077715
35,0.350000238,-0.24949625,0.2561735,0.13717264,-0.7766923,-1.6831895999999995,-1.1004413
36,0.360000238,-0.31635994,0.22397648,0.1481489,-0.74004143,-1.8432316,-1.0430217
37,0.370000238,-0.2935711514285714,0.2141239999999999,0.1523303171428571,-0.6573152642857144,-1.9772689428571424,-0.95191818
38,0.380000238,-0.2043411899999999,0.17052823,0.037593655,-0.6386408,-2.174311,-0.8121214499999999
39,0.390000238,-0.1427435185714285,0.1256562828571428,-0.0223314431428571,-0.7904799914285714,-2.265414314285714,-0.7569706642857142
40,0.400000238,-0.1245499466666666,0.0928407833333333,-0.045134749,-0.9762357333333332,-2.510684,-0.7131641666666666
41,0.410000238,-0.1285223142857142,0.0533437085714285,-0.0461917207142857,-1.1359358857142858,-2.826521157142857,-0.6293908
42,0.420000238,-0.1349570566666666,0.0122161603333333,-0.0174705326666666,-1.2561564666666667,-3.053523666666667,-0.5107701
43,0.430000238,-0.1377127285714285,-0.0129972738571428,0.0371493788571428,-1.3763479714285716,-3.271218,-0.3363586885714286
44,0.440000238,-0.0880974735714285,-0.0372713385714285,0.0953017285714285,-1.517715457142857,-3.5087938571428574,-0.1119159371428571
45,0.450000238,0.0259568,-0.0543222749999999,0.1874398066666666,-1.7464632,-3.737418066666667,0.14446538
46,0.460000238,0.2248563257142857,-0.0704527167142857,0.2844373371428571,-2.0604968857142856,-3.8642414857142855,0.3353987828571428
47,0.470000238,0.4261267771428571,-0.0891515465714285,0.3911944257142857,-2.414788371428571,-3.784635028571429,0.3481392957142857
48,0.480000238,0.6390922,-0.11549455,0.5945164,-2.9439274500000003,-3.406186116666667,0.1621799471666666
49,0.490000238,0.5953221571428572,-0.20073471,1.0906255142857142,-3.1460596714285716,-2.9612565857142856,-0.1089489725714285
50,0.500000238,0.5177741,-0.22751327,1.2949232,-3.02802075,-2.7674434666666667,-0.2330382283333333
51,0.510000238,0.25727982,-0.2220425785714286,1.4169815714285714,-2.4172316285714284,-2.7767808142857144,-0.2644532242857143
52,0.520000238,0.1367457833333333,-0.1890455833333333,1.2882458666666663,-1.8955100333333332,-3.141536666666666,-0.173989661
53,0.530000238,0.1010991071428571,-0.1585937528571428,1.0604278,-1.4503477285714286,-3.776803285714286,0.0181072607142857
54,0.540000238,0.2741579714285714,-0.1499521357142857,0.8382458,-1.259065257142857,-4.581027128571428,0.2931630557142857
55,0.550000238,0.5864468133333333,-0.1404045333333333,0.7290669333333334,-1.5074183,-5.081281966666666,0.41975387
56,0.560000238,0.9756536485714288,-0.1561937757142857,0.6828272857142856,-2.128737342857143,-5.3508694,0.3846156021428571
57,0.570000238,1.5073949333333332,-0.2382964166666666,1.0055211166666669,-3.1982436,-5.101847266666666,-0.0017307375
58,0.580000238,1.6835957,-0.3404118285714285,1.6299296857142858,-4.1366793714285715,-4.438067142857142,-0.5766834714285715
59,0.590000238,1.2702773333333333,-0.4602605833333333,2.6215553666666667,-4.546994333333333,-3.084880533333333,-1.2425651666666668
60,0.600000238,0.6303721400000001,-0.4635244114285714,3.340447628571429,-4.003514857142857,-1.9715095714285715,-1.4657279285714286
61,0.610000238,0.1494555868571428,-0.4003326028571428,3.4753770571428575,-2.7109620142857147,-1.2990539,-1.239539945714286
62,0.620000238,0.011403104,-0.38151616,3.3305297,-1.7615308,-1.0381349,-0.97949356
63,0.630000238,-0.0992218177142857,-0.3428074457142857,2.818025942857143,-0.3155898557142857,-1.080196057142857,-0.6332304428571429
64,0.640000238,-0.1131468499999999,-0.31667498,2.3850781333333333,0.5861079400000001,-1.4290772,-0.41812496
65,0.650000238,-0.1446208071428571,-0.2680949057142857,1.667649542857143,0.9610809042857144,-1.7090197857142857,-0.2728305628571428
66,0.660000238,-0.16552795,-0.21946402,1.2822394,0.98376954,-1.8835475,-0.14629792
67,0.670000238,-0.15211253,-0.1472342,0.9281334,0.5891622,-1.9409672,0.101706065
68,0.680000238,0.0062808543,-0.06716855,0.8273349,-0.070552856,-1.8102459,0.3668137799999999
69,0.690000238,0.2783749757166666,0.0080644958333333,1.1124633166666666,-1.0440652333333331,-1.1877925433333332,0.5443667333333334
70,0.700000238,0.5051557857142858,0.0218566765714285,1.670676742857143,-1.2503389571428571,-0.7707583142857143,0.5195256142857143
71,0.710000238,0.6066919000000001,0.0129479103333333,2.0523656999999997,-1.0893698,-0.5667644333333334,0.42769489
72,0.720000238,0.6825572428571428,-0.0196919145714285,2.1354687142857145,-0.5053016102857143,-0.4159433685714285,0.2476112871428571
73,0.730000238,0.6800854,-0.0281418845,1.95470245,-0.0174091433333333,-0.3289412466666667,0.0703492451666666
74,0.740000238,0.6508959742857143,-0.0162161028571428,1.7715668142857144,0.3699552928571429,-0.2550287257142857,-0.1620054171428571
75,0.750000238,0.5872032285714285,0.0115424856428571,1.5538799,0.4378465942857142,-0.1921987274285714,-0.3634104857142857
76,0.760000238,0.5091658666666666,0.031566883,1.4441087,0.2523817233333333,0.0341056359999999,-0.5523077333333334
77,0.770000238,0.3976408,0.004146583,1.5769648428571428,0.0430647305714285,0.3786816657142857,-0.6440511571428571
78,0.780000238,0.2438760066666666,-0.027166219,1.8998262333333331,-0.0896927406666666,0.9597428733333334,-0.6447492533333333
79,0.790000238,0.16854642,-0.036435053,2.0334113,-0.03268033,1.1144909,-0.58122116
80,0.800000238,0.23608086,-0.0924850726666666,2.1127147666666666,0.1269544216666666,1.4700293166666667,-0.40590802
81,0.810000238,0.2915631885714286,-0.1329607214285714,2.0945254714285713,0.2237009914285714,2.057268071428571,-0.3038965057142856
82,0.820000238,0.2688484428571429,-0.1712425699999999,2.112662457142857,0.2900215471428571,2.702322657142857,-0.22675522
83,0.830000238,0.2212629,-0.17455287,2.1832676,0.37292224,3.0889018,-0.15607147
84,0.840000238,0.2769151028571429,-0.19996812,2.255527914285714,0.8855103785714286,3.2286986285714288,-0.018369049
85,0.850000238,0.3247445533333333,-0.2049814799999999,2.235394633333333,1.2356422333333332,3.1953929999999997,0.0324767133333333
86,0.860000238,0.32279322,-0.15943004,2.1786027,1.6459279,2.9826145,0.05283829
87,0.870000238,0.4759729,-0.1404045333333333,1.8196285,1.9647902,2.6914438,0.0341056376666666
88,0.880000238,0.4982738457142857,-0.1325208042857142,1.6072322142857145,1.8351160285714283,2.9492795714285713,-0.0044068267142857
89,0.890000238,0.428957965,-0.1003717125,1.6275492500000002,1.5933950333333335,3.279893466666666,0.025553778
90,0.900000238,0.4305259885714286,-0.1323727028571428,1.8432260285714288,1.4727963714285717,3.5327260714285713,0.1090362357142857
91,0.910000238,0.5104304742857143,-0.1863784628571428,2.1111902428571425,1.668093,3.7194708285714286,0.1811162085714285
92,0.920000238,0.5884083333333333,-0.2233768466666666,2.230018366666666,2.0751500000000003,3.8650852,0.1876319166666666
93,0.930000238,0.5505025257142857,-0.2411508257142857,2.0652294714285717,2.6642976714285713,3.9960972571428575,0.1497012114285714
94,0.940000238,0.5239787699999999,-0.2329607466666666,1.8866395833333336,3.0248139,4.040194466666667,0.1424292166666666
95,0.950000238,0.5295605214285715,-0.2026250685714285,1.4281974571428573,3.158211257142857,4.066431871428572,0.1242201571428571
96,0.960000238,0.5639049,-0.1806507899999999,1.1311636,3.025221,4.2140827,0.06872032
97,0.970000238,0.5002600342857143,-0.1205688842857142,1.0842096285714289,2.8733818857142857,4.159978957142857,-0.0124351048571428
98,0.980000238,0.4388191542857143,-0.0662103041428571,1.0072844028571428,2.5717978,3.9468804285714287,-0.1647978628571428
99,0.990000238,0.3896670433333333,-0.041221915,0.9387742933333332,2.4050075,3.904586533333333,-0.2358888466666666
100,1.000000238,0.3627433014285714,-0.0077966218571428,0.8366777428571428,2.1925489857142857,3.9707908571428567,-0.2960427514285714
101,1.010000238,0.4013801349999999,0.0011586042999999,0.80426948,1.8548376666666664,4.107388,-0.3963380533333333
102,1.020000238,0.3202190257142857,-0.0034496785714285,0.9352026571428572,1.630045842857143,4.216002285714286,-0.4887214285714286
103,1.030000238,0.1779067183333333,-0.043600106,1.1224537,1.6489822333333333,4.3718846000000005,-0.50384715
104,1.040000238,0.084364675,-0.06915038,1.1919293,1.8902669,4.4339876,-0.4224009
105,1.050000238,0.0428378632857142,-0.0801266299999999,1.1656778,1.9970778714285715,4.376393428571428,-0.3714387828571429
106,1.060000238,-0.050826136,-0.12796478,1.0574702,2.6623778,4.084583,-0.016798299
107,1.070000238,0.047258858,-0.1311357,0.77266705,2.98124,3.939201399999999,0.1969982399999999
108,1.080000238,0.20126174,0.02396481,0.20804568,2.6739838,3.42914375,0.16828842
109,1.090000238,0.2291161514285714,0.0891166957142857,0.1723750399999999,2.2859213142857144,3.2850710571428574,0.070640122
110,1.100000238,0.2091149942857142,0.1046663871428571,0.3089161028571428,1.755182342857143,3.3196276,-0.1066801088571428
111,1.110000238,0.1244686541666666,0.0779771116666666,0.50527845,1.5885083,3.515680366666667,-0.2024958599999999
112,1.120000238,0.057747275,0.02042802,0.6399154000000001,1.673677842857143,3.685088728571429,-0.2433353599999999
113,1.130000238,-0.2516915133333333,-0.0076325593333333,0.7104276133333333,2.0511233,3.5885748666666664,-0.1316375873333333
114,1.140000238,-0.3857063057142857,-0.038037934,0.56512008,2.495703842857143,3.2866418000000004,0.1011824842857142
115,1.150000238,-0.4352083199999999,-0.037166804,0.34825203,2.82649215,2.854743766666666,0.3653884666666667
116,1.160000238,-0.317091667,0.1090481814285714,-0.120821508,2.8835044,2.3619936000000004,0.6087093
117,1.170000238,0.0950011862857142,0.3231504028571428,-0.2914237885714286,1.818885,1.7089760857142855,0.4505871285714286
118,1.180000238,0.2402274266666666,0.4046475866666667,-0.189126891,1.06643748,1.988562333333333,0.0976337533333333
119,1.190000238,0.170049116,0.4376518171428571,0.3030098601428572,0.4865398285714285,2.3705454571428572,-0.3443869571428571
120,1.200000238,-0.0715895485,0.442388605,0.6253719000000001,0.3024712,2.7264657666666667,-0.7583668666666666
121,1.210000238,-0.3296403314285714,0.3933678957142857,0.7963923,0.4635021714285714,2.8557327285714287,-0.9178852685714286
122,1.220000238,-0.49963284,0.34819105,0.8651418999999999,0.7174401,2.8958743000000005,-0.94406444
123,1.230000238,-0.65687194,0.3067600628571428,0.6792599928571429,1.3593533142857144,2.9461381857142857,-0.5702259285714286
124,1.240000238,-0.7334269,0.2622714,0.47371665,1.6801354,2.9642889999999995,-0.32344362
125,1.250000238,-0.6878232400000001,0.2844591,0.2011397871428571,1.9398328,3.0972790857142853,-0.0113879365714285
126,1.260000238,-0.4914877285714286,0.3055840214285714,-0.0656702128571428,2.003360814285714,3.045269871428572,0.2055501048571428
127,1.270000238,-0.3837673133333333,0.3978789116666666,-0.49187325,1.953795,2.765153,0.18722469
128,1.280000238,-0.2682212371428571,0.47341614,-0.6429861142857144,1.4267210857142858,2.296545714285714,-0.0754396364285714
129,1.290000238,-0.3136870066666666,0.4846827566666667,-0.6565626666666667,0.96788751,2.2096889999999996,-0.3576510733333333
130,1.300000238,-0.4384227914285714,0.4366413328571428,-0.6129408171428572,0.5460538285714286,2.3537907857142857,-0.5204854971428572
131,1.310000238,-0.5953091333333332,0.3798290666666666,-0.3991696366666666,0.3509317533333333,2.3937576666666667,-0.5506788
132,1.320000238,-0.7790393714285715,0.2882528771428571,-0.1145798548571428,0.4884596600000001,2.288691885714286,-0.4260659685714286
133,1.330000238,-0.9093344142857144,0.2376271057142857,-0.0230414132857142,0.9998260714285716,2.0268565714285716,-0.0916707185714285
134,1.340000238,-0.87986845,0.21565282,-0.061741404,1.5494140833333334,1.7064017333333334,0.2796662299999999
135,1.350000238,-0.6753443,0.2361723,-0.2625763,2.050309,1.3918154,0.55251133
136,1.360000238,-0.3897889916666666,0.2886652249999999,-0.9763018916666668,2.2015953666666666,1.1812767833333335,0.6174647866666667
137,1.370000238,-0.3635665214285714,0.3845128485714286,-1.6156431571428571,1.455169,1.0015714142857142,0.3360968814285714
138,1.380000238,-0.4321746099999999,0.4107861699999999,-1.72857655,0.659409565,0.7962394,0.1163663995
139,1.390000238,-0.4958128971428571,0.3774087785714285,-1.592022342857143,-0.0270954528571428,0.5825301071428572,-0.0524019677142857
140,1.400000238,-0.5663048171428572,0.3251844728571428,-1.3025803714285715,-0.5662117957142857,0.2736159402857143,-0.17666575
141,1.410000238,-0.6903248266666666,0.2800976533333333,-0.8993004666666667,-0.7787284666666666,-0.0974301373333333,-0.21267665
142,1.420000238,-0.8158098057142856,0.2642227342857143,-0.6248578728571428,-0.7325367714285714,-0.5798249571428571,-0.1124395281428571
143,1.430000238,-0.8527632,0.26519838,-0.51664597,-0.61400332,-0.8815544333333333,0.0139476791666666
144,1.440000238,-0.7877681,0.3100442185714285,-0.4833775028571428,-0.4422970314285714,-1.1840401857142857,0.1807671557142857
145,1.450000238,-0.6976118333333333,0.3468952549999999,-0.5136783500000001,-0.3855464166666666,-1.3376537166666669,0.2599155133333333
146,1.460000238,-0.7281739857142856,0.4011166142857143,-0.4971588085714286,-0.4997166742857142,-1.4397233142857144,0.2654131214285714
147,1.470000238,-0.7705327,0.4004197,-0.47466183,-0.60443336,-1.4632846,0.2715216
148,1.480000238,-0.7983697,0.3828272199999999,-0.34752026,-0.6225842514285714,-1.4632846,0.2774555428571428
149,1.490000238,-0.7774364714285714,0.3564842285714286,-0.26990252,-0.7580178285714286,-1.4388507285714287,0.38060148
150,1.500000238,-0.7606948,0.3381904666666666,-0.2078271666666666,-0.68832308,-1.4046432666666666,0.4584408866666666
151,1.510000238,-0.773215857142857,0.3292526571428572,-0.2392517628571428,-0.5866315057142858,-1.4273318714285714,0.5518132485714285
152,1.520000238,-0.7864686500000001,0.33199092,-0.2854434833333333,-0.5205436566666667,-1.488533,0.6514686
153,1.530000238,-0.776735192857143,0.3511528942857143,-0.3423283299999999,-0.5108864642857143,-1.6046521428571427,0.7617701428571427
154,1.540000238,-0.7421875833333335,0.3743765033333333,-0.3345012283333333,-0.5519005,-1.7076234999999995,0.8359445
155,1.550000238,-0.6748565,0.39554137,-0.26574722,-0.6386408,-1.8786608,0.8884773
156,1.560000238,-0.6600123342857144,0.3834892742857143,-0.0846608652857142,-0.6485888914285715,-2.0654055714285713,0.9273970285714286
157,1.570000238,-0.6865746266666667,0.35827295,0.0511005413333333,-0.5140279833333333,-2.2292870666666667,1.0139046
158,1.580000238,-0.6966173428571428,0.3345883485714286,0.11522449,-0.31349554,-2.3816498285714287,1.1445095571428572
159,1.590000238,-0.6527769266666666,0.30214161,0.1195801466666666,-0.157089545,-2.4736260333333333,1.23808555
160,1.600000238,-0.6765028771428572,0.3273840742857143,0.0524072385714285,0.0818098985714285,-2.5975407285714285,1.3802966571428572
161,1.610000238,-0.73722287,0.39627312,-0.0725957,0.1607546366666666,-2.6914947333333337,1.5371971666666664
162,1.620000238,-0.6622120085714285,0.4002106371428571,-0.1782508185714285,0.1095598248571428,-2.8183182571428573,1.7242909285714287
163,1.630000238,-0.5699679685714286,0.4122670628571429,-0.22615431,-0.0499585797142857,-2.9956387,1.8265641428571429
164,1.640000238,-0.520223445,0.4512813916666667,-0.15613208,-0.3737367166666667,-3.274065,1.86888715
165,1.650000238,-0.3888859171428572,0.4731678257142857,0.1116136599999999,-0.7611593142857143,-3.696345828571428,1.8525687857142856
166,1.660000238,-0.2719366,0.4323727799999999,0.2818762,-0.8805363,-3.8775058,1.7729840999999995
167,1.670000238,-0.1261179842857142,0.4824018285714285,0.5007173471428571,-0.8403949714285714,-3.8752369142857144,1.5654706571428572
168,1.680000238,-0.1376045683333333,0.5562265433333333,0.510720835,-0.7414667666666667,-3.763862666666667,1.4300952999999998
169,1.690000238,-0.1961525542857143,0.6091296057142858,0.2424226757142857,-0.7447537142857144,-3.427071314285714,1.3392826285714283
170,1.700000238,-0.20283414,0.6324236285714286,0.1418070614285714,-1.0844284142857143,-3.1649305571428568,1.3132779714285714
171,1.710000238,-0.1334020966666666,0.6865237533333333,0.1470207733333333,-1.7069617666666663,-3.1276398000000003,1.2672026
172,1.720000238,-0.0810195357142857,0.6527906914285715,0.2920030871428571,-2.129086357142857,-3.1277560857142856,1.1555048
173,1.730000238,-0.0538395233333333,0.6047507666666666,0.4523536083333333,-2.5535961,-3.1072781,0.9992443166666668
174,1.740000238,-0.0632223278571428,0.5616224957142857,0.5716100057142857,-2.6778016,-3.0746996,0.9422319
175,1.750000238,-0.0422542091428571,0.4380482071428571,0.78165712,-2.8231833,-3.0612609999999996,0.7834116
176,1.760000238,-0.1004631793333333,0.4079709766666666,0.73785808,-2.764542,-3.1781363999999996,0.4706578066666667
177,1.770000238,-0.3294051071428571,0.3978716699999999,0.7092879314285714,-2.6018820857142857,-3.1766238,0.4057334714285714
178,1.780000238,-0.4949170766666667,0.2968466,0.70652499,-2.3011125333333333,-3.3406727000000003,0.5948634333333334
179,1.790000238,-0.07249116,0.1932124915714285,0.5935799285714286,-1.9833556857142856,-3.5099065,0.8080200428571428
180,1.800000238,0.2868866666666667,0.0362114625,0.6611412,-1.589653645,-3.281166083333334,0.5633029933333333
181,1.810000238,0.212238,0.41285944,1.3224857,-0.74248487,-2.6397765,-0.34176904
182,1.820000238,0.3082845428571428,0.5544443671428572,1.3666259,-0.1735242642857142,-2.5144655285714284,-0.2998823714285715
183,1.830000238,0.3872532866666667,0.7372025666666667,1.3418059166666667,0.349099208,-2.4542824666666667,-0.1153483266666666
184,1.840000238,0.2806479042857143,0.87456754,1.0312753485714286,-0.1237838445714285,-2.8551436285714287,0.4833983342857142
185,1.850000238,0.11558601,0.30767038,0.36023444,-1.0369133,-2.3587866,0.8750386999999998
186,1.860000238,-0.0998316114285714,0.3306725942857143,0.1062823335714285,-1.6119386428571427,-0.9273097714285716,0.9828968428571428
187,1.870000238,-0.18002068,0.33239744,0.3288301533333334,-2.6562183333333333,0.8058093333333334,1.4154349000000002
188,1.880000238,-0.0528733028571428,0.2230182371428571,0.5959101828571428,-3.153389857142858,0.9626515857142858,1.6598900714285716
189,1.890000238,0.2033872942857142,0.1828939571428571,0.9949970714285714,-3.3355968857142857,0.4088749785714286,1.657795785714286
190,1.900000238,0.56774652,0.3460669433333334,1.3406473666666667,-3.095621166666667,-0.6211298333333334,1.3107764
191,1.910000238,0.7138003285714286,0.4486542214285714,1.4871686714285717,-2.6907167,-1.1850873,0.7849823542857142
192,1.920000238,0.58637565,0.4619172,1.5772871000000002,-2.3198452,-1.4547327999999995,0.28496024
193,1.930000238,0.46850294,0.45606318,1.5009108,-2.1372890285714288,-1.3920772428571428,0.0748287878571428
194,1.940000238,0.20638399,0.43164104,1.3386147,-1.872705,-0.9061919,-0.1291942
195,1.950000238,0.0146742014285714,0.34358276,1.2496068428571427,-1.7096960857142858,-0.2806843085714286,-0.0157511342857142
196,1.960000238,-0.0275233871428571,0.1567121057142857,1.1833922,-1.528361657142857,0.14341821,0.12997957
197,1.970000238,-0.0270137866666666,-0.0944262433333333,1.1362146666666666,-1.2992720999999998,0.110665162,0.2177670466666666
198,1.980000238,-0.512347,0.17028433,1.0564946,-1.1151017,-0.120642334,0.2275406
199,1.990000238,-0.7022056,0.38477856,0.9583791,-0.8866448,-0.62764555,0.8994725999999998
200,2.000000238,-0.36432439,0.2435203057142856,0.8455023285714286,-0.8142157714285715,-1.333610457142857,1.5225368285714287
201,2.010000238,0.2052558866666667,0.1178015933333333,0.8268469666666666,-0.9843803666666666,-1.7731878333333333,1.5090981333333335
202,2.020000238,0.35860978,0.1828634571428571,0.9787025285714286,-1.1372667,-1.7943637857142858,1.2675516285714286
203,2.030000238,0.3591280928571428,0.1770399528571428,1.0120712,-1.155962985714286,-1.7249017000000002,1.146080357142857
204,2.040000238,0.32661458,0.12390967,0.9705139866666668,-1.1840765,-1.647964083333333,0.8548807083333334
205,2.050000238,0.3065510085714286,0.10212704,0.93063358,-1.2508625285714283,-1.720887657142857,0.6666525228571428
206,2.060000238,0.2746763,0.0641108828571428,0.8341209457142857,-1.4103809285714288,-1.9188021142857143,0.5266812228571429
207,2.070000238,0.27780076,0.0131816646666666,0.7762444733333332,-1.6772339,-2.1311442666666665,0.48409646
208,2.080000238,0.28544348,-0.025214886,0.7716913,-1.8898087,-2.257386,0.49142662
209,2.090000238,0.4324642666666666,-0.0179380376666666,1.0875583666666666,-2.2339194333333334,-2.583578533333333,0.4311563666666667
210,2.100000238,0.5580508285714286,-0.0173747071428571,1.7714056857142857,-2.0854543857142858,-2.701210228571429,0.2345217285714285
211,2.110000238,0.555693,-0.012526137,1.8552048333333333,-1.6189997333333337,-2.5768592166666666,0.175822205
212,2.120000238,0.5422223942857143,0.0409954228571428,1.6263318000000002,-1.1400154571428571,-2.3533763142857143,0.1245692028571428
213,2.130000238,0.48923588,0.08631601,1.4115763,-1.0027058,-2.2036314,0.08582404
214,2.140000238,0.3788788,0.1721746783333333,1.3638702333333332,-1.2231707333333333,-1.928343,0.15138831
215,2.150000238,0.3334907057142857,0.2409461,1.5396977857142855,-1.3660508,-1.7760384000000002,0.2249226785714285
216,2.160000238,0.3454063333333333,0.2769978533333333,1.7102929,-1.3693668666666667,-1.6351363333333335,0.27477945
217,2.170000238,0.4081030871428571,0.3016073085714286,1.785134628571429,-1.2822775142857143,-1.5247183571428573,0.2655876614285714
218,2.180000238,0.5378057583333333,0.33137605,1.878077,-1.1408844833333334,-1.3307307,0.1129049416666666
219,2.190000238,0.5169422057142857,0.3726959714285714,1.9702325142857144,-0.943191785714286,-1.0697245214285716,-0.1579912814285714
220,2.200000238,0.34458457,0.4454833328571429,1.9033949285714284,-0.6039097571428572,-1.003403892857143,-0.4878488071428571
221,2.210000238,0.2753209433333333,0.4699258,1.8379578,-0.5150460116666667,-1.03732045,-0.5299100066666667
222,2.220000238,0.28812656,0.4709421,1.8516018,-0.48959407,-1.0149227,-0.51769304
223,2.230000238,0.36819223,0.4763083000000001,2.0732002,-0.3440088116666667,-0.6402697416666667,-0.4708614233333333
224,2.240000238,0.4342936128571428,0.4915792057142857,2.1816820857142853,-0.0335529662857142,0.1107815128571428,-0.4189103285714285
225,2.250000238,0.51411533,0.50682837,2.151284,0.1758222,0.712349725,-0.44255885
226,2.260000238,0.5922296571428571,0.5252527685714286,1.8820566571428572,0.0669750357142857,1.3108346285714287,-0.6016408857142856
227,2.270000238,0.5917316333333335,0.4805259999999999,1.9486401,-0.1625871783333333,1.788484416666667,-0.7913526000000001
228,2.280000238,0.5069502657142858,0.4148020742857142,2.0972870714285716,-0.28068432,2.256928,-1.0112576
229,2.290000238,0.2530069257142857,0.2715228071428571,2.1942440285714286,0.0776212285714285,2.8152422285714285,-1.063266928571429
230,2.300000238,0.1897112749999999,0.2275894983333333,2.176102666666667,0.3548004499999999,2.9716191666666667,-0.9625934666666668
231,2.310000238,0.1762210814285714,0.1756461357142857,2.0750339,0.8143030428571427,3.0442228285714283,-0.7646499
232,2.320000238,0.23690407,0.13610551,1.9250513,1.0900569,3.042477400000001,-0.6642964
233,2.330000238,0.2716970414285714,0.1210436528571428,1.863340357142857,1.1584717857142857,3.0672604,-0.6328813999999999
234,2.340000238,0.3670082066666666,0.0727379825,1.59688685,1.3930372,3.2636042,-0.53724015
235,2.350000238,0.33576002,0.0569763207142857,1.5235949428571427,1.3818674000000002,3.321023757142857,-0.51402798
236,2.360000238,0.3657878985714285,0.0506911085714285,1.5960643571428572,1.348358042857143,3.2163071285714286,-0.4888959642857143
237,2.370000238,0.3879494699999999,0.04677102,1.6653715,1.3948697166666666,3.1677011500000005,-0.5038471750000001
238,2.380000238,0.3961250428571428,0.0209419867142857,1.6440592714285711,1.6169563714285715,3.2433590000000003,-0.5601032971428571
239,2.390000238,0.33508054,-0.0265970816666666,1.5272638666666667,1.8181869333333331,3.4248678666666663,-0.57613076
240,2.400000238,0.2655468571428571,-0.045564506,1.4428193285714284,2.008945771428571,3.582466457142857,-0.5327024428571429
241,2.410000238,0.23983108,-0.04911872,1.3754461000000002,2.0906248,3.611787,-0.4981459399999999
242,2.420000238,0.2660738842857142,-0.0568543654285714,1.2118476714285715,2.167417085714286,3.5664098571428573,-0.44753289
243,2.430000238,0.34547746,-0.053265303,0.9964606,2.1590397,3.3063636,-0.4724903399999999
244,2.440000238,0.3937018416666666,-0.0242341368333333,0.73537316,1.8654257333333335,3.2059809666666665,-0.6864905066666666
245,2.450000238,0.33937955,0.0135983539999999,0.62207896,1.3926880857142856,3.2012977142857144,-0.9199796
246,2.460000238,0.1687903283333333,0.0141674929533333,0.8374065333333333,0.9218703166666667,3.3006622,-1.0650122
247,2.470000238,-0.0755662614285714,-0.0131410102228571,1.190988442857143,0.9115149857142856,3.484730771428571,-0.9739086971428572
248,2.480000238,-0.2513713816666666,-0.0304590936666666,1.4404041166666666,1.0595145,3.611787,-0.8426637600000001
249,2.490000238,-0.3034236285714285,-0.0127664247142857,1.4006217714285716,1.4211360857142858,3.5964287142857145,-0.6074003214285714
250,2.500000238,-0.26681435,0.042136606,1.1938807,1.9772107,3.2634006,-0.14894493
251,2.510000238,-0.17751035,0.06533918,1.147506,2.0087712,3.1585386,-0.07666133
252,2.520000238,-0.005945469,0.12708059,0.9954849,2.0258749,3.4028773,-0.03268033
253,2.530000238,-0.0479855241666666,0.1608274716666666,0.8423408366666667,1.9049271,3.696084,-0.1047603039999999
254,2.540000238,-0.1087737714285714,0.1801455314285714,0.9086767314285714,1.8037010428571432,3.7547254285714287,-0.13634984
255,2.550000238,-0.11967161,0.19101724,1.0979909,1.9823011166666669,3.5083503,-0.1515919266666666
256,2.560000238,-0.1560239128571428,0.1500392428571428,1.139434914285714,2.398491657142857,3.218401542857143,-0.1471705585714285
257,2.570000238,-0.22632419,0.0916821799999999,0.9708188,2.8676223999999997,3.15243,-0.07177455
258,2.580000238,-0.2460407733333333,0.1145951033333333,0.56986046,3.0225741,3.236319566666667,0.1357098966666666
259,2.590000238,-0.1986309342857142,0.1583498314285714,0.2401577342857142,2.876523385714286,3.268665457142857,0.2975262428571428
260,2.600000238,-0.1023230516666666,0.2194843466666666,0.15026283,2.4779019000000004,3.1903024,0.3423799
261,2.610000238,0.021368843,0.25781992,0.2226828442857143,2.1126152,3.0916941714285717,0.2638423871428571
262,2.620000238,0.035306938,0.27596122,0.3895044299999999,1.8560594,3.1157792,0.07116371
263,2.630000238,-0.0831973614285714,0.2748200471428571,0.6619767999999999,1.833719828571429,3.038114314285714,-0.1457743385714285
264,2.640000238,-0.1475260314285714,0.2686654871428571,0.7403001357142858,2.1988319714285716,2.831298857142857,-0.3101795085714286
265,2.650000238,-0.2223198733333333,0.2369751966666666,0.6321710066666667,2.5218829333333335,2.689815,-0.35805831
266,2.660000238,-0.2959188257142857,0.2157225014285714,0.3194698448571428,2.7599387428571434,2.6654974285714284,-0.3330426557142857
267,2.670000238,-0.3352279066666666,0.2263495916666666,-0.0226435941666666,2.6892550666666666,2.730538166666667,-0.23833224
268,2.680000238,-0.3260643157142857,0.2801600714285714,-0.3370275,2.3576522857142854,2.7552047285714285,-0.1745714257142857
269,2.690000238,-0.3134379983333333,0.3024719133333333,-0.4189827949999999,2.017323,2.7578228,-0.16584504
270,2.700000238,-0.35492924,0.36306998,-0.49685827,1.5958384,2.6735258,-0.17561859
271,2.710000238,-0.33148277,0.4372511,-0.36361876,1.093722,2.2483761,-0.24769856
272,2.720000238,-0.2946411666666667,0.4090380966666667,-0.060836882,0.88603395,2.0386518,-0.4920374733333333
273,2.730000238,-0.3849745514285714,0.3990912385714286,-0.0208026077142857,0.8996471142857142,2.0712304,-0.6129852414285715
274,2.740000238,-0.5394928666666666,0.3890166,-0.02350747,0.9994479,2.0592170666666667,-0.6133924583333333
275,2.750000238,-0.5990027142857143,0.38939556,-0.049811271,1.134386957142857,1.9534240857142855,-0.4702214914285714
276,2.760000238,-0.59490258,0.3821767733333334,-0.058641636,1.2777906166666668,1.8150562,-0.3657957083333333
277,2.770000238,-0.5810225771428571,0.3764548799999999,-0.1513415885714285,1.4535982714285716,1.6808334857142857,-0.2744013157142856
278,2.780000238,-0.5807503500000001,0.4117211783333332,-0.3706263,1.4934197833333334,1.5828070833333332,-0.211047725
279,2.790000238,-0.51972542,0.4262400128571428,-0.5369346142857143,1.3050752,1.5115415,-0.1927223
280,2.800000238,-0.4370507799999999,0.40553761,-0.6418754471428573,1.125486,1.5408622,-0.266024
281,2.810000238,-0.39541942,0.34404445,-0.7167491299999998,0.83960956,1.6385977,-0.41018394
282,2.820000238,-0.5418347842857143,0.2330319071428571,-0.7870319800000001,0.5772942857142856,1.736856942857143,-0.5817447571428572
283,2.830000238,-0.7116370666666666,0.1472646933333333,-0.8180456866666667,0.59343813,1.4987137,-0.47371207
284,2.840000238,-0.8573453571428571,0.1019833028571428,-0.8759178314285714,0.6916100142857143,1.2106556000000002,-0.2871418371428572
285,2.850000238,-0.8981723333333332,0.0887551779999999,-0.9891939066666668,0.8408312566666667,0.6596132333333333,0.0715709366666666
286,2.860000238,-0.7725232857142856,0.0831799414285714,-1.1461775142857142,0.8739915328571428,0.1784982791428571,0.3666392642857143
287,2.870000238,-0.619679,0.0863247214285714,-1.327986814285714,0.7137750371428571,-0.0853877207142857,0.5608887114285714
288,2.880000238,-0.5457635666666666,0.1457910233333333,-1.4308456000000005,0.3334207913333333,-0.2611372066666667,0.6469890466666667
289,2.890000238,-0.4994716428571429,0.2133965928571428,-1.346755342857143,-0.1480431899999999,-0.5375892142857143,0.6202281000000001
290,2.900000238,-0.4549706666666667,0.2731714216666667,-1.0982957666666666,-0.57999945,-0.8561024,0.5329642
291,2.910000238,-0.48266755,0.3042947357142857,-0.8811838214285714,-0.8166591714285715,-1.1273185857142856,0.4457003457142857
292,2.920000238,-0.52429885,0.33965397,-0.72553015,-0.9025268,-1.3032427,0.4278985
293,2.930000238,-0.5561822285714285,0.3599687528571428,-0.5814450714285714,-0.9308003285714284,-1.5135486142857142,0.4532050442857143
294,2.940000238,-0.5478803714285714,0.3742552785714285,-0.4783815714285714,-0.9318475,-1.6695763857142858,0.50102565
295,2.950000238,-0.4888191666666666,0.3681922133333333,-0.3925838733333333,-0.9224811666666668,-1.7247272,0.5280774666666667
296,2.960000238,-0.4800933571428571,0.3589930685714285,-0.3355248085714286,-0.8931023142857143,-1.720189457142857,0.5177803057142858
297,2.970000238,-0.5385731166666666,0.3543296283333333,-0.3189159583333333,-0.8170082500000001,-1.7471249333333334,0.54619925
298,2.980000238,-0.6152144714285714,0.3465881757142857,-0.367112,-0.7646498714285714,-1.942887,0.6750298571428572
299,2.990000238,-0.6619289,0.3572159399999999,-0.396578,-0.8013297666666667,-2.1620939,0.8054021166666666
300,3.000000238,-0.5961410457142857,0.4047230942857143,-0.3564754985714286,-0.9240156,-2.4076544142857146,0.9242555571428572
301,3.010000238,-0.5250307,0.50536484,-0.36044785,-1.2142116,-2.6715405000000003,1.0509627
302,3.020000238,-0.261936,0.5783264,-0.17083314,-1.6882290999999998,-2.809592,0.9862129
303,3.030000238,-0.09598121,0.61345047,0.17351623,-2.004473585714286,-2.723724285714286,0.7108080142857143
304,3.040000238,-0.18499047,0.5647382466666667,0.5376533333333334,-2.1952324333333335,-2.2716391,0.2051428733333333
305,3.050000238,-0.3811720642857143,0.5047986085714286,0.6907632857142857,-2.072713814285714,-1.9629575857142856,0.0067629522857142
306,3.060000238,-0.5535689,0.45581928,0.747757,-1.8763701,-1.8041373,-0.035123717
307,3.070000238,-0.7257348200000001,0.3774218442857143,0.6683011857142857,-1.1979369,-1.8257788857142856,0.2818187442857143
308,3.080000238,-0.804305055,0.3218175633333333,0.47410795,-0.7528692,-1.9877987833333333,0.6239804916666667
309,3.090000238,-0.81324863,0.31571963,0.3272752,-0.4871507,-2.1608722,0.9385668
310,3.100000238,-0.7958086128571429,0.3289782414285714,0.2185057828571428,-0.4641130271428571,-2.2357445714285715,1.0186750285714286
311,3.110000238,-0.5907458250000001,0.4098867,0.119016095,-0.5433486433333333,-2.7933026,1.3885575999999995
312,3.120000238,-0.2074119214285714,0.5343952571428572,0.1973285914285714,-0.8561024,-3.3923402,1.5677395
313,3.130000238,0.1547244666666666,0.58621305,0.3799917,-1.369366766666667,-3.2534742666666667,1.139739133333333
314,3.140000238,0.2605944614285714,0.5975261571428572,0.5350922,-1.6744413857142857,-2.8228560857142857,0.6481525714285714
315,3.150000238,0.0715024321428571,0.5353012628571429,0.6394841857142858,-1.877940842857143,-2.1938579285714286,0.0750033214285714
316,3.160000238,-0.2191489633333333,0.47125718,0.6049133466666666,-1.9594453333333333,-1.8318291666666668,-0.19109338
317,3.170000238,-0.5349223314285715,0.3917171157142857,0.6631832942857143,-1.9842283142857144,-1.8163543285714283,-0.1735242485714285
318,3.180000238,-0.6197008,0.33035463,0.7794967,-1.9423416,-2.1462119,0.02107423
319,3.190000238,-0.6065249142857143,0.3041858757142857,0.8474449642857141,-1.772875042857143,-2.390725314285714,0.1798945214285714
320,3.200000238,-0.5508858,0.29645023,0.91688275,-1.5184135,-2.6923094000000005,0.41445985
321,3.210000238,-0.3555129157142857,0.3424198,0.8968380285714286,-1.0997432285714286,-2.969110342857143,0.7195344400000001
322,3.220000238,-0.2656078257142857,0.3857629342857143,0.8382327,-1.0534934285714286,-2.9202426142857143,0.8139539857142858
323,3.230000238,-0.13886989,0.3874819466666666,0.7903103333333333,-1.1587264,-2.7200010999999997,0.8106961
324,3.240000238,-0.0852924328571428,0.3612493085714285,0.7694873885714285,-1.294843457142857,-2.3872347285714284,0.7148221714285714
325,3.250000238,-0.1420408133333333,0.3171831533333333,0.71953384,-1.4125334,-2.025264133333333,0.5997502133333333
326,3.260000238,-0.2135577571428571,0.2784962114285714,0.6671905,-1.4606448142857142,-1.9207219714285717,0.5827046342857143
327,3.270000238,-0.28904125,0.24519724,0.62134725,-1.5098617,-1.909203,0.6465818
328,3.280000238,-0.2770022114285714,0.2809528185714286,0.6401810485714285,-1.5592530142857142,-2.189843828571429,0.7605484428571428
329,3.290000238,-0.0434955668571428,0.3195569757142857,0.8659129242857143,-1.6613518285714284,-2.893539814285714,0.9164017714285714
330,3.300000238,0.0681340566666666,0.355025785,0.9350240083333332,-1.64139755,-3.0523018,0.8919387833333333
331,3.310000238,0.2708825257142857,0.4113959628571428,1.011165257142857,-1.664493357142857,-3.0776665142857142,0.7413503714285714
332,3.320000238,0.2976698,0.42017698,0.9823134,-1.7715079833333334,-2.7191865666666666,0.5069014166666667
333,3.330000238,0.1532188674285714,0.3861593,0.9157546142857144,-1.9191294000000003,-2.3038104,0.3399365
334,3.340000238,0.0338332733333333,0.3566824,0.8613408666666666,-2.0926100666666665,-1.90207655,0.2417937033333333
335,3.350000238,-0.09061504,0.2930354,0.7897412,-2.289128342857143,-1.5625909285714283,0.25337072
336,3.360000238,-0.1954556557142857,0.2566613028571428,0.9368055,-2.234675657142857,-1.765741342857143,0.4580918257142857
337,3.370000238,-0.1573160976666666,0.26130589,1.1748449666666667,-2.0307108,-2.2301016,0.6665361833333333
338,3.380000238,0.0070779392857142,0.3049611728571428,1.4174258714285717,-1.6960828857142858,-2.8645682857142853,0.8544444214285714
339,3.390000238,0.1711990133333333,0.3398165883333333,1.5480730166666667,-1.3766971,-3.2738360000000006,0.9312366
340,3.400000238,0.26495448,0.3589233799999999,1.5728966,-1.1480874,-3.4241042,0.93001497
341,3.410000238,0.47484478,0.41407904,1.3266628,-0.7913526000000001,-3.284831,0.6502469
342,3.420000238,0.3895653942857143,0.3976582142857143,1.131037242857143,-1.0034474714285715,-2.7303562285714285,0.33470066
343,3.430000238,0.2738530799999999,0.3536878714285714,1.0612335428571429,-1.3016500428571427,-2.2915934142857144,0.1584276028571428
344,3.440000238,0.15985689,0.2692738333333333,1.0804085666666667,-1.5568970000000002,-1.9774143333333332,0.067498626
345,3.450000238,0.0477292647285714,0.17013187,1.2137642,-1.7273233714285714,-1.8638258714285716,0.1008334328571428
346,3.460000238,0.0340975184666666,0.1071505566666666,1.387337066666667,-1.6511710333333334,-2.0822765333333333,0.2902542666666667
347,3.470000238,0.1213180542857142,0.0871522957142857,1.524453085714286,-1.3738609285714285,-2.314980142857143,0.4474456285714286
348,3.480000238,0.203091115,0.0908691216666666,1.5916375,-1.0574784333333334,-2.4638523,0.5466064833333333
349,3.490000238,0.2227264057142857,0.1111345342857142,1.5050529714285712,-0.8316685428571429,-2.4743241,0.6048696771428571
350,3.500000238,0.22150682,0.14147167,1.3378829,-0.5091412,-2.3905509,0.72843534
351,3.510000238,0.2811357399999999,0.1605102342857143,1.151565457142857,-0.5510278414285714,-2.1153204285714287,0.8214586714285714
352,3.520000238,0.3265347271428571,0.1725144214285714,1.1327098,-0.7105462471428572,-1.8886088142857145,0.8595057114285715
353,3.530000238,0.36697263,0.17808965,1.1624154,-0.8846086416666666,-1.7481431166666666,0.8842013916666667
354,3.540000238,0.4295111314285714,0.1754762642857143,1.2750525857142858,-0.9000834214285715,-1.7276941857142858,0.8685811642857143
355,3.550000238,0.4833005933333333,0.1802849133333333,1.3751310666666667,-0.8381842233333333,-1.7218765666666669,0.8314649533333333
356,3.560000238,0.4907342314285715,0.1926941785714285,1.3872891428571428,-0.7794847171428572,-1.7282177714285714,0.8111615442857144
357,3.570000238,0.5065183433333333,0.2287328583333333,1.3823825333333335,-0.6569662,-1.741831,0.7577560499999999
358,3.580000238,0.53317136,0.2561735,1.3547132000000002,-0.5890749,-1.691566942857143,0.6921335628571429
359,3.590000238,0.5744193971428571,0.2793760814285714,1.313495657142857,-0.5775561,-1.5805671999999995,0.6135961
360,3.600000238,0.5582948,0.28669357,1.2888252,-0.60076827,-1.3704358,0.50242186
361,3.610000238,0.4876910933333334,0.29953982,1.2605816333333333,-0.6484143666666666,-1.1212101666666665,0.3790307133333333
362,3.620000238,0.4779111828571428,0.3039767771428571,1.2539842428571428,-0.6642963814285715,-1.0299321428571429,0.3500590971428571
363,3.630000238,0.4860649371428571,0.3172528228571428,1.2670643,-0.6908246042857142,-0.8595929800000001,0.3109648714285714
364,3.640000238,0.4902928333333333,0.33247874,1.2902886999999998,-0.7017616933333333,-0.6781422533333333,0.2707071333333333
365,3.650000238,0.4919189657142858,0.3425461214285714,1.3156254857142855,-0.6922208142857142,-0.5117591171428572,0.2418518771428571
366,3.660000238,0.50534453,0.3718509666666666,1.3688705,-0.6618529916666667,-0.3851392,0.2122694166666666
367,3.670000238,0.5185276214285713,0.3965997914285714,1.4209583285714285,-0.6154286142857143,-0.2742267871428571,0.1533662892857143
368,3.680000238,0.5136275,0.42798227,1.4889284,-0.5934381,-0.21349111,0.111479625
369,3.690000238,0.59832764,0.46484417,1.611466,-0.5983249,-0.13408098,0.027182704
370,3.700000238,0.6822654,0.50045604,1.8537972,-0.60321164,0.2189887499999999,-0.2586938
371,3.710000238,0.6738328571428571,0.4841484771428571,2.03724,-0.5166458771428571,0.5750254214285714,-0.4496272114285714
372,3.720000238,0.6433345571428573,0.4603753071428572,2.145835142857143,-0.34525959,0.9460715,-0.5859334428571429
373,3.730000238,0.5970267,0.4239983333333333,2.2106674666666666,-0.0009162699999999,1.5168355333333334,-0.7310823666666667
374,3.740000238,0.59630652,0.3919784428571428,2.2365545714285715,0.2392339614285714,1.8458059142857144,-0.7889092314285715
375,3.750000238,0.59255488,0.3545227166666667,2.2446024,0.4592553166666667,2.10075455,-0.8408312666666666
376,3.760000238,0.5898558428571429,0.3160332428571428,2.23929,0.7287843714285714,2.3586775714285717,-0.8953711857142856
377,3.770000238,0.5726859,0.2813274,2.2093668,0.8884773,2.512262,-0.9171871499999998
378,3.780000238,0.6173531,0.2591005,2.1559184,1.0595145,2.7712612,-0.9196305
379,3.790000238,0.70498013,0.21589674,2.022191,1.1548067,3.1756423,-0.9904888
380,3.800000238,0.64811707,0.18906592,1.886482,1.1841274,3.8842249999999994,-1.1041064
381,3.810000238,0.5733304771428571,0.1550700271428571,1.833147,1.232122542857143,4.1826675714285715,-1.076531
382,3.820000238,0.4598743899999999,0.098938704,1.8358897333333335,1.4089191666666665,4.323627766666667,-0.9733850833333334
383,3.830000238,0.4516422085714285,0.0544195507142857,1.8297409428571427,1.7227201285714284,4.194360814285715,-0.8704137214285714
384,3.840000238,0.4586751266666666,0.0287618408333333,1.74845065,2.095307883333333,4.049968450000001,-0.7893164833333334
385,3.850000238,0.4571129142857142,0.0237731637142857,1.4580075285714285,2.451548142857143,3.885272271428572,-0.7067066285714285
386,3.860000238,0.4622830685714286,0.0374673444285714,1.1907489142857144,2.4916895857142856,3.788932942857143,-0.6683105285714286
387,3.870000238,0.4689043766666667,0.0448196895,1.1045309166666666,2.36163735,3.821307733333333,-0.6856760333333333
388,3.880000238,0.42456746,0.046039272,1.0652755,2.2567751,3.9220974000000006,-0.7070557
389,3.890000238,0.32693982,0.015793605,1.1272609,2.1883602,4.1749883,-0.6985038500000001
390,3.900000238,0.26984155,0.0401242912857142,1.0558325714285712,2.2655015714285716,4.059101928571429,-0.6471926814285714
391,3.910000238,0.31849421,0.0474417913333333,1.0407111333333334,2.3247827666666665,3.7522820666666665,-0.6537083566666667
392,3.920000238,0.36376687,0.0526337314285714,0.9951887285714284,2.3854021428571426,3.5815937142857144,-0.7314895714285715
393,3.930000238,0.3424488466666666,0.06598454,0.8981012083333333,2.3854604,3.479844,-0.8878665
394,3.940000238,0.2552936371428572,0.0353069396428571,0.8790059857142857,2.3243175428571425,3.456631885714286,-0.9903143142857144
395,3.950000238,0.1137958334285714,-0.0088463342857142,0.90841542,2.359397571428571,3.5161459857142856,-1.0323754328571428
396,3.960000238,0.0077443539999999,-0.063021965,0.89419854,2.54244805,3.56190125,-0.919630525
397,3.970000238,-0.063540295,-0.13357487,0.8356281,2.6880333,3.544594,-0.8218950000000002
398,3.980000238,-0.0767524491666666,-0.1675199283333333,0.7013976416666666,2.9421458,3.4480799999999996,-0.6410842
399,3.990000238,-0.0945177149999999,-0.12086072,0.27480263,3.0252209999999997,3.1438782,-0.36009446
400,4.000000238,-0.0523963503333333,-0.0465931658333333,0.1173899816666666,2.766629083333333,2.946370866666667,-0.2684673683333333
401,4.010000238,0.0023999635714285,0.0620506564285714,0.1851719557142857,2.1661952714285713,2.703719142857143,-0.2497929014285714
402,4.020000238,0.0846173014285714,0.1625617442857143,0.3064333814285714,1.7270834,2.605111,-0.3756274428571428
403,4.030000238,0.1006359486666666,0.2017495799999999,0.5029866733333334,1.4021998833333331,2.6480738833333333,-0.5903839166666667
404,4.040000238,-0.0410041385714285,0.1943623857142857,0.6116341571428572,1.2518441857142857,2.9018080285714283,-0.8636071428571428
405,4.050000238,-0.2823081416666667,0.1727590583333333,0.6662990333333333,1.3052787666666668,3.14428545,-0.9485440166666668
406,4.060000238,-0.59896785,0.1387886,0.6433302,1.5933951,3.1890807000000003,-0.7815791
407,4.070000238,-0.6958638,0.16174725,0.6174446,1.8120784,3.0156002,-0.4834856
408,4.080000238,-0.5513170285714286,0.22344945,0.4986397314285714,2.0955114,2.680856,0.0027488125
409,4.090000238,-0.33343408,0.3591673,0.27699786,2.1431577,2.6576438,0.16767757
410,4.100000238,-0.2138539383333333,0.5431668733333334,0.14989188,1.8196121666666667,2.5790479666666664,0.0929505883333333
411,4.110000238,-0.0986642905714285,0.6560617914285715,0.2158618942857142,1.3525467285714288,2.559733585714286,-0.1825997057142857
412,4.120000238,-0.1349672293333333,0.6581176766666667,0.4101662066666666,1.1275222,2.7647456666666663,-0.5999538266666666
413,4.130000238,-0.3255372928571428,0.6423632542857144,0.4592689885714285,1.1354341428571428,2.907044,-0.8070601142857142
414,4.140000238,-0.5330275999999999,0.5532465314285714,0.6161509714285714,1.2642356428571428,2.8939543142857143,-0.8077582285714285
415,4.150000238,-0.54672905,0.4436844066666667,0.6034498566666667,1.7078272,2.9272310000000004,-0.6076912
416,4.160000238,-0.4943668142857143,0.3518105914285714,0.43840971,2.204417,2.9948313428571427,-0.34333978
417,4.170000238,-0.4222371757142857,0.3013242099999999,0.1938092285714285,2.3913362714285715,3.0349727428571427,-0.2330382271428571
418,4.180000238,-0.31074983,0.23690407,-0.3638627,2.5292132,3.0742416,-0.12308572
419,4.190000238,-0.3482041171428571,0.3226669142857142,-0.8869289214285715,2.195166942857143,2.784350957142857,-0.1023169142857142
420,4.200000238,-0.32002884,0.3590046933333333,-0.9670686533333334,1.7057910333333333,2.297243733333333,-0.1731752066666666
421,4.210000238,-0.2492741285714285,0.3656485142857142,-0.8755301985714287,1.3762825571428572,1.9565437857142856,-0.2932503328571428
422,4.220000238,-0.23492224,0.3471340966666666,-0.7732158299999999,1.0452615333333333,1.6516291666666667,-0.5258376866666666
423,4.230000238,-0.25949684,0.33965397,-0.73284763,0.9068028,1.5237585,-0.6642964000000001
424,4.240000238,-0.2869171399999999,0.3088188366666667,-0.7881658866666666,0.78381888,1.551450233333333,-0.7249738833333333
425,4.250000238,-0.4574308457142857,0.1822972228571428,-0.9766597428571429,0.3561675771428571,1.7328645571428571,-0.8492958671428571
426,4.260000238,-0.6635709142857144,0.1204512742857143,-1.0045272714285716,0.1058947328571428,1.8177723571428572,-0.6810510785714285
427,4.270000238,-0.8175629066666668,0.0927798016666666,-0.945294,0.1236965675,1.5834178833333332,-0.4397082118166666
428,4.280000238,-0.85620844,0.07387626,-0.8958755,0.34360158,0.9226848,-0.0009162709
429,4.290000238,-0.70900477,0.0955950096666666,-1.0413362166666669,0.4401154483333333,0.4963133991666666,0.2189887463666666
430,4.300000238,-0.5509685642857143,0.1331523728571428,-1.1411075428571429,0.4237098299999999,-0.1045857749999999,0.4439550585714286
431,4.310000238,-0.5137901666666667,0.2061502466666666,-1.1686455,0.24016478,-0.4407262999999999,0.42952744
432,4.320000238,-0.5451798999999999,0.2667403057142857,-1.1451975,-0.0120860485714285,-0.7587159571428571,0.3821722257142857
433,4.330000238,-0.5853782571428571,0.3210988771428571,-0.9818952428571428,-0.4009339685714285,-1.132729,0.3664647228571428
434,4.340000238,-0.5939269466666667,0.3520123933333334,-0.8155862333333334,-0.6594096333333334,-1.3749153666666667,0.3965416766666667
435,4.350000238,-0.5733130857142857,0.3581219228571429,-0.6971269285714286,-0.7553999000000001,-1.5207042714285712,0.4392428071428571
436,4.360000238,-0.5250307,0.36038688,-0.540062,-0.8060129000000001,-1.6550907,0.4828747499999999
437,4.370000238,-0.5035355,0.35721594,-0.5029562,-0.8047913,-1.7027367000000002,0.50242186
438,4.380000238,-0.49524233,0.33941004,-0.4551485,-0.7925743500000001,-1.773595,0.5048653
439,4.390000238,-0.5608863942857143,0.32896954,-0.4730241071428571,-0.8128195714285714,-1.8655711,0.5368038357142857
440,4.400000238,-0.6141255385714286,0.3117821285714285,-0.4968931,-0.9227720428571428,-2.0819855857142855,0.6450110642857144
441,4.410000238,-0.5953446666666666,0.3063694833333333,-0.4866950716666666,-1.0570966166666669,-2.24007875,0.7337293583333334
442,4.420000238,-0.5218466485714286,0.3386260357142857,-0.43017319,-1.3187537571428571,-2.4163809142857144,0.8218077071428571
443,4.430000238,-0.4696209133333333,0.3701486316666666,-0.3406296383333334,-1.5324630333333331,-2.4567258333333335,0.8343155416666667
444,4.440000238,-0.37444258,0.39944404,-0.10982348,-1.9022001714285717,-2.4235364285714285,0.8024351628571428
445,4.450000238,-0.31294507,0.40285888,0.10518907,-1.9765489999999997,-2.401546,0.73332214
446,4.460000238,-0.30270058,0.39554137,0.29580995,-1.924190685714286,-2.4025931714285713,0.6380299342857142
447,4.470000238,-0.38688233,0.38185155,0.4241711,-1.5437201571428572,-2.5190033000000005,0.4902049171428571
448,4.480000238,-0.47231415,0.3781928,0.2689486,-1.2147970499999998,-2.68782975,0.4997748583333334
449,4.490000238,-0.4992233642857143,0.3797347028571428,0.1848278485714285,-1.1548940142857145,-2.833327814285714,0.6258130142857142
450,4.500000238,-0.4956285,0.4107048583333333,0.19320741,-1.1715286833333334,-2.968412283333333,0.763457265
451,4.510000238,-0.3937250714285714,0.4423820728571428,0.3500117171428571,-1.2754709285714283,-3.2399775428571433,0.9415337857142856
452,4.520000238,-0.3084580333333334,0.4585836833333332,0.4465758733333334,-1.272853,-3.2775009,0.9642224
453,4.530000238,-0.1135606325714285,0.4677712028571428,0.5091673371428572,-1.3346357999999998,-3.0991334428571427,0.8614255428571429
454,4.540000238,-0.0524551515714285,0.4682590371428571,0.5657777514285715,-1.414395057142857,-2.9031388,0.7532183100000001
455,4.550000238,-0.031312805,0.45947802,0.62768906,-1.4426686,-2.7900448,0.67468077
456,4.560000238,-0.1049887028571428,0.4296199957142858,0.6263301,-1.4463336000000002,-2.545706,0.44255883
457,4.570000238,-0.30831066,0.39700487,0.61817634,-1.4658808,-2.5347106,0.40957308
458,4.580000238,-0.3394056914285714,0.3745776085714286,0.7182344085714286,-1.3726828857142856,-2.7965024285714284,0.5614122514285714
459,4.590000238,-0.3173305116666666,0.34819105,0.7740847833333334,-1.26162865,-2.9411277166666667,0.6732554666666667
460,4.600000238,-0.2616921014285714,0.3565974628571428,0.6744165000000001,-1.1456876714285715,-2.972600842857143,0.7945813857142856
461,4.610000238,-0.26291168,0.40505412,0.538629,-1.1641221,-2.9647472,0.8713736
462,4.620000238,-0.1115047694285714,0.4661334571428571,0.5385462714285714,-1.5458144142857144,-3.0385724285714284,0.9251281857142856
463,4.630000238,0.0326935442857142,0.4989576657142857,0.7566600571428571,-1.9318699714285712,-2.9144830999999995,0.8546189228571429
464,4.640000238,0.05847902,0.48850408,0.8673372,-2.088945,-2.7375119,0.76875126
465,4.650000238,0.0573639757142857,0.47366006,0.9816948857142858,-2.1194873,-2.6471066,0.71010995
466,4.660000238,0.05799119,0.45777062,1.0220718,-2.057181,-2.5102768,0.5879405
467,4.670000238,-0.0501510057142857,0.4650881171428572,0.8760615428571429,-1.9566528,-2.454776971428571,0.4717049857142857
468,4.680000238,-0.0326594246666666,0.472974755,0.8986652166666667,-1.9789924,-2.6012929999999996,0.4437805399999999
469,4.690000238,0.046039272,0.44923353,0.9605744,-2.013374314285714,-2.8884786285714283,0.3395874414285714
470,4.700000238,0.0009408209999999,0.4252992157142857,0.9515842428571428,-2.0227988285714287,-2.8528748571428575,0.2715216014285714
471,4.710000238,-0.046364496,0.37959532,0.9308063433333332,-2.0091276,-2.8800429333333333,0.2369069333333333
472,4.720000238,-0.0800220931428571,0.3340351514285714,0.87348301,-1.9758508857142856,-2.9609075428571425,0.2573848514285714
473,4.730000238,-0.060684435,0.2988792133333333,0.75971914,-1.9962997,-2.9751315999999997,0.3089869
474,4.740000238,-0.0388393742857142,0.2650241871428571,0.6889426571428571,-2.1203597999999997,-2.903836942857143,0.3673373614285714
475,4.750000238,-0.026922302,0.24934383,0.6860155999999998,-2.1988974,-2.860903,0.3997995299999999
476,4.760000238,0.06509526,0.19248074,0.80510795,-2.4236891,-2.8645682,0.48409647
477,4.770000238,0.14027822,0.1647570028571428,0.9799918685714284,-2.376392157142857,-2.9979074,0.4744974285714285
478,4.780000238,0.16668147,0.1437888833333333,1.1805567833333332,-2.2709775,-3.1443362,0.4743229
479,4.790000238,0.19223682,0.1220541585714285,1.2969877,-1.948973557142857,-3.372793,0.5523368142857142
480,4.800000238,0.234322605,0.0976987916666666,1.3319832333333332,-1.7212148833333334,-3.5365256666666665,0.5922164166666667
481,4.810000238,0.3088594642857143,0.0833890157142857,1.270736257142857,-1.4922344000000003,-3.623916871428572,0.6451856028571428
482,4.820000238,0.37160707,0.05850951,1.2339134,-1.4719892,-3.5855207,0.67101574
483,4.830000238,0.4039478014285714,0.0660360828571428,1.2362132857142856,-1.4938051428571428,-3.4529015,0.7129023842857142
484,4.840000238,0.4097930914285714,0.06941607,1.245416771428571,-1.536739,-3.3324773,0.75164753
485,4.850000238,0.42212826,0.07338843,1.2705314,-1.5599511999999998,-3.2665057,0.78096825
486,4.860000238,0.5247649114285714,0.0806362385714285,1.3586550000000002,-1.5564606285714286,-3.1959965,0.7977229071428571
487,4.870000238,0.7044821416666668,0.0807872361666666,1.5006109499999998,-1.41314425,-2.94377475,0.6510613833333333
488,4.880000238,0.6959465142857143,0.0812983,1.565718585714286,-1.2219998857142855,-2.686200885714286,0.5331387571428572
489,4.890000238,0.6436452433333333,0.09478195,1.5812711666666666,-1.0786544166666667,-2.5695291,0.5494570716666667
490,4.900000238,0.6478731442857143,0.1296242842857143,1.5477645,-0.8604656571428572,-2.481828828571429,0.6478034914285714
491,4.910000238,0.6466078583333333,0.1708737883333333,1.51086555,-0.7917598333333333,-2.349624033333334,0.7180509566666666
492,4.920000238,0.6234510000000001,0.2339465628571428,1.4846424857142857,-0.8019988085714286,-2.190192742857143,0.7780012485714286
493,4.930000238,0.6331771785714286,0.28216369,1.4811578571428572,-0.85121566,-2.05825,0.7895201
494,4.940000238,0.63884825,0.30035287,1.4740494,-0.89397496,-1.9825047,0.75409096
495,4.950000238,0.6216782642857144,0.3336213785714285,1.4715405428571429,-0.98926708,-1.8442787571428572,0.71744008
496,4.960000238,0.72254217,0.36428955,1.6070449,-1.1437351,-1.6267880166666666,0.5962887333333334
497,4.970000238,0.7515508157142857,0.3688891214285714,1.6670135857142856,-1.1474765571428571,-1.4166856371428571,0.4580918142857143
498,4.980000238,0.6851212666666666,0.3956023566666666,1.8267834,-1.0086106333333331,-0.8801290833333333,0.1699173491666666
499,4.990000238,0.6156456714285714,0.4259699814285714,1.8433349428571428,-0.7882111057142858,-0.5353203628571428,0.0886164834285714
500,5.000000238,0.6011500642857143,0.4507667342857143,1.8132417142857145,-0.4669054685714285,-0.1283215592857143,0.0434137862857142
501,5.010000238,0.65404222,0.45598187,1.7979911333333334,-0.2511600466666666,0.1245110325,0.0108934433333333
502,5.020000238,0.7288970485714286,0.4458753114285714,1.7739232142857142,-0.080675468,0.3572147499999999,-0.0965575
503,5.030000238,0.7698925,0.4384707,1.7481203,-0.0068211277283333,0.5205437,-0.2230610583333333
504,5.040000238,0.7923328,0.42627487,1.7246737,0.00030542363,0.6172612,-0.3014531
505,5.050000238,0.805362,0.40920069,1.6215377,-0.1438545254566666,0.9853984666666668,-0.48796514
506,5.060000238,0.7972111,0.35989904,1.4992033,-0.5143770114285714,1.5967110714285713,-0.74039048
507,5.070000238,0.6963995214285715,0.2844242557142857,1.6349429999999998,-0.9027013471428572,2.2862267714285713,-0.9072390657142856
508,5.080000238,0.5208433666666666,0.1820279023333333,1.9807761166666669,-0.9220738666666666,2.8225724333333333,-0.9196305466666668
509,5.090000238,0.4026062385714286,0.105746584,2.289480414285715,-0.5225798285714286,3.0690056857142856,-0.8152629485714286
510,5.100000238,0.3456502533333334,-0.0076325606666666,2.3300851333333337,0.5804067,3.2489437666666667,-0.5183039166666666
511,5.110000238,0.4523478428571428,-0.0390136017142857,2.0709527142857143,1.3569099142857142,3.17093,-0.2925522142857142
512,5.120000238,0.5665269733333334,-0.044240385,1.7966800666666665,1.7151573666666666,3.077703083333333,-0.19109338
513,5.130000238,0.65177584,-0.041313387,1.6224422,1.8047482,3.0522510000000005,-0.17684028
514,5.140000238,0.6684971785714285,-0.0293266238571428,1.5211515142857144,1.7644323,3.1231093,-0.2061609499999999
515,5.150000238,0.62101185,-0.020336553,1.4494138,1.5139849,3.5971267,-0.29045787
516,5.160000238,0.5579071214285715,-0.0089508706571428,1.4733874,1.4726218142857144,3.8179043714285714,-0.3082597085714286
517,5.170000238,0.5121640333333333,-0.0051019237333333,1.4137714666666668,1.50054625,4.10474085,-0.32833039
518,5.180000238,0.4910434914285714,0.0042249852571428,1.301883457142857,1.4785558,4.221936357142857,-0.32222192
519,5.190000238,0.39455555,0.0246559113333333,1.2214534,1.3783769,4.345211166666666,-0.29676997
520,5.200000238,0.3526120557142857,0.031369428,1.2691507000000002,1.3846598428571428,4.287907914285715,-0.2567740228571428
521,5.210000238,0.333362945,0.0314855776666666,1.3624829500000002,1.4956594999999997,4.0418234,-0.23059484
522,5.220000238,0.3283336285714285,0.05521228,1.347565514285714,1.9009130285714289,3.5285372857142856,-0.2478731014285714
523,5.230000238,0.3391356499999999,0.092170015,1.1948563,2.1822518285714287,3.1442273285714286,-0.2826041285714286
524,5.240000238,0.36404565,0.13293459,0.9356948,2.1675916,3.0436993,-0.35276428
525,5.250000238,0.3162379714285714,0.1763822471428571,0.7821406214285714,1.8827621714285716,3.298160757142857,-0.4731884628571428
526,5.260000238,0.2134009514285714,0.1652230585714285,0.7978905928571428,1.5054330142857144,3.5959051285714283,-0.5606269042857143
527,5.270000238,0.1474069733333333,0.14675653,0.9784717,1.3922227333333332,3.6276691333333337,-0.5914019666666667
528,5.280000238,0.1211438314285714,0.1314362457142857,1.022986542857143,1.687640114285714,3.2835003,-0.6168248714285715
529,5.290000238,0.09509701,0.13447939,0.8610766533333333,1.8544304666666669,3.0998970666666668,-0.6569662333333333
530,5.300000238,0.0495455725714285,0.1368372542857142,0.7292150142857142,1.8152198857142856,3.159585571428571,-0.680702
531,5.310000238,-0.031033315,0.1550547833333333,0.66914469,1.6874655666666667,3.2857983333333336,-0.665721725
532,5.320000238,-0.0748998438571428,0.1663816528571428,0.6999362914285714,1.4714001571428572,3.2754722,-0.5925654857142858
533,5.330000238,-0.060961745,0.1644913128571428,0.9258554285714286,1.3167685857142857,3.1693591999999997,-0.5482354085714286
534,5.340000238,-0.0587381811666666,0.145943475,1.0291504333333334,1.3745081666666668,3.1846014,-0.5362220716666667
535,5.350000238,-0.0579389202857142,0.1269020014285714,1.0310140214285717,1.5120651142857142,3.334636985714286,-0.5513769399999999
536,5.360000238,-0.10939662,0.09802401,0.93959755,1.6104988,3.5262685,-0.5628958
537,5.370000238,-0.1402172371428571,0.0921700122857142,0.9189517271428572,1.7152154857142856,3.644249357142858,-0.5461410914285715
538,5.380000238,-0.2096362299999999,0.1123541133333333,0.6451799333333333,1.6829860666666667,3.4816765833333334,-0.4311563583333333
539,5.390000238,-0.16796713,0.09704834,0.6884548,1.6117204,3.4908395,-0.42606595
540,5.400000238,-0.2152259728571428,0.1077937457142857,0.4915269285714285,1.522187742857143,3.7032397,-0.3901132342857142
541,5.410000238,-0.2612957333333333,0.1452218866666666,0.43278949,1.3569972,3.64232945,-0.34360158
542,5.420000238,-0.2903305228571428,0.2019934885714285,0.41154841,1.2427687714285711,3.510561057142857,-0.3068634914285714
543,5.430000238,-0.2847218966666666,0.2110184,0.54471674,1.1083823666666668,3.3878099,-0.27498308
544,5.440000238,-0.24876453,0.21199408,0.8278226999999999,1.0350807,3.3674483,-0.2635806
545,5.450000238,-0.2368126,0.16025324,0.8478238,1.3563862999999998,3.5861316,-0.24403349
546,5.460000238,-0.2736265828571428,0.16381618,0.5186408714285714,1.8377339285714285,3.624178628571429,-0.22902409
547,5.470000238,-0.363989,0.1984392814285714,0.0823959185714285,2.1768414285714286,3.372684,-0.1656705042857142
548,5.480000238,-0.385337525,0.2291597133333333,-0.1270094466666666,2.1050815000000003,3.1139465000000004,-0.1133121666666666
549,5.490000238,-0.3254719428571428,0.3620202471428571,-0.3352373257142856,1.8235971857142856,2.7419406142857143,-0.1037131342857142
550,5.500000238,-0.27325781,0.44075742,-0.3105770466666666,1.3706394666666668,2.4157482666666668,-0.2163417333333333
551,5.510000238,-0.23952181,0.4921628771428571,-0.1622524942857142,1.0193732,2.381191857142857,-0.3909858828571428
552,5.520000238,-0.2420771233333333,0.4826501016666666,-0.10591065,0.7766922900000001,2.5668311666666668,-0.5537330666666667
553,5.530000238,-0.3947268714285714,0.4567862171428571,0.0592717514285714,0.6354120285714285,2.8363602857142856,-0.7005981857142858
554,5.540000238,-0.5563303571428572,0.3770559628571428,0.2506156685714286,0.8045294714285713,2.905996857142857,-0.6850651799999999
555,5.550000238,-0.6675491233333334,0.1668491683333333,0.51747938,1.5897299666666669,2.724226,-0.4305455166666667
556,5.560000238,-0.6934246071428571,0.0449721364285714,0.4032160428571428,2.3424683714285712,2.6161060857142857,-0.2065100114285714
557,5.570000238,-0.6914224666666667,-0.0328576081666666,0.0603795333333333,3.2316872999999995,2.4450688,0.1041494599999999
558,5.580000238,-0.5628072142857142,-0.0603040437142857,-1.0205648142857142,3.7779594142857142,2.230050571428571,0.4165541914285714
559,5.590000238,-0.5103651,-0.05570447,-1.6114355,3.3379748,2.2153903333333336,0.6209262
560,5.600000238,-0.4492988485714285,0.0314521857142857,-1.9938184428571428,2.029365457142857,2.1068339428571425,0.6212752571428571
561,5.610000238,-0.33837341,0.1501524942857142,-2.3013887,0.5806103485714286,1.6584284714285715,0.4427333485714285
562,5.620000238,-0.3257202333333333,0.17158521,-1.7893320333333331,-0.2658203666666667,1.11978489,0.2273369903333333
563,5.630000238,-0.3822174228571429,0.1666212242857143,-1.3703411857142858,-0.7274754714285715,0.3797288342857143,-0.0002181585714285
564,5.640000238,-0.45374596,0.15342359,-1.1553113,-0.76936215,0.11270132,-0.04734066
565,5.650000238,-0.7270851,0.19418816,-0.651349,-0.47737715,-0.8047913,0.1163664
566,5.660000238,-0.7694301000000001,0.29161763,-0.5227032383333333,-0.1206423363333333,-1.3378572333333334,0.4325816666666666
567,5.670000238,-0.689792,0.38559741,-0.5244077642857142,0.0304987317142857,-1.610237057142857,0.6415205057142856
568,5.680000238,-0.6014462714285714,0.4957301342857143,-0.4747533271428571,-0.0250011042857142,-1.7334536,0.7200580142857144
569,5.690000238,-0.5537315,0.5543209466666666,-0.3847683966666667,-0.2680601266666667,-1.6721943333333331,0.6274419566666666
570,5.700000238,-0.5282712428571429,0.5639222971428571,-0.2143069114285714,-0.5841881285714285,-1.4617138571428572,0.42196457
571,5.710000238,-0.56383369,0.5351227166666667,-0.0896393689999999,-0.7699729999999999,-1.17862975,0.17684028
572,5.720000238,-0.6951276328571429,0.5035441814285714,-0.0011760267142857,-0.79117812,-1.0363895857142855,0.0751778485714285
573,5.730000238,-0.81349254,0.46118546,0.012958074,-0.7571451699999999,-0.9587248,0.04550812
574,5.740000238,-0.9362436,0.40481022,0.06027791,-0.5958815,-1.0198095,0.1517955499999999
575,5.750000238,-0.9548684514285714,0.3292570171428571,0.0177188025714285,-0.149963,-1.3353557428571428,0.4642002714285714
576,5.760000238,-0.9295141571428572,0.29909846,-0.0393184962857142,0.0879183742857142,-1.5179117714285717,0.6383789999999999
577,5.770000238,-0.872662755,0.2904336033333333,-0.2144332366666666,0.3564293833333333,-1.7929385,0.8776856833333332
578,5.780000238,-0.7359140214285714,0.3193871028571428,-0.4641690414285714,0.3956108542857143,-2.0233443142857146,1.0499155714285713
579,5.790000238,-0.6074388666666667,0.3631970166666667,-0.6066410683333333,0.0890818833333333,-2.124832233333333,1.1155089333333332
580,5.800000238,-0.4441156142857143,0.4249159142857143,-0.5956619285714285,-0.6669143142857142,-2.0664525428571427,1.03647696
581,5.810000238,-0.39617657,0.4237137466666666,-0.49666009,-1.1285657166666667,-1.9489081666666663,0.9237028583333332
582,5.820000238,-0.4047361557142857,0.3856671257142857,-0.1773404828571428,-1.5531445571428573,-1.7971562714285714,0.7697984499999999
583,5.830000238,-0.4599571357142857,0.3521895542857143,-0.0063810342857142,-1.6948612,-1.7339772,0.6903882814285714
584,5.840000238,-0.5150452916666667,0.3145407116666667,0.1080804933333333,-1.6450626,-1.7746130833333331,0.6860832583333334
585,5.850000238,-0.5544443957142857,0.2893766528571428,0.1482185814285714,-1.459423185714286,-1.9261322857142855,0.7626428142857142
586,5.860000238,-0.59189427,0.30547515,0.15595421,-1.2740747,-2.181641,0.8799255
587,5.870000238,-0.5436031671428572,0.3280243714285714,0.1325687085714285,-1.0791708142857142,-2.584451142857143,1.0945946142857144
588,5.880000238,-0.4443247066666666,0.3895857333333333,0.0737949583333333,-1.0124793,-2.7485073,1.213448
589,5.890000238,-0.2834442385714286,0.4576486442857143,0.0949402085714285,-1.210961057142857,-2.9280963285714288,1.3363155714285715
590,5.900000238,-0.1019789528571428,0.47951404,0.2143112828571428,-1.5166682857142857,-2.967714057142857,1.2637120571428573
591,5.910000238,-0.0263074271666666,0.4708608,0.280295825,-1.685378533333333,-2.8250667333333332,1.0982015333333333
592,5.920000238,0.009695687,0.4631368,0.30898145,-1.7383186,-2.7387338,1.0167552
593,5.930000238,-0.0693943,0.3869738,0.3397149400000001,-1.9337897,-2.2940369,0.6184828
594,5.940000238,-0.3206763785714285,0.2935798371428571,0.3125574314285714,-1.9543840428571428,-2.203980571428571,0.5006765857142856
595,5.950000238,-0.4212135999999999,0.2420974466666666,0.2992044466666666,-1.94885725,-2.3412759,0.5482354233333334
596,5.960000238,-0.4657501542857142,0.2472139,0.3632964557142857,-1.9529877857142857,-2.7685778571428576,0.7816663428571429
597,5.970000238,-0.3931021833333333,0.29771555,0.4789151166666667,-1.988766,-3.200534,1.0216421
598,5.980000238,-0.0278936171428571,0.3742988485714286,0.7992931214285715,-2.115124028571429,-3.755336228571429,1.1858726714285714
599,5.990000238,0.1702364128571428,0.4188528414285714,1.0183738285714286,-2.1200107714285714,-3.750100342857143,1.1050663685714286
600,6.000000238,0.2808141416666667,0.4259902849999999,1.1428359166666666,-2.0433349666666665,-3.4225772000000005,0.92594266
601,6.010000238,0.2342863357142857,0.4140093457142857,1.1448359285714285,-1.8967898857142855,-2.854969142857143,0.6998127985714285
602,6.020000238,0.0462526958333333,0.3864707366666666,1.048552045,-1.7656031166666668,-2.4017496166666668,0.5486426316666666
603,6.030000238,-0.1625399714285714,0.3606264314285714,0.8545577028571428,-1.6594319714285717,-2.1751834142857143,0.5446575914285715
604,6.040000238,-0.28755598,0.3464618428571429,0.6318356428571429,-1.7018421857142858,-2.2582586,0.6745063
605,6.050000238,-0.2263038596666666,0.3913744533333332,0.7148181666666668,-2.0498505999999996,-2.92015525,1.0027058
606,6.060000238,0.0704527207142857,0.4044269085714286,1.0117141285714286,-2.2212369285714284,-3.3069960999999997,1.0652740142857142
607,6.070000238,0.3062882,0.4126155266666667,1.291742,-2.2441001333333332,-3.4399864,0.9137257
608,6.080000238,0.3003877285714286,0.4332439,1.3924330857142857,-2.1728928,-3.3581329142857146,0.7355909928571428
609,6.090000238,0.3188549916666666,0.4253398416666667,1.4506283,-2.090981166666667,-3.2469587166666667,0.593641725
610,6.100000238,0.35058229,0.3957112528571428,1.417909342857143,-1.9219218285714283,-2.840483442857143,0.29892248
611,6.110000238,0.1769484805714285,0.3515013471428571,1.278598114285714,-1.8083042142857144,-2.306079214285714,0.11339943
612,6.120000238,0.0251742341666666,0.3258625033333333,1.14027996,-1.7639741333333332,-1.908795866666667,0.07727218
613,6.130000238,-0.1392154414285714,0.2224650728571428,0.8804041742857144,-1.7702572,-1.6783027999999998,0.1359135142857143
614,6.140000238,-0.2003673833333333,0.1724694133333333,0.8233509066666667,-1.7985889166666666,-1.7218765333333332,0.2700962916666666
615,6.150000238,-0.1892619191428571,0.144712278,0.8579768857142858,-1.7775873428571427,-2.1510986,0.5291246142857143
616,6.160000238,0.117954034,0.134398094,1.0087377,-1.5970093,-3.259633566666667,0.8282070666666667
617,6.170000238,0.3248098814285714,0.1550264757142856,1.0112000428571428,-1.5081164142857142,-3.769298457142857,0.8389114357142857
618,6.180000238,0.4524552333333333,0.1590387533333333,0.9743353,-1.5257436999999998,-3.8838177833333334,0.78137545
619,6.190000238,0.43902821,0.1639381314285714,0.9306205285714286,-1.6725216,-3.7972229285714287,0.7111571142857143
620,6.200000238,0.45440804,0.1452001057142857,1.0653539571428572,-1.9028983285714285,-3.6002900285714285,0.7074920271428572
621,6.210000238,0.5257522166666667,0.12545447,1.1974783666666666,-1.9455994333333333,-3.4029282,0.6661289533333333
622,6.220000238,0.56219745,0.11634825,1.2754096999999998,-1.9081341,-3.2066426,0.6099310000000001
623,6.230000238,0.5336592,0.1173239199999999,1.337639,-1.7297667,-2.9586387,0.5427378
624,6.240000238,0.5110489714285714,0.1066177135714285,1.2497114142857144,-1.4376072571428573,-2.924082271428571,0.5078322214285714
625,6.250000238,0.5150198666666667,0.0917634833333333,1.1567138,-1.2763145,-3.0158547166666665,0.5174894166666667
626,6.260000238,0.5309761,0.09241393,1.144335,-1.2508625,-3.0820298,0.5439595
627,6.270000238,0.6808934,0.0561414883333333,1.1149838,-1.3147978166666665,-3.1903533833333335,0.5423305749999999
628,6.280000238,0.6599688285714286,0.0320314864285714,1.166244,-1.4442392857142856,-3.133690114285714,0.5034690571428572
629,6.290000238,0.5835749871428572,0.0260729488571428,1.3252950714285714,-1.6610027571428572,-2.8823700857142858,0.4689125285714285
630,6.300000238,0.572335215,0.056664888,1.5434895,-1.6479132,-2.656473,0.5162677333333333
631,6.310000238,0.6296970142857143,0.0790333528571428,1.6715217857142857,-1.4908382285714286,-2.3614047142857144,0.55827076
632,6.320000238,0.6867016333333332,0.098679535,1.7368187,-1.24819005,-2.0270967166666667,0.5398871500000001
633,6.330000238,0.7015652999999998,0.12025091,1.7364122,-0.9102060285714284,-1.6503783857142855,0.5050397771428571
634,6.340000238,0.66600428,0.1464313066666666,1.6263347666666668,-0.6738663433333333,-1.48649675,0.4820603083333333
635,6.350000238,0.6651912285714285,0.1546867285714285,1.5175711285714286,-0.4496272171428571,-1.4465299285714284,0.4781625057142857
636,6.360000238,0.7002586,0.1725144242857143,1.3837915571428572,-0.3494482542857143,-1.4304733714285711,0.4914266285714285
637,6.370000238,0.7604508333333334,0.1889947666666666,1.3569999,-0.4362467599999999,-1.3117945333333332,0.4739156666666666
638,6.380000238,0.8133401000000001,0.21861032,1.3937703,-0.5347968,-1.189625,0.4511107
639,6.390000238,0.8632718666666666,0.2823640233333333,1.49277,-0.7037978333333333,-0.70990632,0.3321990999999999
640,6.400000238,0.8772768,0.30596295,1.5560664,-0.7705838,-0.4224009,0.26052636
641,6.410000238,0.8930449433333333,0.3197442666666667,1.6501317666666668,-0.7640681066666667,0.044490045,0.0626118393333333
642,6.420000238,0.8470310714285715,0.3220266185714285,1.7297916285714283,-0.6615039771428571,0.3573892928571429,-0.1372224748571428
643,6.430000238,0.7559805457142857,0.3087157357142857,1.7527894285714287,-0.4546885285714285,0.5223180428571429,-0.3356605657142857
644,6.440000238,0.7353122166666667,0.2912060366666666,1.766251316666667,-0.3478775,0.5439595,-0.4187358
645,6.450000238,0.7511806,0.2720541971428571,1.7535953,-0.2618353171428572,0.7237230828571429,-0.5731928714285714
646,6.460000238,0.7735512133333332,0.2380321766666666,1.843867733333333,-0.3034892833333333,0.99354306,-0.6814001333333333
647,6.470000238,0.7413411799999999,0.19910134,1.9890663857142856,-0.3086087585714286,1.4194345285714287,-0.7700602457142857
648,6.480000238,0.6759439333333334,0.1713413033333333,2.1285083666666664,-0.187835525,2.15247305,-0.76569703
649,6.490000238,0.6639455514285715,0.14919425,2.2134785285714287,-0.0679349414285714,2.5780590285714284,-0.7068811428571429
650,6.500000238,0.7080117185714286,0.1033422642857142,2.1901583714285713,0.1680266214285714,3.2543541999999994,-0.6039097471428571
651,6.510000238,0.71010244,0.076315425,2.1549428,0.39002597,3.7999282,-0.56411743
652,6.520000238,0.6665893771428572,0.0526903555714285,2.0821598,0.6455346242857143,4.146540314285715,-0.5557401185714286
653,6.530000238,0.56488055,0.0077443539999999,2.0045986,1.0595145,4.2886057,-0.4981459399999999
654,6.540000238,0.5299481642857142,-0.0354898751428571,1.821443457142857,1.8270877285714289,3.7697347428571426,-0.3080851785714286
655,6.550000238,0.5684681500000001,-0.0479804393333333,1.6494510333333334,2.2266400333333336,3.4000267333333336,-0.2126766566666666
656,6.560000238,0.7333180171428572,-0.0172571048571428,1.4478022571428573,2.3696946857142858,3.1515573285714287,-0.2325146471428571
657,6.570000238,0.8292760066666668,0.0116470206666666,1.3031349666666667,2.3146020666666662,3.188266366666667,-0.3580583
658,6.580000238,0.8322872628571429,0.025654808,1.1884796428571427,2.167242414285714,3.4142217571428572,-0.5204854942857142
659,6.590000238,0.7260310685714286,0.0335995221428571,1.1838234428571428,1.8956772142857143,3.697654728571429,-0.7089755000000001
660,6.600000238,0.6082469,0.0124600765333333,1.2627972666666667,1.7412200999999998,3.8276198,-0.7632536333333334
661,6.610000238,0.5063099914285715,-0.0081842753428571,1.3655501,1.7279560714285715,3.8557771,-0.7423103
662,6.620000238,0.46972254,-0.018873053,1.3808123,1.7949747,3.8683429,-0.7192727
663,6.630000238,0.3727133742857142,-0.0290739961428571,1.1952440285714283,2.1562470857142855,3.919305057142857,-0.5742400857142858
664,6.640000238,0.34291635,0.0024188401666666,1.0276971166666666,2.2274544,3.9220974,-0.5323534
665,6.650000238,0.3474375142857143,0.048661374,0.8550150657142856,2.110520842857143,3.798880828571429,-0.4962261285714286
666,6.660000238,0.3592587714285714,0.0767684162857142,0.8242510742857142,1.8738612,3.681598214285714,-0.5648155428571429
667,6.670000238,0.3205878166666667,0.0932371473333333,0.8622251,1.68828,3.6211534333333337,-0.6386408
668,6.680000238,0.2621668642857143,0.1035818278571428,0.9463313142857144,1.4846642857142858,3.5456411,-0.6951878
669,6.690000238,0.26488334,0.1075469283333333,1.1382473,1.35699725,3.5109972499999995,-0.7490005566666667
670,6.700000238,0.2604725142857143,0.1087432821428571,1.336824557142857,1.5563951857142857,3.5639665000000003,-0.8608146742857142
671,6.710000238,0.1507913246666666,0.0676513091666666,1.3832362,1.90675975,3.650881216666667,-0.93266195
672,6.720000238,-0.002774552,0.030428605,1.3720312,2.349624,3.7669423,-0.9123004
673,6.730000238,-0.1504747971428571,0.0085457948571428,0.8969425428571428,3.2411120571428573,3.6533247571428578,-0.6414332571428571
674,6.740000238,-0.1216127799999999,0.033609683,0.4846827466666667,3.2508273333333335,3.3613397,-0.4891868433333333
675,6.750000238,-0.06597946,0.063875675,0.33825144,3.069202,3.2465005,-0.45905173
676,6.760000238,-0.0223336208333333,0.1014235958333333,0.23144136,2.510480366666666,3.191524216666666,-0.4906121583333333
677,6.770000238,-0.0372103595714285,0.1233521385714285,0.3131585257142857,1.934945857142857,3.2590664142857144,-0.5716221714285714
678,6.780000238,-0.0889940133333333,0.1363443299999999,0.4811510333333333,1.596042,3.2664549,-0.5928272499999999
679,6.790000238,-0.11869595,0.09241393,0.7319025,1.4473153428571428,3.3217220000000003,-0.5838390571428571
680,6.800000238,-0.15500469,0.0766290345714285,0.8748942428571428,1.6808334285714286,3.452268742857143,-0.5189147428571429
681,6.810000238,-0.11181402,0.0696251428571428,0.9260296571428572,1.979276,3.3999104285714288,-0.4442168714285714
682,6.820000238,-0.05131397,0.09436526,1.0281698,2.293426,3.30392,-0.4407262999999999
683,6.830000238,-0.0490490291428571,0.1906382985714285,0.4584806057142856,2.5016376571428576,3.064817,-0.4970987714285714
684,6.840000238,-0.03111462,0.22552127,0.3553002166666667,2.2702138,3.2648258,-0.5714476
685,6.850000238,-0.1092354671428571,0.2166459028571428,0.1643214314285714,1.7647813285714289,3.870088257142857,-0.6634237371428572
686,6.860000238,-0.2010788033333333,0.2081727033333333,0.1041320966666666,1.4500495666666666,4.173766633333333,-0.67936394
687,6.870000238,-0.3035586442857143,0.2119679357142856,0.09519719,1.1923301857142856,4.2495115142857145,-0.6142069142857143
688,6.880000238,-0.3805404999999999,0.25577711,0.1384735266666666,1.0867991,4.0365295,-0.50588335
689,6.890000238,-0.3474201057142857,0.3223837785714286,0.1895973,1.0513117571428572,3.581244785714286,-0.4026792357142857
690,6.900000238,-0.2440255628571428,0.38436042,0.2964937885714285,1.1188540571428571,3.020312357142857,-0.4265895314285713
691,6.910000238,-0.25047192,0.38941297,0.38852876,1.2549857,2.656422,-0.51036286
692,6.920000238,-0.3776135,0.36380172,0.34337372,1.7448852,2.341225,-0.5274666
693,6.930000238,-0.3944132583333333,0.28172883,0.1261811416666666,2.0995839,2.5033030833333334,-0.4250478833333333
694,6.940000238,-0.4727409814285714,0.28880604,-0.1498606642857143,2.382260657142857,2.698134285714286,-0.2215194031428571
695,6.950000238,-0.49395159,0.3510367266666667,-0.5082613666666667,2.3832206166666663,2.7073260500000003,-0.0672950043333333
696,6.960000238,-0.4394202328571429,0.3745384057142857,-0.7209436228571429,2.1265774285714287,2.6946435142857146,0.0413194548571428
697,6.970000238,-0.3419537385714286,0.3881411085714285,-0.9255331057142858,1.6438336285714286,2.7684688,0.0015271184285714
698,6.980000238,-0.27451296,0.35244435,-1.05343035,1.27453282,2.789994,-0.1361171313333333
699,6.990000238,-0.2690836314285714,0.3179802471428571,-1.083813242857143,0.963175222857143,2.727280285714286,-0.3290285142857143
700,7.000000238,-0.3405635566666667,0.2490541633333333,-1.1009788333333337,0.89336413,2.64787,-0.4162923999999999
701,7.010000238,-0.5071768257142857,0.1981256742857143,-1.2242743571428572,0.8603784,2.3852057,-0.47493374
702,7.020000238,-0.73684174,0.17199174,-1.3173635,0.75653434,1.6618099,-0.27824092
703,7.030000238,-0.810765962857143,0.1626662857142857,-1.2876841,0.6781713342857143,0.9783591114285716,0.0177582057142857
704,7.040000238,-0.7662511571428572,0.1739082357142857,-1.2262562285714285,0.5671716514285714,0.1427200942857142,0.3874080642857143
705,7.050000238,-0.6694191333333332,0.1815044999999999,-1.1579029666666667,0.4335997433333333,-0.3625378466666666,0.56309935
706,7.060000238,-0.6246226485714287,0.2137102028571428,-1.0661990142857145,0.2641914428571428,-0.6651690285714286,0.6209262357142858
707,7.070000238,-0.6345288966666667,0.25780975,-0.9683695333333334,0.0693311641666666,-0.8691338499999999,0.6327359666666666
708,7.080000238,-0.6477860857142856,0.2811879971428572,-0.89442935,-0.1789346157142857,-1.022427457142857,0.6326196085714286
709,7.090000238,-0.6902537,0.3023042,-0.78166145,-0.40407547,-1.1114366,0.64413846
710,7.100000238,-0.7299424142857143,0.31456975,-0.5816846228571428,-0.6142069,-1.2079505,0.70155805
711,7.110000238,-0.7098323799999999,0.3006664799999999,-0.4343110428571428,-0.71682924,-1.2727003,0.7931852
712,7.120000238,-0.64436686,0.30254814,-0.3621553,-0.6887303,-1.2372711,0.88114715
713,7.130000238,-0.5368431857142857,0.3155889799999999,-0.4221282999999999,-0.6314851571428571,-1.2405870857142858,0.8410057957142857
714,7.140000238,-0.5278661833333333,0.3354260866666667,-0.53445192,-0.6292744833333334,-1.31118365,0.7610139
715,7.150000238,-0.5146598071428572,0.33442718,-0.6426812285714286,-0.7419612857142858,-1.4639827428571428,0.6561808771428571
716,7.160000238,-0.5561808166666667,0.33615782,-0.6653538666666666,-0.9306258333333334,-1.6473532666666666,0.5989357666666667
717,7.170000238,-0.57990318,0.3353984757142857,-0.61558469,-1.0765529142857144,-1.8599862571428576,0.6094074371428572
718,7.180000238,-0.5530462114285715,0.3084718242857143,-0.4464807728571429,-1.1675909,-2.182513685714286,0.6736336571428572
719,7.190000238,-0.52307934,0.29401106,-0.32602513,-1.1224319,-2.5029466,0.7699729999999999
720,7.200000238,-0.50134027,0.28181523,-0.23623328,-1.0198095,-2.6739838,0.85915667
721,7.210000238,-0.42618343,0.32084188,-0.3658140299999999,-0.9739959666666668,-2.853165633333333,1.0363024449999998
722,7.220000238,-0.3444713199999999,0.3723083214285714,-0.4076892771428571,-1.2055288999999998,-2.9931951714285714,1.1328162
723,7.230000238,-0.2779735383333333,0.397772175,-0.357429405,-1.5334810833333332,-3.120309583333333,1.1214137333333334
724,7.240000238,-0.2072681828571428,0.3777746514285714,-0.1706153554285714,-1.816507,-3.1956475,1.0644014
725,7.250000238,-0.2012748057142857,0.3579128571428572,-0.0066859285714285,-2.1245485142857143,-3.234392542857143,0.9818497257142856
726,7.260000238,-0.183115355,0.33200615,0.1740193,-2.2206844,-3.268949166666667,0.9477295216666666
727,7.270000238,-0.16097193,0.2907965942857143,0.3475638242857143,-2.1371146,-3.282387742857143,0.8923169314285715
728,7.280000238,-0.180356045,0.27190612,0.41557302,-2.03437585,-3.2667093166666668,0.8787037666666667
729,7.290000238,-0.2031216199999999,0.26032007,0.47761932,-1.9081341,-3.2616189,0.9153546
730,7.300000238,-0.28928518,0.2798639,0.4463675,-1.7627525000000002,-3.189539,1.0216421
731,7.310000238,-0.3817601,0.43505585,0.5842719,-1.9105775,-3.652714,1.4724473
732,7.320000238,-0.1702538364285714,0.4543862442857143,0.9103013285714284,-1.8697379857142855,-4.201080114285714,1.6249846142857145
733,7.330000238,0.1149101625,0.476511545,1.3062195,-1.604721216666667,-4.571631783333333,1.6164037166666665
734,7.340000238,0.2591005,0.47142997,1.5396935,-1.1566393,-4.6887107,1.4626738
735,7.350000238,0.1824975905714286,0.4460582514285715,1.6672619999999998,0.2547669514285714,-4.4574615714285715,0.9705053857142856
736,7.360000238,-0.0462831873333333,0.4269253,1.3252601666666666,1.1222282666666663,-4.150351000000001,0.8229130466666668
737,7.370000238,-0.1900720642857143,0.4045227285714285,0.874423797142857,1.33841,-3.790547171428571,0.8903971285714285
738,7.380000238,-0.4337397416666667,0.3988952333333333,0.163353025,1.25824355,-3.1490193333333334,1.137703
739,7.390000238,-0.6246357428571429,0.5234669857142856,-0.1568384071428571,0.5727566185714287,-2.905582142857143,1.5714046
740,7.400000238,-0.547227,0.6498245,-0.22086655,-0.5355166885714285,-3.224095528571429,2.1724783428571426
741,7.410000238,-0.006677219,0.62592065,0.1083599799999999,-1.492758,-3.5267267,2.4803452
742,7.420000238,0.4023187674285714,0.6301369314285715,0.5362769399999999,-2.2128596285714286,-3.5453139285714284,2.424845428571429
743,7.430000238,0.7847815533333334,0.6243758666666667,0.9813987066666666,-2.5470804333333334,-3.3921367166666667,2.1413251
744,7.440000238,0.7993497571428572,0.6059456542857143,1.1141242571428571,-2.5449859,-3.0244357857142856,1.5895554285714284
745,7.450000238,0.64361769,0.5426623485714286,1.1154396714285717,-2.416882628571429,-2.537503214285714,1.0628305714285715
746,7.460000238,0.402081395,0.46353315,1.0700216666666666,-2.283398033333333,-2.2022062,0.820469655
747,7.470000238,0.0421148185714285,0.3666590285714285,0.9351590857142856,-2.0002848,-1.8371231,0.7134259785714285
748,7.480000238,-0.13235529,0.3808759,0.8031566,-1.9313463,-1.8432316,0.7614211000000001
749,7.490000238,-0.1910912828571428,0.4405048,0.6549990071428571,-2.029954442857143,-2.2498813142857146,1.1253115285714286
750,7.500000238,-0.0590481573333333,0.47232432,0.5965490566666667,-2.3055919666666664,-2.800225733333334,1.5184644333333333
751,7.510000238,0.249025858,0.4634373442857143,0.6813551142857143,-2.710612828571428,-3.326608828571428,1.779441657142857
752,7.520000238,0.84707469,0.3880365857142857,0.9980590785714286,-3.456893657142857,-3.961977228571429,1.8237717714285715
753,7.530000238,1.0288304,0.3726741866666667,1.2359460666666666,-3.6698175,-3.96954,1.4879220999999998
754,7.540000238,1.1327882285714286,0.3992697999999999,1.4973783142857144,-3.599657357142857,-3.790198,1.0305429571428573
755,7.550000238,1.149619891666667,0.39537366,1.6116438666666666,-3.2536270000000003,-3.1443362333333336,0.33912202
756,7.560000238,0.7342545142857143,0.3807495657142857,1.6059343,-2.7603533,-2.0205519,-0.2168071485714285
757,7.570000238,0.3618402366666666,0.3709667599999999,1.4818547333333332,-2.4065853333333336,-1.3252331466666667,-0.2786481633333333
758,7.580000238,0.18916609,0.3128231085714286,1.3397210857142858,-2.080916542857143,-0.906366442857143,-0.129019666
759,7.590000238,0.1277121571428571,0.2631773685714286,1.2494849714285714,-1.8116203,-0.8459798428571429,0.0891400705714285
760,7.600000238,0.2126546866666666,0.2009568366666666,1.1227891,-1.4353383333333334,-1.1998058666666669,0.3826958200000001
761,7.610000238,0.3509568942857143,0.1372249042857143,0.9688370714285712,-1.1743538428571427,-1.8126893285714285,0.5912565214285715
762,7.620000238,0.4599455466666666,0.0962352916666666,0.8732928333333333,-1.0709169833333332,-2.294037,0.7019653183333333
763,7.630000238,0.5394042971428571,0.0938774285714285,0.8925564142857143,-1.118068657142857,-2.713950814285714,0.8108124914285714
764,7.640000238,0.6028857833333333,0.10229764,0.960864,-1.1619587666666666,-2.8189583166666665,0.85793499
765,7.650000238,0.6742597142857143,0.1094837428571428,1.0118970428571428,-1.1897777714285716,-2.655658371428572,0.8694538142857142
766,7.660000238,0.7192899333333335,0.11691739,1.0380179333333333,-1.218284,-2.3148055333333333,0.86852298
767,7.670000238,0.7327953571428572,0.1380568385714285,1.0538812,-1.2428342,-1.951438714285714,0.8769585157142856
768,7.680000238,0.7523304999999999,0.14415476,1.0796667,-1.248419,-1.789477,0.88603395
769,7.690000238,0.7611115,0.1571171857142857,1.1164893,-1.2239852,-1.6746378,0.8909207
770,7.700000238,0.8182925142857143,0.1573436814285714,1.1391431428571428,-1.1759682,-1.703783928571429,0.8666613571428572
771,7.710000238,0.8663005,0.14464259,1.150677,-1.117545,-1.8102459,0.7748597
772,7.720000238,0.8668231928571429,0.1431442414285714,1.1870075,-1.0950309,-1.8409627714285717,0.7177891428571428
773,7.730000238,0.8728862999999999,0.14220342,1.2629396,-1.0405782,-1.8566703,0.63925165
774,7.740000238,0.9600995857142856,0.1696396885714285,1.3855294714285713,-0.9136965828571428,-1.7365951285714287,0.5155114428571429
775,7.750000238,0.9464881,0.1921555133333333,1.4373501333333332,-0.75062946,-1.4978993333333337,0.3635559166666666
776,7.760000238,0.8816237057142857,0.2110924485714285,1.4343998714285713,-0.6211880142857142,-1.2829974285714287,0.2748376228571428
777,7.770000238,0.7979429399999999,0.22031774,1.4088931,-0.5238015,-1.0882244,0.23609246
778,7.780000238,0.7415321066666666,0.2683744116666667,1.38864815,-0.5032363333333333,-0.9786791,0.2531961866666666
779,7.790000238,0.7447821142857143,0.3183373971428572,1.385268142857143,-0.5679570357142858,-0.8562769285714286,0.2741395157142857
780,7.800000238,0.810901,0.3530694,1.3869406,-0.69361705,-0.5934381,0.23853585
781,7.810000238,0.8733741,0.35697204,1.4184059999999998,-0.7930978642857143,-0.3086087742857142,0.1778001814285714
782,7.820000238,0.8768296333333333,0.3494512983333333,1.501185166666667,-0.8544735,0.0544672091666666,0.06281546
783,7.830000238,0.8126563342857143,0.3397933385714285,1.5781887714285714,-0.8067110642857144,0.38810617,-0.0428029391428571
784,7.840000238,0.7840048114285715,0.3164252528571428,1.5943656857142856,-0.624155,0.866835902857143,-0.14542528
785,7.850000238,0.76367258,0.30071875,1.56958855,-0.4785988333333333,1.2513206,-0.21552728
786,7.860000238,0.7487675142857143,0.2964502071428571,1.5470458714285713,-0.4101839457142857,1.5410366857142856,-0.25974098
787,7.870000238,0.7410798,0.2915719,1.5404253,-0.3668137933333333,1.7681228000000002,-0.2772228366666667
788,7.880000238,0.7703498342857144,0.2711220885714286,1.6466291285714283,-0.2457787628571428,1.953075,-0.29290126
789,7.890000238,0.8451015714285715,0.2547100057142857,1.698017142857143,-0.0667132454285714,2.0478436,-0.3255379614285714
790,7.900000238,1.0657226666666666,0.2408067283333333,1.6759718999999995,0.0483587425666666,2.1581741666666665,-0.4745265083333334
791,7.910000238,1.175007514285714,0.2283539071428571,1.7197388999999998,-0.0359963583428571,2.531809142857143,-0.8215459428571429
792,7.920000238,1.1116501833333332,0.2043869233333333,1.7458845,-0.0860276586666666,2.974469766666666,-1.0829304
793,7.930000238,0.8504328714285715,0.1138219745714285,1.7885321571428572,-0.0864348871428571,3.455410214285714,-1.2255777142857145
794,7.940000238,0.57599395,0.0090706495,1.98532935,0.1599401773333333,4.100872133333334,-1.1415717333333333
795,7.950000238,0.4797231,-0.022287887,2.0658524,0.5579217085714285,4.400303657142857,-0.9700690428571428
796,7.960000238,0.45837606,-0.09803708,1.9919890428571427,1.3062968571428573,4.500831514285714,-0.6485888714285714
797,7.970000238,0.5045264,-0.117080005,1.8176720833333333,1.7399984999999998,4.4510913,-0.4627168
798,7.980000238,0.5477758642857143,-0.1176549514285714,1.5666070857142855,2.1480443,4.2226343,-0.31000498
799,7.990000238,0.6219570416666668,-0.0831298528333333,1.3196958333333333,2.1948759,3.72133245,-0.2825168616666667
800,8.000000238,0.7057075571428572,-0.0519411817142857,1.2310387571428572,1.8948045428571427,3.2623825,-0.3782453528571428
801,8.010000238,0.689217025,-0.0090706521666666,1.3529244833333334,1.7668757,3.1210731333333332,-0.5126026483333334
802,8.020000238,0.6933200642857144,0.0399849107142857,1.297506,1.7401729285714287,3.1288686857142856,-0.6227587528571429
803,8.030000238,0.70798848,0.0893344783333333,1.1005825333333332,1.4769268666666668,3.357674766666667,-0.79420322
804,8.040000238,0.6802618228571429,0.1240838928571428,0.8818197428571429,0.9043593285714284,3.8357061714285714,-0.9695454714285712
805,8.050000238,0.6000742285714286,0.1205906642857142,0.8344040742857143,0.2411537585714285,4.438001442857143,-1.1002668
806,8.060000238,0.4602758533333334,0.092617196,0.9814952833333336,-0.21349112,4.9499498,-1.1525669666666667
807,8.070000238,0.2641922285714285,0.0472806314285714,1.3457144142857145,-0.3307737971428571,5.179744714285714,-1.1067243285714286
808,8.080000238,0.15732625,0.03506302,1.5770432,-0.16584504,5.1108065,-1.0063709
809,8.090000238,0.25665697,-0.0262950897142857,1.7292952285714287,0.6256384857142857,4.129436642857143,-0.6852397571428571
810,8.100000238,0.3882035633333333,-0.0137406401333333,1.6658695666666663,1.0925003333333334,3.638257166666667,-0.6744772
811,8.110000238,0.4449170914285714,-0.0093428792999999,1.5364224285714283,1.3141506285714286,3.617197428571429,-0.8157865571428572
812,8.120000238,0.3860025085714285,-0.0223227309285714,1.4330888571428573,1.3780277428571428,3.8343099142857144,-0.9320220714285714
813,8.130000238,0.26763758,-0.044972137,1.3508105,1.3918154333333332,4.380640166666667,-0.9994479833333334
814,8.140000238,0.0579694113142857,-0.1078372985714285,1.4559864285714286,1.6691401428571429,5.0137688,-0.822418557142857
815,8.150000238,0.0011281146,-0.14601462,1.54384,1.9330262,5.2036552,-0.6814001
816,8.160000238,0.0487310665714285,-0.2075513014285714,1.4623763285714286,2.7454531,5.2036552,-0.39796698
817,8.170000238,0.1800889057142857,-0.2485902985714286,1.066773922857143,3.7292878857142857,4.8413356571428565,-0.1253545835714285
818,8.180000238,0.28581951,-0.2305418883333333,0.579103925,4.2666154,4.4339876,-0.029015245
819,8.190000238,0.35643632,-0.0994003957142857,-0.1891835128571428,4.011564814285714,3.625923814285714,-0.1532790279999999
820,8.200000238,0.314744,-0.03789855,-0.38191253,3.6666107,3.4493017,-0.2391466999999999
821,8.210000238,0.1910433817142857,-0.0006620585714285,-0.3705529771428572,2.7115946714285712,3.607773042857143,-0.3655048142857143
822,8.220000238,0.023263554,0.0273491556666666,-0.1563302533333333,1.9147008,3.912731166666667,-0.4134417866666666
823,8.230000238,-0.0290478601428571,0.0558961178571428,0.03801616,1.5471452285714289,4.041998128571429,-0.3630614428571429
824,8.240000238,-0.0083033296666666,0.0980443366666666,0.36801944,1.3221788666666667,3.9029577,-0.323443625
825,8.250000238,0.0250580842857142,0.1855552414285714,0.6501380857142858,1.4928671,3.5887494714285713,-0.3855755057142857
826,8.260000238,0.1316453171428571,0.2539520928571429,0.6630787571428571,1.8368613571428571,3.254005142857143,-0.5098393
827,8.270000238,0.12659276,0.2959624,0.5886624,1.9354695,3.171977,-0.58488625
828,8.280000238,0.12659276,0.2959624,0.5886623999999999,1.9354695,3.1719770000000005,-0.58488625
829,8.290000238,-0.0034148266666666,0.3626736,0.1057683666666666,1.1715032333333333,3.4228317333333336,-0.98438039
830,8.300000238,-0.2666531885714285,0.38396404,-0.2053342857142857,0.1575549585714286,4.0788234857142855,-1.0175406714285715
831,8.310000238,-0.48972372,0.3322449966666667,0.1194277066666666,-0.4264731866666666,4.417291033333333,-0.9155582333333332
832,8.320000238,-0.5335328857142857,0.2680687728571428,0.57784297,-0.0799773457142857,4.229615557142857,-0.7859422542857143
833,8.330000238,-0.5404322028571428,0.1880815314285714,0.7130119928571429,0.8499067142857142,3.800800771428572,-0.6000701857142857
834,8.340000238,-0.5109546066666667,0.0916211943333333,0.4751598233333333,1.80393375,3.3403673166666668,-0.4211791866666667
835,8.350000238,-0.4834210714285714,0.0259117918571428,-0.0392836442857142,2.9669287142857144,2.7110492285714285,-0.2157599785714285
836,8.360000238,-0.4435015,-0.028141886,-0.79339993,3.700818,2.3009088,-0.0839915
837,8.370000238,-0.4424212757142857,-0.0173006611428571,-1.2805146042857145,3.626469271428572,2.238078857142858,-0.0347746621428571
838,8.380000238,-0.4661959166666666,0.0360437699999999,-2.2144432333333337,2.6147317666666665,2.2011371333333334,0.0756432533333333
839,8.390000238,-0.5657734714285714,0.0966389142857142,-2.4006148285714284,1.638074157142857,2.0647292,0.14813046
840,8.400000238,-0.6297471333333333,0.1296874416666666,-2.1880646,0.6628710766666667,1.5058403133333331,0.2434226299999999
841,8.410000238,-0.6771562542857144,0.1789259414285714,-1.6382096857142856,0.1636634332857142,0.7855059242857143,0.3104412942857142
842,8.420000238,-0.6473853342857143,0.2029822371428571,-1.0832077857142857,-0.0431519968571428,-0.4072169542857143,0.4093985571428571
843,8.430000238,-0.62767889,0.26488335,-0.7160986466666667,0.0202597633333333,-1.0519807666666667,0.4621059533333334
844,8.440000238,-0.64419265,0.3518715785714286,-0.4519253171428571,0.1355644514285714,-1.4812609285714284,0.4788606314285714
845,8.450000238,-0.65062735,0.412859445,-0.3561691433333333,0.184170445,-1.7609708,0.4887796166666666
846,8.460000238,-0.6392446000000002,0.44578817,-0.25306356,0.14446537,-1.7406093000000002,0.4755446
847,8.470000238,-0.6470891671428571,0.4732070728571428,-0.1399907357142857,-0.0052794645714285,-1.5144212857142858,0.3806014514285714
848,8.480000238,-0.72635335,0.48240623,-0.04439283,-0.1927223,-1.205507,0.25808296
849,8.490000238,-0.8286546100000001,0.4681893414285714,-0.0140644088571428,-0.2813824228571428,-0.9698945371428572,0.2280641857142857
850,8.500000238,-0.8749901000000001,0.46069762,-0.035124,-0.3246653183333333,-0.8117141833333333,0.247494945
851,8.510000238,-0.8841195657142856,0.4357179085714285,-0.0755749677142857,-0.3166370428571428,-0.7700602457142857,0.3128846942857142
852,8.520000238,-0.85547674,0.41481078,-0.07369333,-0.266024,-0.80845636,0.36437038
853,8.530000238,-0.7908823571428572,0.3812591857142857,-0.1109254628571428,-0.063222688,-0.9691964142857142,0.4169032599999999
854,8.540000238,-0.7775714857142858,0.3549118285714285,-0.1900764171428571,0.1509229057142857,-1.1306346142857142,0.48671437
855,8.550000238,-0.7802894,0.311817,-0.3333426,0.38025242,-1.3264549,0.59771407
856,8.560000238,-0.7746053,0.3027223785714286,-0.4119491142857142,0.43767205,-1.4290771,0.65513366
857,8.570000238,-0.7283047000000001,0.2798639,-0.5674112,0.45477578,-1.8004723,0.8481614
858,8.580000238,-0.65289957,0.2887842628571428,-0.6703178485714286,0.3003187014285715,-2.061915057142857,0.9537507171428572
859,8.590000238,-0.57724911,0.33085264,-0.8292658766666667,-0.1397822166666666,-2.2549426333333336,1.0106468
860,8.600000238,-0.5055085914285715,0.3330290171428571,-0.8731127757142857,-0.7023870785714286,-2.3149802142857143,1.0008732571428571
861,8.610000238,-0.39307172,0.3196223133333333,-0.7046345866666667,-1.3933934666666667,-2.278155,0.9165763
862,8.620000238,-0.3287299857142857,0.2922949285714286,-0.5051775771428572,-1.9168605142857145,-2.2045042,0.7902181571428571
863,8.630000238,-0.3240694071428572,0.2384634028571428,-0.2217376728571428,-2.141477857142857,-2.1605231714285713,0.6713647428571428
864,8.640000238,-0.3707838,0.20150566,0.05979007,-2.1964541,-2.1728856000000003,0.567986125
865,8.650000238,-0.4300947571428571,0.1669304642857143,0.1597262314285714,-2.044265814285714,-2.258607728571429,0.5736292199999999
866,8.660000238,-0.4875640166666666,0.1448915816666666,0.197892655,-1.8020503,-2.4548934,0.6632783083333332
867,8.670000238,-0.5232491457142857,0.1753368828571428,0.1208563481428571,-1.4915363,-2.8499079000000003,0.88114715
868,8.680000238,-0.4352997999999999,0.1892285199999999,0.0587432646666666,-1.5131196000000002,-3.2656913000000003,1.142589766666667
869,8.690000238,-0.3510265599999999,0.20321308,0.09518848,-1.5929370000000005,-3.4644203,1.2476555
870,8.700000238,-0.1348336514285714,0.2192375385714285,0.2628463428571428,-1.7648468285714287,-3.690761,1.2570800285714283
871,8.710000238,-0.0462018808,0.2208868833333333,0.3648587,-1.8967317333333331,-3.662436566666667,1.1478838
872,8.720000238,0.0080231162,0.2093284185714285,0.4662772085714285,-2.0383319428571425,-3.459184357142857,0.9588120942857142
873,8.730000238,-0.0221964176666666,0.18524455,0.4899777466666666,-2.1251885,-3.24064645,0.8316685633333334
874,8.740000238,-0.1059948614285714,0.1732810242857143,0.5255053714285715,-2.184237,-3.0380487,0.7369872299999999
875,8.750000238,-0.24209745,0.1745884316666666,0.6251431666666666,-2.282787116666667,-3.193611166666667,0.7899273
876,8.760000238,-0.2636434,0.14976484,0.784375,-2.3235102,-3.5071795,0.8958075
877,8.770000238,-0.2461685485714286,0.1976813914285714,0.9188428071428572,-2.247590628571429,-3.9567413,1.1209483857142857
878,8.780000238,-0.0374107233333333,0.2329200833333333,0.9772521,-2.3528309333333333,-4.5286687,1.3673816
879,8.790000238,0.3514185685714285,0.2561386314285714,1.0315628,-2.4928022857142857,-4.719602214285715,1.3398062285714285
880,8.800000238,0.6232985333333333,0.2674749566666666,1.0349384333333334,-2.681874,-4.5140088333333335,0.96503689
881,8.810000238,0.70567705,0.2343865128571428,1.0245240285714283,-2.8921218285714287,-3.9893562571428567,0.47275217
882,8.820000238,0.2977409466666667,0.1101588699999999,1.2147964666666666,-3.2283786333333335,-2.6556584,-0.32629424
883,8.830000238,-0.0238864228571428,0.042010292,1.379396742857143,-3.0561778428571427,-2.0699431714285716,-0.3857500342857142
884,8.840000238,-0.4361230157142857,-0.0578343845714285,1.5800791571428572,-2.5551085571428573,-1.3428603714285714,-0.2616607757142857
885,8.850000238,-0.5606628033333333,-0.1019165126666666,1.6302476,-2.065529033333333,-1.28980405,-0.02494293
886,8.860000238,-0.64070815,-0.10890879,1.6297598,-1.2459757,-1.4486243,0.36803547
887,8.870000238,-0.5860046916666667,0.0139134158333333,1.26449455,-0.011911522,-2.9427567,1.3844854
888,8.880000238,-0.1751713557142857,0.1640644548571428,0.8555029142857142,-0.1560714762857142,-3.987567271428571,1.836861371428571
889,8.890000238,0.5324294333333334,0.2817949133333333,0.6615426566666667,-0.8211314399999999,-5.2677939333333335,2.2905753333333334
890,8.900000238,1.0507843142857145,0.2989590928571428,0.7019181271428571,-1.6892763285714287,-5.002860685714286,1.9801485428571428
891,8.910000238,1.0932215142857145,0.2897599428571428,0.8216463842857143,-2.5329437142857145,-4.086873514285714,1.4141550428571428
892,8.920000238,0.8465230233333333,0.2502483466666667,1.0946472133333334,-3.1204623999999996,-3.1500375,0.8852195333333333
893,8.930000238,0.4433577757142857,0.1604100635714285,1.4946995714285711,-3.1875973142857146,-2.4678665571428575,0.5209218285714285
894,8.940000238,0.275503875,0.1177660208333333,1.6539531833333332,-2.8484316666666665,-2.1358275166666667,0.4124237116666666
895,8.950000238,0.18745868,0.0919609442857142,1.7210498714285714,-2.400477,-2.0594716,0.43278527
896,8.960000238,0.12659276,0.07021751,1.7051605,-1.7297667,-2.0949006,0.50975204
897,8.970000238,0.1939311771428571,0.0694509185714285,1.1555116714285714,-0.6985256342857143,-2.6663046571428572,0.7453645657142857
898,8.980000238,0.2798334,0.06655876,0.7658374,-0.44439137,-3.173657,0.8799255
899,8.990000238,0.4894289833333333,0.0654204833333333,0.5217530466666667,-1.00659995,-3.890944316666667,0.9636115266666666
900,9.000000238,0.7002020314285714,0.0498940299142857,0.5689835557142857,-1.8992332,-4.165476371428571,0.9760902714285714
901,9.010000238,0.914489355,0.00432952115,0.928727935,-2.5641841666666667,-4.0587235999999995,0.9084316666666666
902,9.020000238,1.0486630857142856,0.0181630800571428,1.2874313571428573,-2.7648910428571427,-3.7923362714285713,0.7497277142857143
903,9.030000238,1.1441215999999998,0.0407137563333333,1.5425951,-2.66029065,-3.55169515,0.5580089300000001
904,9.040000238,1.1410726,0.043356188,1.6888181,-2.276038657142857,-3.038397914285714,0.2113095214285714
905,9.050000238,0.9356287333333334,0.0735916913333333,1.7178238,-1.7678428833333333,-2.4878790333333334,-0.0691275483333333
906,9.060000238,0.7442028357142857,0.0514664177142857,1.6468601571428572,-1.281732042857143,-2.166282471428571,-0.1293687224285714
907,9.070000238,0.6338523399999999,0.0224838908571428,1.4822423571428571,-0.7349801571428571,-2.161046785714286,0.0057157867142857
908,9.080000238,0.64664344,0.0028558576666666,1.357477533333333,-0.4574227933333333,-2.3726326666666666,0.1273616566666666
909,9.090000238,0.7164529714285715,-0.0199532541428571,1.221595714285714,-0.3012785971428571,-2.6579273999999997,0.2114840542857143
910,9.100000238,0.781437875,-0.0224860676383333,1.122662133333333,-0.3102086166666666,-2.83137885,0.2334454666666666
911,9.110000238,0.7978035357142856,-0.0026046815928571,1.0269022285714284,-0.5616740428571428,-2.700861214285714,0.2511018557142857
912,9.120000238,0.8029388428571428,0.0102532108571428,1.0380918857142858,-0.9851438857142856,-2.379032,0.3071252828571428
913,9.130000238,0.8423763666666666,0.043366351,1.151185,-1.3314943333333331,-2.001644733333334,0.33545695
914,9.140000238,0.8838625,0.059973013,1.252695,-1.5705974285714286,-1.559449442857143,0.3237054071428571
915,9.150000238,0.9011805699999998,0.07168101,1.469659,-1.7151064,-1.0222529,0.30695075
916,9.160000238,0.9158286542857142,0.0714370942857142,1.5857937857142856,-1.6482622571428571,-0.7375980728571429,0.28513478
917,9.170000238,0.93234605,0.0643635133333333,1.858233383333333,-1.2353367666666666,-0.0750324046666666,0.16889927
918,9.180000238,0.9118432714285716,0.0529647645714285,1.9263013714285715,-0.7906545285714286,0.0224704528571428,0.0694184248571428
919,9.190000238,0.9041076,0.026769855,1.7965174,-0.3077652116666666,0.0725890149999999,-0.0302369383333333
920,9.200000238,0.8979051514285714,0.0087897115714285,1.6234789142857142,0.0633099557142857,0.1778001857142857,-0.1663686085714285
921,9.210000238,0.8983930028571429,0.0124136165714285,1.5393276142857142,0.1716917128571428,0.3004932214285714,-0.2482221499999999
922,9.220000238,0.90570835,0.0148179379999999,1.50395965,0.1485376890833333,0.5044580333333334,-0.2896434266666667
923,9.230000238,0.9398632285714286,0.0042511194285714,1.536217657142857,-0.0757886896428571,0.8739915428571429,-0.2983116171428571
924,9.240000238,0.9797777166666668,-0.021149608,1.630110333333333,-0.2819060033333333,1.2462302333333333,-0.3297557116666667
925,9.250000238,0.9240957371428572,-0.0495760645714285,1.792635057142857,-0.3740566857142857,1.859571771428571,-0.4068679142857143
926,9.260000238,0.80968136,-0.085980624,1.9587424,-0.26724568,2.540361,-0.42362258
927,9.270000238,0.6564103,-0.12869653,2.1156416,0.12003148,3.127996200000001,-0.32955208
928,9.280000238,0.5996865357142858,-0.1373381485714286,2.1167263,0.9418828071428572,3.5814192714285715,-0.1194206397142857
929,9.290000238,0.65291412,-0.1497546733333333,1.9063306333333336,1.6080553666666664,3.6818309666666664,0.0858240406666666
930,9.300000238,0.8023857142857143,-0.1655976371428571,1.6535983,2.0108655,3.5503534714285716,0.2446443271428571
931,9.310000238,0.9706461333333332,-0.14829117,1.4899955,2.0189519,3.3434215999999997,0.2124730366666666
932,9.320000238,1.133681157142857,-0.118578345,1.4086841142857145,1.8457622571428571,3.2227647142857143,0.0043195628571428
933,9.330000238,1.17894575,-0.0913467891666666,1.3850249666666663,1.7127138666666666,3.2811152166666666,-0.21104773
934,9.340000238,1.0790698571428572,-0.0830884722857142,1.381099771428571,1.5745459857142856,3.5438958,-0.5222307828571429
935,9.350000238,0.8684217828571429,-0.0890818557142857,1.488562457142857,1.5131122428571426,3.8308194571428578,-0.7044377714285713
936,9.360000238,0.68032426,-0.10045302,1.6252777333333333,1.6206795166666668,3.948363916666666,-0.6871013499999999
937,9.370000238,0.5808963,-0.1070271542857142,1.6439548285714287,2.059384285714286,3.9992388571428568,-0.5199618857142857
938,9.380000238,0.569642,-0.1181776233333333,1.5185997666666664,2.56321695,3.9581375,-0.3350497249999999
939,9.390000238,0.6240912857142857,-0.1002323242857142,1.1787882571428572,2.816834885714286,3.836753428571429,-0.2274533428571428
940,9.400000238,0.6769500666666667,-0.084593345,0.9897427416666668,2.739140866666667,3.6822381,-0.196183775
941,9.410000238,0.7835954,-0.0265999845714285,0.9210380071428572,2.3897654285714287,3.4271367714285716,-0.2305948428571428
942,9.420000238,0.8437252428571428,0.0301585534285714,0.9660537142857144,1.9583327714285712,3.2288731142857143,-0.4400281714285713
943,9.430000238,0.8381332166666667,0.0618430381666666,1.0668050666666666,1.6854294333333335,3.1334937833333334,-0.66653616
944,9.440000238,0.72293851,0.0775001662857143,1.2201278285714283,1.5885083285714283,3.1103688857142857,-0.95488518
945,9.450000238,0.53926927,0.0787546,1.3029724,1.6544797,3.136548,-1.1517525
946,9.460000238,0.3010033366666667,0.0514257666666666,1.2939372999999998,1.9004476,3.3983977333333333,-1.2266831
947,9.470000238,0.2008087557142857,0.035934154,1.2158462,2.0827709857142858,3.628716314285714,-1.1716486857142858
948,9.480000238,0.19223683,0.013354438,1.0167056,2.2189026666666667,3.9176180666666665,-0.9729778666666666
949,9.490000238,0.2433155871428571,0.0102880569285714,0.8022289285714285,2.0827710285714285,3.9805642857142858,-0.9135220571428572
950,9.500000238,0.2923559085714285,0.0308467485714285,0.7866007714285715,1.752913457142857,3.841640257142857,-0.9011306071428572
951,9.510000238,0.3195410033333333,0.0440066333333333,0.8884156166666667,1.5490068666666663,3.7078938,-0.9418246583333332
952,9.520000238,0.3010410785714286,0.0377809485714285,0.9906631785714284,1.4359710285714284,3.661876571428571,-1.086653642857143
953,9.530000238,0.2754429,0.0138371881666666,1.0736652333333334,1.461248433333333,3.7001562833333335,-1.2429723499999998
954,9.540000238,0.2135054885714285,-0.0365091008571428,1.2418669142857142,1.697762657142857,3.755946957142857,-1.3894593571428573
955,9.550000238,0.0080949833333333,-0.0859450583333333,1.325677,2.2942406166666665,3.82761975,-1.4545291666666664
956,9.560000238,-0.1486977,-0.14064845,1.250012,2.9152687,3.856126,-1.3557755
957,9.570000238,-0.2092195314285714,-0.1753717257142857,0.4653625157142857,3.547757328571429,3.8707864,-0.9609936285714288
958,9.580000238,-0.20336552,-0.14162412,0.16107647,3.570707666666667,3.8632525833333338,-0.7160148300000001
959,9.590000238,-0.2058351857142857,-0.0074351028571428,-0.3351937514285714,2.917013657142857,3.7615320571428574,-0.4595752828571428
960,9.600000238,-0.1159163183333333,0.1189703533333333,-0.3451420766666666,1.8597244766666663,3.669817716666667,-0.3014531
961,9.610000238,0.0437786885714285,0.2090017342857142,-0.0641021657142857,0.7849823485714287,3.475131957142857,-0.3461322142857143
962,9.620000238,0.07154381,0.2389722833333333,0.4552094933333333,0.5612668083333333,3.417945,-0.495906145
963,9.630000238,-0.0780402642857142,0.2052341071428571,0.9651172514285714,0.6600205,3.2367269999999997,-0.68628687
964,9.640000238,-0.1738341771428571,0.1862434514285714,1.1184145857142858,1.121122842857143,3.1203168285714287,-0.6660416428571428
965,9.650000238,-0.2944836383333333,0.1648317716666666,1.1277945,2.2696030833333336,2.7508997999999996,-0.4309527499999999
966,9.660000238,-0.2294166985714285,0.1630147357142857,0.78151772,3.0531455,2.698657742857143,-0.1953402371428571
967,9.670000238,-0.19107823,0.1870332733333333,0.3283423433333333,3.2530669833333334,2.79325175,-0.095597595
968,9.680000238,-0.1556319028571428,0.20823514,-0.0132063442857142,3.1381405714285715,3.2009487857142855,-0.080326414
969,9.690000238,-0.1002294266666666,0.2461830566666666,-0.4159287333333333,2.6399800666666664,3.4961334,-0.1809125993333333
970,9.700000238,-0.0632963742857142,0.2963108357142857,-0.5274480257142857,2.0318088285714286,3.518589228571429,-0.4288584214285714
971,9.710000238,-0.0948886666666666,0.3161668116666666,-0.5034287749999999,1.65488705,3.3470866666666663,-0.7302679083333334
972,9.720000238,-0.15528345,0.31352437,-0.48612595,1.5286452999999998,3.196411,-0.8890882
973,9.730000238,-0.2724418585714285,0.2566308271428572,-0.5198125642857142,1.4719237285714288,3.103038571428571,-0.9737342
974,9.740000238,-0.45889873,0.08133096,-0.5656478666666667,1.5249802166666668,2.9486105833333336,-1.0918895666666666
975,9.750000238,-0.7777980257142857,-0.0755052785714285,-0.7576095428571429,1.8797951857142856,2.741940728571429,-0.9493002814285714
976,9.760000238,-1.028088433333333,-0.1212062553333333,-1.0816891,2.1932470666666664,2.1961995,-0.48430006
977,9.770000238,-1.1136625,-0.1096405459999999,-1.2834285,2.3007562,1.7644323,-0.16584504
978,9.780000238,-1.0707128833333333,-0.040413944,-1.5720988333333334,2.0940862,0.839202345,0.3824921833333333
979,9.790000238,-0.9772347,0.0335733878571428,-1.7586218285714286,1.4951359714285717,0.0317204228571428,0.8382133057142858
980,9.800000238,-0.8026469714285714,0.1622829885714285,-1.655296942857143,0.6188319328571429,-0.4110565685714286,1.0492173971428571
981,9.810000238,-0.6554345766666666,0.2793557333333333,-1.3813001333333332,-0.2835349266666667,-0.6850652,1.1336307
982,9.820000238,-0.5699374542857143,0.3364220757142857,-1.11689451,-0.75731968,-0.7445792142857143,1.1350851714285717
983,9.830000238,-0.5228709500000001,0.3894231283333333,-0.8460554516666666,-0.98967435,-0.81741545,1.1022738666666667
984,9.840000238,-0.4706067,0.4943581199999999,-0.38093686,-1.1566393,-1.0088142,1.0167552
985,9.850000238,-0.43276918,0.53658617,-0.18424855,-1.0332482,-1.2323843,0.93368006
986,9.860000238,-0.4218626,0.5894725628571429,-0.1379130942857143,-0.9604700771428571,-1.3779405142857144,0.8472887728571428
987,9.870000238,-0.4118271714285714,0.6380816857142857,-0.0969002514285714,-0.9281824228571428,-1.5971474428571428,0.6053932642857143
988,9.880000238,-0.4183780766666667,0.6356722333333333,-0.1059767159999999,-1.026961525,-1.5414730666666667,0.4160888
989,9.890000238,-0.46284928,0.6078403142857143,-0.1095055165714285,-1.2173531714285717,-1.3357048714285715,0.1922859921428571
990,9.900000238,-0.5378464,0.5494527566666666,-0.04323423,-1.4170129666666669,-1.0534060333333333,-0.0575214508333333
991,9.910000238,-0.6626692942857143,0.4503398714285714,0.0752439342857142,-1.4198053571428573,-0.8562769714285714,-0.2185524257142857
992,9.920000238,-0.7427872533333333,0.37747121,0.1427014133333333,-1.2406562333333333,-0.8013297766666666,-0.2460696166666666
993,9.930000238,-0.7929077714285714,0.3208026971428572,0.1531273971428571,-0.9383050057142858,-0.8691920228571429,-0.1752695318571428
994,9.940000238,-0.8241203285714286,0.2689965442857143,0.0923224588571428,-0.5461410571428572,-1.0112576428571427,-0.0253501611428571
995,9.950000238,-0.8469091,0.24056281,-0.021464668,-0.20371756,-1.2165023,0.15790401
996,9.960000238,-0.8385811428571428,0.2461729114285714,-0.41169214,-0.0665387195714285,-1.7809252142857142,0.46734177
997,9.970000238,-0.7372229,0.2519049499999999,-0.6288934,-0.3075616026666666,-2.2533137666666665,0.7133677866666667
998,9.980000238,-0.5881571457142858,0.2541873142857143,-0.6480778928571428,-0.94901668,-2.6099322,0.8886519
999,9.990000238,-0.50280374,0.2534904,-0.58448535,-1.48726035,-2.6868117,0.93490173
