id,timestamp,acc_x,acc_y,acc_z,gyro_x,gyro_y,gyro_z
0,1778415869870,0.4422819,0.47411305,0.6711367,-0.09728029,-1.3109168,0.52580225
1,1778415869880,0.45850238,0.5861928,0.65387964,-0.0870483,-1.4761559,0.5560401
2,1778415869890,0.5019805,0.63503706,0.7356527,-0.15393804,-1.5554156,0.46486846
3,1778415869900,0.52893335,0.64211065,0.84590304,-0.2527455,-1.4982997,0.3680463
4,1778415869910,0.5454587,0.59174186,1.0353652,-0.4792238,-0.81199265,0.24404067
5,1778415869920,0.52173775,0.55320305,0.9943873,-0.4802928,-0.5056437,0.3313944
6,1778415869930,0.59338826,0.53490925,0.9183462,-0.4120286,-0.28038713,0.47662762
7,1778415869940,0.5927785,0.58972955,0.7818139,-0.3023783,-0.25442538,0.50610185
8,1778415869950,0.58168024,0.6909549,0.6785762,-0.14828753,-0.42531493,0.36850446
9,1778415869960,0.58168024,0.6909549,0.6785762,-0.14828753,-0.42531493,0.36850446
10,1778415869970,0.5322872,0.70619977,0.725835,0.012370021,-0.7893906,-0.0936151
11,1778415869980,0.4923458,0.6465011,0.8479763,-0.00076358154,-0.74479747,-0.22434026
12,1778415869990,0.4923458,0.6465011,0.8479763,-0.00076358154,-0.74479747,-0.22434026
13,1778415870000,0.4908823,0.57588726,0.8707825,-0.07620544,-0.5899431,-0.21609358
14,1778415870010,0.45862433,0.53966564,0.77675265,-0.21578814,-0.34315357,-0.12370021
15,1778415870020,0.4538679,0.5687527,0.7036386,-0.39828414,-0.02855795,-0.010079277
16,1778415870030,0.44155017,0.5955225,0.6655876,-0.43096542,0.011453724,-0.021991149
17,1778415870040,0.41850004,0.6086331,0.6363786,-0.49434268,0.02977968,-0.06414085
18,1778415870050,0.40368208,0.60759646,0.5950957,-0.6052147,0.003970624,-0.09728029
19,1778415870060,0.3996575,0.5905222,0.58454627,-0.68951416,-0.051159963,-0.11255192
20,1778415870070,0.3787416,0.5642402,0.6013156,-0.74296486,-0.07620544,-0.11927144
21,1778415870080,0.3605698,0.5417999,0.5839975,-0.7490735,-0.0917825,-0.11438452
22,1778415870090,0.3460568,0.5153959,0.529726,-0.73532903,-0.35231653,-0.039095376
23,1778415870100,0.3460568,0.5153959,0.529726,-0.73532903,-0.35231653,-0.039095376
24,1778415870110,0.45008725,0.40734085,0.42782986,-0.6377433,-0.64721173,0.07574729
25,1778415870120,0.41929275,0.49685827,0.55777645,-0.17058411,-0.8426886,0.0720821
26,1778415870130,0.37422916,0.57363105,0.66839266,0.04138612,-0.83184576,0.036957346
27,1778415870140,0.4808817,0.49929744,0.58332676,0.16508633,-0.79504114,0.0125227375
28,1778415870150,0.46789315,0.5432024,0.6064378,0.17211129,-0.81077087,-0.0035124752
29,1778415870160,0.4751497,0.5334458,0.5947908,0.15332718,-0.7866417,-0.071776666
30,1778415870170,0.485882,0.53436047,0.5923516,0.16249016,-0.7903069,-0.1282817
31,1778415870180,0.54661727,0.47874746,0.5846682,0.1910481,-0.82787514,-0.16523905
32,1778415870190,0.6050963,0.45923412,0.5933273,0.19608775,-0.838718,-0.13103059
33,1778415870200,0.60223025,0.4665516,0.603023,0.2182316,-0.87857693,-0.086132
34,1778415870210,0.60223025,0.4665516,0.603023,0.2182316,-0.87857693,-0.086132
35,1778415870220,0.61387724,0.47527164,0.5834487,0.35246924,-1.0276281,-0.044745877
36,1778415870230,0.63217103,0.468381,0.5488735,0.46395215,-1.001819,-0.06307184
37,1778415870240,0.61765796,0.46581987,0.47453988,0.57818395,-1.1349876,-0.0852157
38,1778415870250,0.64558643,0.46277088,0.41508517,0.6630942,-1.4008667,-0.05207626
40,1778415870270,0.6822349,0.48027194,0.42947626,0.70280045,-1.6423112,0.048716504
41,1778415870280,0.7308353,0.48136955,0.4871626,0.6930266,-1.8869628,0.18906279
42,1778415870290,0.73034745,0.48350382,0.57710683,0.6059783,-1.8382462,0.31123585
43,1778415870300,0.7226641,0.47575948,0.60491335,0.52458054,-1.7725782,0.3830125
44,1778415870310,0.7455923,0.5050904,0.68247885,0.3378085,-1.5931365,0.52473325
45,1778415870320,0.74144566,0.5495443,0.71388316,0.2509129,-1.434617,0.59315014
46,1778415870330,0.7483363,0.6046084,0.6998579,0.29917124,-1.2563971,0.5879578
47,1778415870340,0.76388603,0.6513185,0.67424667,0.40958515,-1.1363621,0.5209153
48,1778415870350,0.77108157,0.670283,0.64394003,0.49434268,-1.042747,0.44929138
49,1778415870360,0.7632762,0.6946137,0.6341224,0.5158757,-0.9138544,0.3465133
50,1778415870370,0.7544343,0.693638,0.620524,0.44180828,-0.81336707,0.28130344
51,1778415870380,0.7650446,0.69308925,0.59857154,0.3182608,-0.6728681,0.22036964
52,1778415870390,0.76291037,0.68766207,0.56795996,0.20937407,-0.5540548,0.17760907
53,1778415870400,0.7662642,0.6798567,0.5626548,0.15500705,-0.4897612,0.16355917
54,1778415870410,0.7803504,0.67205137,0.56119126,0.07895433,-0.3857614,0.12889257
55,1778415870420,0.7784601,0.6588799,0.5753994,0.046120327,-0.2649628,0.062155537
56,1778415870430,0.77455735,0.63211006,0.58722943,0.035277467,-0.15515977,-0.0036651916
57,1778415870440,0.7721182,0.6107064,0.58790016,0.058490347,-0.084146686,-0.030695979
58,1778415870450,0.7841921,0.5886929,0.58113146,0.11804971,-0.039858956,-0.037415497
59,1778415870460,0.79394877,0.579485,0.58503413,0.2275473,0.0065668016,-0.032223143
60,1778415870470,0.8065714,0.58722943,0.5728383,0.32360587,0.04230242,-0.038026363
61,1778415870480,0.81059605,0.5984496,0.5868635,0.4072944,0.0936151,-0.07192938
62,1778415870490,0.8188282,0.5721675,0.59472984,0.4633413,0.2284636,-0.121256754
63,1778415870500,0.81242543,0.54826367,0.5871074,0.4334089,0.35155296,-0.14889841
64,1778415870510,0.80986434,0.5321652,0.5775337,0.40576723,0.41080686,-0.15332718
65,1778415870520,0.83029234,0.5121031,0.56735015,0.39920044,0.4868596,-0.13729197
66,1778415870530,0.83956116,0.52039623,0.5672282,0.47815478,0.51053065,-0.13439035
67,1778415870540,0.8336462,0.50679785,0.5683259,0.6249151,0.5242751,-0.14935656
68,1778415870550,0.8441956,0.4974071,0.53283596,0.7619017,0.50778174,-0.14462234
69,1778415870560,0.84224427,0.5139934,0.5336897,0.91706145,0.4708244,-0.14248432
70,1778415870570,0.83504874,0.5359459,0.5408852,1.0210613,0.47510046,-0.16920967
71,1778415870580,0.84706163,0.52759176,0.5102737,1.0535898,0.46288314,-0.18921551
72,1778415870590,0.8479763,0.5339336,0.50246835,1.071763,0.44944412,-0.18325958
73,1778415870600,0.85389125,0.5582643,0.5013097,1.077719,0.4361578,-0.18081611
74,1778415870610,0.86767256,0.57003325,0.51966447,1.1049025,0.38896844,-0.23625213
75,1778415870620,0.8490739,0.56234986,0.597108,1.0009027,0.5028948,-0.38683042
76,1778415870630,0.84321994,0.5380192,0.61088926,0.90209526,0.74220127,-0.33292156
77,1778415870640,0.7934609,0.5302748,0.60674274,0.82359904,1.075581,-0.24831672
78,1778415870650,0.81382793,0.50063896,0.42106113,0.79366666,1.1661417,-0.14034629
79,1778415870660,0.7998637,0.5380192,0.34111744,0.81306165,1.0164797,-0.064751714
80,1778415870670,0.79242426,0.57844836,0.3029445,0.84589565,0.7823657,-0.029932396
81,1778415870680,0.8217553,0.5453367,0.33904418,0.81382525,0.41355577,-0.0009162979
82,1778415870690,0.8217553,0.5453367,0.33904418,0.81382525,0.41355577,-0.0009162979
83,1778415870700,0.8374879,0.5547885,0.44057447,0.70463306,0.39354995,-0.10751228
84,1778415870710,0.8560255,0.6125967,0.608938,0.70463306,0.39354995,-0.10751228
85,1778415870720,0.822609,0.59790075,0.56393534,0.7472409,0.92271197,-0.28206703
86,1778415870730,0.7907169,0.58747333,0.43276918,0.81061816,0.91156363,-0.24846944
87,1778415870740,0.76961803,0.597169,0.40898728,0.8573494,0.74006325,-0.20143281
88,1778415870750,0.7716913,0.5860098,0.4299641,0.8556695,0.6339254,-0.17837265
89,1778415870760,0.7834603,0.56070346,0.45728278,0.7965683,0.56673026,-0.106901415
90,1778415870770,0.7775454,0.59351027,0.52375007,0.7089091,0.61422503,-0.05085453
91,1778415870780,0.7775454,0.59351027,0.52375007,0.5366451,0.8721629,-0.08552113
92,1778415870790,0.6753443,0.7121757,0.59198576,0.45738536,1.1511755,-0.16630806
93,1778415870800,0.6753443,0.7121757,0.59198576,0.45738536,1.1511755,-0.16630806
94,1778415870810,0.61308455,0.7174199,0.5236281,0.45860708,1.3295482,-0.26389378
95,1778415870820,0.597169,0.6195483,0.3302022,0.76251256,1.244638,-0.40408736
96,1778415870830,0.597169,0.6195483,0.3302022,0.76251256,1.244638,-0.40408736
97,1778415870840,0.64851344,0.57314324,0.2874558,0.9925033,0.8562804,-0.3359759
98,1778415870850,0.66820973,0.6038767,0.3061764,0.9314168,0.6612616,-0.27091873
100,1778415870870,0.6504038,0.6190605,0.34410545,0.80863285,0.60154957,-0.25503623
101,1778415870880,0.62704873,0.64101297,0.35087416,0.6534731,0.59040123,-0.24373524
102,1778415870890,0.5849122,0.7059558,0.36959475,0.44440445,0.5842926,-0.28206703
103,1778415870900,0.53838503,0.7455313,0.39971846,0.3846924,0.61712664,-0.322995
104,1778415870910,0.54484886,0.7587028,0.42392716,0.32711834,0.6693556,-0.41157046
105,1778415870920,0.5644842,0.769923,0.43447655,0.37522396,0.72097373,-0.4830417
106,1778415870930,0.57735074,0.7601053,0.3887422,0.50717086,0.7707592,-0.54168475
107,1778415870940,0.5885709,0.7594345,0.30507877,0.63255095,0.7147123,-0.58352906
108,1778415870950,0.5543006,0.7920584,0.25977126,0.7174612,0.5899431,-0.6444628
109,1778415870960,0.5200913,0.7803504,0.2511732,0.72219545,0.46929723,-0.7058548
110,1778415870970,0.48661375,0.76967907,0.28349215,0.6591236,0.34773505,-0.75426584
111,1778415870980,0.45209953,0.7692522,0.30452996,0.5908594,0.3361286,-0.7742717
112,1778415870990,0.42173192,0.73126215,0.2912365,0.49556443,0.3848451,-0.7489208
113,1778415871000,0.40984097,0.73071337,0.2558076,0.36880988,0.3747658,-0.676686
114,1778415871010,0.40734085,0.73120123,0.24409962,0.23854288,0.35613444,-0.6032294
115,1778415871020,0.4113045,0.75504404,0.23958716,0.11301007,0.34116822,-0.5224425
116,1778415871030,0.3905106,0.80577874,0.2520269,0.08155051,0.3304781,-0.5148067
117,1778415871040,0.31983575,0.81266934,0.2531855,0.14278975,0.29886582,-0.5497787
118,1778415871050,0.28544348,0.7984612,0.21110988,0.22510384,0.28023443,-0.56291234
119,1778415871060,0.20391434,0.85224485,0.24464841,0.25625798,0.1872302,-0.5487097
120,1778415871070,0.19738956,0.80687636,0.23129399,0.3034473,0.15806139,-0.6568329
121,1778415871080,0.2373919,0.7532757,0.25678328,0.24740042,0.079870634,-0.6441574
122,1778415871090,0.26410076,0.75321466,0.24257512,0.24770586,0.090713486,-0.60994893
123,1778415871100,0.27879676,0.7678497,0.24873403,0.25686884,0.12095132,-0.573297
124,1778415871110,0.2725159,0.8452932,0.22592781,0.29031372,0.21594086,-0.5514586
125,1778415871120,0.25367334,0.8754169,0.16452178,0.33765575,0.27366763,-0.57986385
126,1778415871130,0.21635409,0.87828296,0.107750185,0.36377025,0.24449882,-0.61819565
127,1778415871140,0.26330805,0.7719353,0.086834334,0.2843578,0.015882496,-0.54061574
128,1778415871150,0.12598296,0.88169783,0.07305304,0.19807306,-0.03313944,-0.52641314
129,1778415871160,0.16311927,0.8734046,0.09000525,0.2350304,-0.08155051,-0.57696223
130,1778415871170,0.20830485,0.84084177,0.16446081,0.23472497,-0.12385293,-0.573297
131,1778415871180,0.24153848,0.8739534,0.16750978,0.08536842,-0.22800545,-0.5328272
132,1778415871190,0.24153848,0.8739534,0.16750978,0.08536842,-0.22800545,-0.5328272
133,1778415871200,0.26702777,0.8827954,0.19799936,0.00045814895,-0.23839016,-0.52106804
134,1778415871210,0.27263784,0.9462137,0.21903718,-0.045356743,-0.1910481,-0.52656585
135,1778415871220,0.28080907,0.95584846,0.18586451,-0.03176499,-0.112704635,-0.54244834
136,1778415871230,0.2289158,0.95536065,0.14909407,-0.07819075,-0.15592335,-0.5543602
137,1778415871240,0.14421573,0.93188363,0.085309856,-0.14294247,-0.49205196,-0.5198463
138,1778415871250,0.11890938,0.9509091,0.08482202,-0.11285736,-0.766025,-0.5132795
139,1778415871260,0.11586042,0.9348107,0.07085779,0.025503624,-0.98624194,-0.49296826
140,1778415871270,0.1027499,0.94847,0.07226031,0.11866058,-1.0940597,-0.45738536
141,1778415871280,0.039758418,0.96993464,0.04317325,0.11866058,-1.0940597,-0.45738536
142,1778415871290,0.039758418,0.96993464,0.04317325,0.17913623,-1.1391109,-0.4457789
143,1778415871300,-0.112445585,0.9699956,0.022806209,-0.122783914,-0.84421575,-0.36285394
144,1778415871310,-0.20287769,0.9480431,-0.022928167,-0.37827832,-0.6017023,-0.34147367
145,1778415871320,-0.32636052,0.90310144,-0.120921694,-0.37827832,-0.6017023,-0.34147367
146,1778415871330,-0.44661143,0.8688312,-0.2579419,-0.998612,-0.23640485,0.0065668016
147,1778415871340,-0.50155365,0.8979792,-0.3372148,-1.1137601,-0.3622431,0.2180789
148,1778415871350,-0.31495738,0.7768136,-0.39746222,-1.1090258,-0.7493789,0.43890667
149,1778415871360,-0.6097917,1.1615312,-0.18080322,-1.1242975,-0.8349001,0.6542367
150,1778415871370,-0.52405494,1.2639152,-0.13208087,-0.91706145,-0.9578367,0.46715918
151,1778415871380,-0.40984097,1.2501339,0.07091877,-0.7102836,-1.1846204,0.28863382
152,1778415871390,-0.40984097,1.2501339,0.07091877,-0.7102836,-1.1846204,0.28863382
153,1778415871400,-0.23519666,1.1559211,0.32325056,-0.5670357,-1.0454959,0.33628133
154,1778415871410,-0.23519666,1.1559211,0.32325056,-0.5670357,-1.0454959,0.33628133
155,1778415871420,-0.14689882,1.2073265,0.4850893,-0.6059783,-0.7703011,0.40317106
156,1778415871430,0.007927292,1.1664095,0.5655208,-0.5111415,-0.14110987,0.42394048
157,1778415871440,0.028660208,1.1522014,0.53100663,-0.40790528,0.06811147,0.4280638
158,1778415871450,0.03457519,1.1267121,0.45813647,-0.2454151,0.27107146,0.4268421
159,1778415871460,0.035550855,1.0997593,0.38776654,-0.11209377,0.43676865,0.4428773
160,1778415871470,0.045734376,1.047927,0.30824968,-0.08307768,0.5656612,0.48670688
161,1778415871480,0.09793254,1.0267673,0.22842796,-0.15561792,0.5395467,0.52778757
162,1778415871490,0.115006715,1.0530493,0.22239104,-0.26297748,0.4195117,0.52748215
163,1778415871500,0.16385102,1.0789044,0.23855051,-0.3042109,0.30757064,0.47876564
164,1778415871510,0.16385102,1.0789044,0.23855051,-0.3042109,0.30757064,0.47876564
165,1778415871520,0.20214595,1.0463415,0.29361472,-0.17470746,0.27916542,0.33307427
166,1778415871530,0.19946286,0.980484,0.27550387,-0.15974127,0.35140023,0.3465133
167,1778415871540,0.18043736,0.9605439,0.2800773,-0.19914207,0.36010507,0.3921755
169,1778415871560,0.15714332,0.95377517,0.30306646,-0.26175576,0.3736968,0.44058657
170,1778415871570,0.16049717,0.9318227,0.30367625,-0.29367346,0.43661594,0.48747048
171,1778415871580,0.19982874,0.91419965,0.2763576,-0.355829,0.4804455,0.5578727
172,1778415871590,0.22318375,0.9506652,0.25562465,-0.47051895,0.33628133,0.56245416
173,1778415871600,0.24659975,0.9604219,0.25745404,-0.5148067,0.13271047,0.50885075
174,1778415871610,0.3008712,0.95316535,0.2947733,-0.4934264,-0.044745877,0.43982297
175,1778415871620,0.3252019,0.91529727,0.39362052,-0.3924809,-0.2527455,0.35048392
176,1778415871630,0.3252019,0.91529727,0.39362052,-0.3924809,-0.2527455,0.35048392
177,1778415871640,0.31099376,0.81754774,0.5003341,-0.058643065,-0.11224649,0.41218132
178,1778415871650,0.29635876,0.80827886,0.50624907,-0.01160644,0.082924955,0.50610185
179,1778415871660,0.29568797,0.8004736,0.47710103,-0.14889841,0.28863382,0.61300325
180,1778415871670,0.33026317,0.8242554,0.46179524,-0.37094793,0.40698898,0.65576386
181,1778415871680,0.35508168,0.8641358,0.43130565,-0.6608035,0.47601673,0.6221663
182,1778415871690,0.36081374,0.8592574,0.41526812,-0.8184067,0.41890085,0.54901516
183,1778415871700,0.35093513,0.8221821,0.40526757,-0.77732605,0.27275133,0.4908302
184,1778415871710,0.34794715,0.79394877,0.403987,-0.66645396,0.1600467,0.48349985
185,1778415871720,0.33916613,0.74571425,0.42087823,-0.3408628,-0.05757405,0.54351735
186,1778415871730,0.3420931,0.74327505,0.42722008,-0.06169739,-0.18219055,0.63346726
187,1778415871740,0.34910575,0.7657154,0.4484408,0.0852157,-0.2396119,0.680962
188,1778415871750,0.3931937,0.7959611,0.4811866,0.1339322,-0.23136522,0.689056
189,1778415871760,0.4074628,0.81797457,0.4999682,0.054825157,-0.19486602,0.6458373
190,1778415871770,0.45368502,0.75114137,0.50307816,-0.37125334,-0.069485925,0.53893584
191,1778415871780,0.45368502,0.75114137,0.50307816,-0.37125334,-0.069485925,0.53893584
192,1778415871790,0.44722122,0.7208957,0.4921019,-0.56016344,-0.028710667,0.550695
193,1778415871800,0.4431966,0.71552956,0.47905236,-0.69226307,-0.026725354,0.569021
194,1778415871810,0.4422209,0.7135782,0.4785645,-0.6959282,-0.04718934,0.57650405
195,1778415871820,0.44953844,0.6896744,0.4806378,-0.5488624,-0.06612616,0.61285055
196,1778415871830,0.4681371,0.70382154,0.4897237,-0.28130344,-0.01817324,0.65301496
197,1778415871840,0.48027194,0.74327505,0.4709421,-0.16249016,-0.07192938,0.56001073
198,1778415871850,0.5050904,0.74028707,0.46453932,-0.23640485,-0.1330159,0.48243082
199,1778415871860,0.5132617,0.70711446,0.45252642,-0.30482176,-0.17852537,0.45616361
200,1778415871870,0.5132617,0.70711446,0.45252642,-0.30482176,-0.17852537,0.45616361
201,1778415871880,0.48813823,0.7057729,0.4964314,-0.3594942,-0.24327709,0.4859433
202,1778415871890,0.48813823,0.7057729,0.4964314,-0.33261612,-0.2771801,0.5308419
203,1778415871900,0.49838275,0.7262009,0.4909433,-0.08536842,-0.20861048,0.57619864
204,1778415871910,0.49838275,0.7262009,0.4909433,-0.08536842,-0.20861048,0.57619864
205,1778415871920,0.4973461,0.77199626,0.46392953,-0.027488936,-0.2125811,0.547488
206,1778415871930,0.4973461,0.77199626,0.46392953,-0.027488936,-0.2125811,0.547488
207,1778415871940,0.4973461,0.77199626,0.46392953,-0.027488936,-0.2125811,0.547488
208,1778415871950,0.46161228,0.7826676,0.4323423,-0.049632803,-0.38606682,0.3724751
209,1778415871960,0.45880726,0.77248406,0.45819747,-0.060322944,-0.7490735,0.3659083
210,1778415871970,0.45880726,0.77248406,0.45819747,-0.060322944,-0.7490735,0.3659083
211,1778415871980,0.45880726,0.77248406,0.45819747,-0.060322944,-0.7490735,0.3659083
212,1778415871990,0.45880726,0.77248406,0.45819747,-0.060322944,-0.7490735,0.3659083
213,1778415872000,0.48460147,0.76388603,0.5422877,0.098043874,-0.6027713,0.47708577
214,1778415872010,0.47899136,0.8027297,0.48472342,0.029932396,-0.4456262,0.48899764
215,1778415872020,0.47899136,0.8027297,0.48472342,0.029932396,-0.4456262,0.48899764
216,1778415872030,0.47899136,0.8027297,0.48472342,0.029932396,-0.4456262,0.48899764
217,1778415872040,0.47899136,0.8027297,0.48472342,0.029932396,-0.4456262,0.48899764
218,1778415872050,0.46283188,0.7251033,0.41228014,-0.19532417,-0.6133087,0.49602258
219,1778415872060,0.4672224,0.7144319,0.4191098,-0.17577648,-0.6640105,0.54718256
220,1778415872070,0.47313735,0.7188224,0.42100018,-0.17577648,-0.6640105,0.54718256
221,1778415872080,0.47313735,0.7188224,0.42100018,-0.17577648,-0.6640105,0.54718256
222,1778415872090,0.53082365,0.7777893,0.43844023,0.010842858,-0.7699956,0.5830709
223,1778415872100,0.56728923,0.7665081,0.4238052,-0.049938235,-0.8202393,0.47952923
224,1778415872110,0.58570486,0.73528683,0.41173133,-0.13087788,-0.8765916,0.4202753
225,1778415872120,0.58570486,0.73528683,0.41173133,-0.13087788,-0.8765916,0.4202753
226,1778415872130,0.58570486,0.73528683,0.41173133,-0.13087788,-0.8765916,0.4202753
227,1778415872140,0.58570486,0.73528683,0.41173133,-0.13087788,-0.8765916,0.4202753
228,1778415872150,0.59954715,0.676198,0.3872177,-0.18310685,-1.077719,0.41691554
229,1778415872160,0.6530869,0.6260121,0.38929102,0.36025777,-1.233795,0.4992296
230,1778415872170,0.6999189,0.6225363,0.3998404,0.31612277,-1.1817188,0.54137933
231,1778415872180,0.6999189,0.6225363,0.3998404,0.31612277,-1.1817188,0.54137933
232,1778415872190,0.6999189,0.6225363,0.3998404,0.31612277,-1.1817188,0.54137933
234,1778415872210,0.7243715,0.66589254,0.39362052,0.31612277,-1.1817188,0.54137933
235,1778415872220,0.7567515,0.5638134,0.2983101,-0.35155296,-1.0708468,0.3145956
236,1778415872230,0.740409,0.52429885,0.26550332,-0.3080288,-1.1470522,0.3397938
237,1778415872240,0.72803026,0.5125299,0.23452587,-0.106901415,-1.2577715,0.38530326
238,1778415872250,0.7362015,0.49838275,0.21708584,0.16966783,-1.3738359,0.44715336
239,1778415872260,0.75089747,0.4871626,0.23897736,0.32498032,-1.4193454,0.4822781
240,1778415872270,0.7813261,0.48136955,0.2792236,0.3266602,-1.4023939,0.505491
241,1778415872280,0.8156574,0.47752786,0.31416467,0.13515393,-1.3338243,0.48915035
242,1778415872290,0.8156574,0.47752786,0.31416467,0.13515393,-1.3338243,0.48915035
243,1778415872300,0.8156574,0.47752786,0.31416467,0.13515393,-1.3338243,0.48915035
244,1778415872310,0.8156574,0.47752786,0.31416467,0.13515393,-1.3338243,0.48915035
245,1778415872320,0.8376099,0.40673104,0.25806385,-0.063224554,-1.0867293,0.5160284
246,1778415872330,0.8448054,0.41203624,0.23373315,0.12996158,-1.0685561,0.5459608
247,1778415872340,0.8626113,0.42508578,0.19366984,0.12996158,-1.0685561,0.5459608
248,1778415872350,0.8626113,0.42508578,0.19366984,0.12996158,-1.0685561,0.5459608
249,1778415872360,0.8626113,0.42508578,0.19366984,0.12996158,-1.0685561,0.5459608
250,1778415872370,0.9240173,0.43917197,0.1783031,0.14355333,-1.1844677,0.3840815
251,1778415872380,0.95444596,0.41532913,0.22989148,0.01038471,-1.1982121,0.3022256
252,1778415872390,0.9692639,0.3925229,0.27275982,-0.07437284,-1.1133019,0.2677117
253,1778415872400,0.9692639,0.3925229,0.27275982,-0.07437284,-1.1133019,0.2677117
254,1778415872410,0.9634099,0.40618226,0.2678205,-0.021685716,-0.81321436,0.27000242
255,1778415872420,0.9573729,0.4051456,0.23720895,0.0154243475,-0.7012733,0.268628
256,1778415872430,0.95859253,0.39916962,0.1876329,0.04841107,-0.6243043,0.24755314
257,1778415872440,0.95859253,0.39916962,0.1876329,0.04841107,-0.6243043,0.24755314
258,1778415872450,0.95859253,0.39916962,0.1876329,0.04841107,-0.6243043,0.24755314
259,1778415872460,0.95859253,0.39916962,0.1876329,0.04841107,-0.6243043,0.24755314
260,1778415872470,1.0005461,0.33648303,0.045795355,0.03924809,-0.6543894,0.20479257
261,1778415872480,1.003961,0.38294917,0.12043386,0.025503624,-0.93645644,0.32696563
262,1778415872490,1.003961,0.38294917,0.12043386,0.025503624,-0.93645644,0.32696563
263,1778415872500,1.003961,0.38294917,0.12043386,0.025503624,-0.93645644,0.32696563
264,1778415872510,1.003961,0.38294917,0.12043386,0.025503624,-0.93645644,0.32696563
265,1778415872520,1.0104249,0.39709634,0.13683724,-0.08277224,-0.6441574,0.24281894
266,1778415872530,1.0301211,0.3682532,0.0922005,-0.14202617,-0.5858198,0.23487769
267,1778415872540,1.0217669,0.3769732,0.07518731,-0.1881465,-0.56505036,0.21456642
268,1778415872550,1.0217669,0.3769732,0.07518731,-0.1881465,-0.56505036,0.21456642
269,1778415872560,1.0217669,0.3769732,0.07518731,-0.1881465,-0.56505036,0.21456642
270,1778415872570,1.0113395,0.37611952,0.13500789,-0.12415836,-0.6113234,0.20891592
271,1778415872580,1.00701,0.38246134,0.13305654,-0.029321533,-0.58169645,0.22632557
272,1778415872590,1.00701,0.38246134,0.13305654,-0.029321533,-0.58169645,0.22632557
273,1778415872600,1.00701,0.38246134,0.13305654,-0.029321533,-0.58169645,0.22632557
274,1778415872610,1.00701,0.38246134,0.13305654,-0.029321533,-0.58169645,0.22632557
275,1778415872620,0.9957898,0.39904767,0.13299556,0.1423316,-0.5343544,0.24678956
276,1778415872630,1.0517077,0.43258622,0.09079798,0.236863,-0.40103304,0.16768251
277,1778415872640,1.0517077,0.43258622,0.09079798,0.236863,-0.40103304,0.16768251
278,1778415872650,1.0517077,0.43258622,0.09079798,0.236863,-0.40103304,0.16768251
279,1778415872660,1.0517077,0.43258622,0.09079798,0.236863,-0.40103304,0.16768251
280,1778415872670,1.050854,0.3936815,0.13378829,-0.0346666,-0.18616119,-0.069027774
281,1778415872680,1.0388411,0.37032646,0.16757075,-0.053297993,-0.003970624,-0.08582657
282,1778415872690,1.0314626,0.36642382,0.1598264,-0.03390302,0.18891008,-0.08933904
284,1778415872710,1.0337799,0.3586185,0.14525238,-0.0065668016,0.31306845,-0.09682214
285,1778415872720,1.0199986,0.34880084,0.118604474,0.01817324,0.41783184,-0.10415252
286,1778415872730,1.0230476,0.34721538,0.05927175,0.05497787,0.49357912,-0.115453534
287,1778415872740,1.021889,0.33739772,0.024818521,0.07880162,0.4729624,-0.1328632
288,1778415872750,1.021889,0.33739772,0.024818521,0.07880162,0.4729624,-0.1328632
289,1778415872760,1.021889,0.33739772,0.024818521,0.07880162,0.4729624,-0.1328632
290,1778415872770,1.021889,0.33739772,0.024818521,0.07880162,0.4729624,-0.1328632
291,1778415872780,1.0199986,0.28776067,0.056710627,0.084146686,0.40301836,-0.05589417
292,1778415872790,1.0212791,0.3146525,0.102262065,0.121256754,0.46196684,-0.014660766
293,1778415872800,1.0326211,0.33416584,0.11671413,0.1695151,0.52549684,-0.06887506
294,1778415872810,1.0162178,0.35758185,0.13561767,0.19853121,0.61101794,-0.14126259
295,1778415872820,1.012803,0.36685067,0.1340932,0.21639901,0.6640105,-0.20250183
296,1778415872830,1.0001193,0.36008197,0.13567865,0.24770586,0.73731434,-0.26267207
297,1778415872840,0.9965825,0.33758068,0.116836086,0.2695443,0.799928,-0.30558532
298,1778415872850,0.9992657,0.30928633,0.091224834,0.28512135,0.8022188,-0.32284227
299,1778415872860,1.0118883,0.29270002,0.082016975,0.29794952,0.75747293,-0.34269542
300,1778415872870,1.0106077,0.30007848,0.11897036,0.25366178,0.70952,-0.38515055
301,1778415872880,0.95792174,0.35380113,0.17232713,0.18692477,0.75334954,-0.41248676
302,1778415872890,0.913224,0.40313327,0.18537667,0.088728175,0.84665924,-0.46517387
303,1778415872900,0.9058455,0.4036211,0.1770835,0.05681047,0.88300574,-0.5149594
304,1778415872910,0.89096665,0.37916848,0.13305654,0.057726767,0.91919947,-0.5676465
305,1778415872920,0.88785666,0.36398467,0.10543298,0.09712757,0.8188649,-0.5717699
306,1778415872930,0.92554176,0.3635578,0.14031307,0.118507855,0.72341716,-0.5673411
307,1778415872940,0.9375548,0.39282778,0.17513217,0.12461651,0.73426,-0.5636759
308,1778415872950,0.9195659,0.42453694,0.17159538,0.12858713,0.7800749,-0.5636759
309,1778415872960,0.898772,0.42106113,0.11817763,0.18875736,0.7496844,-0.5862779
310,1778415872970,0.86553836,0.44685537,0.093785964,0.34300083,0.61010164,-0.6064365
311,1778415872980,0.85535485,0.45466065,0.097200796,0.5323691,0.4474588,-0.6281222
312,1778415872990,0.8941375,0.43429363,0.16141187,0.6898196,0.29703322,-0.68371093
313,1778415873000,0.8941375,0.43429363,0.16141187,0.6898196,0.29703322,-0.68371093
314,1778415873010,0.90206486,0.44746515,0.17488825,0.59040123,0.3735441,-0.72784597
315,1778415873020,0.87639266,0.48356482,0.18842563,0.59040123,0.3735441,-0.72784597
316,1778415873030,0.8374879,0.49923643,0.20501198,0.49693888,0.45478916,-0.77457714
317,1778415873040,0.7827286,0.45746574,0.27013773,0.26099217,0.70448035,-0.73273283
318,1778415873050,0.7871191,0.436062,0.28776067,0.21212296,0.8761335,-0.62796944
319,1778415873060,0.8031566,0.44673342,0.2711134,0.22815818,0.9822713,-0.52274793
320,1778415873070,0.8113278,0.4686249,0.2432459,0.28405234,1.0748174,-0.46563202
321,1778415873080,0.8113278,0.4686249,0.2432459,0.28405234,1.0748174,-0.46563202
322,1778415873090,0.822304,0.48752844,0.18665724,0.36071593,1.0647382,-0.43951756
323,1778415873100,0.7888265,0.57655805,0.09866429,0.5027421,0.8770498,-0.44608435
324,1778415873110,0.7888265,0.57655805,0.09866429,0.5027421,0.8770498,-0.44608435
325,1778415873120,0.8059007,0.67314905,0.15202107,0.52687126,0.5644395,-0.5128214
326,1778415873130,0.8059007,0.67314905,0.15202107,0.52687126,0.5644395,-0.5128214
327,1778415873140,0.8469397,0.66455096,0.2579419,0.4915938,0.54412824,-0.6372852
328,1778415873150,0.8615137,0.6333906,0.26440567,0.5030475,0.64660084,-0.647059
329,1778415873160,0.9004794,0.5205182,0.13019052,0.5342017,0.7247916,-0.6068946
330,1778415873170,0.7777893,0.84486634,0.471186,0.61559945,0.8752172,-0.5513059
331,1778415873180,0.79486346,0.7461411,0.06841862,0.72097373,0.99036527,-0.643852
332,1778415873190,0.737604,0.7759599,0.097200796,0.68218374,0.9868528,-0.75732017
333,1778415873200,0.70187026,0.75742227,0.07896802,0.5102252,0.9589057,-0.82787514
334,1778415873210,0.6899183,0.7622396,0.02786748,0.29947668,0.88040954,-0.8698721
335,1778415873220,0.6899183,0.7622396,0.02786748,0.29947668,0.88040954,-0.8698721
336,1778415873230,0.62832934,0.7063827,0.103359684,-0.07467828,0.6543894,-0.9202685
337,1778415873240,0.6129016,0.72351784,0.13738607,0.019242255,0.63713247,-0.85154617
338,1778415873250,0.6147919,0.7473607,0.1153116,0.21594086,0.61544675,-0.82787514
339,1778415873260,0.58357066,0.81895024,0.079029,0.33948836,0.47861293,-0.8868236
340,1778415873270,0.58753425,0.8106571,0.09756667,0.33200526,0.36392298,-0.95417154
341,1778415873280,0.55649585,0.7664472,0.14366692,0.19624045,0.2585487,-1.0054842
342,1778415873290,0.529787,0.71388316,0.18007149,0.030848695,0.14966199,-0.9954049
343,1778415873300,0.5763141,0.6529039,0.15494807,-0.063682705,0.04046982,-0.9224065
344,1778415873310,0.44923353,0.6841862,0.16885132,-0.14110987,-0.24251351,-0.8523097
345,1778415873320,0.38983983,0.76675206,0.23861149,-0.04841107,-0.123547494,-0.75396043
347,1778415873340,0.38983983,0.76675206,0.23861149,-0.04841107,-0.123547494,-0.75396043
348,1778415873350,0.45844138,0.76358116,0.1314101,0.4184427,-0.062155537,-0.5580254
349,1778415873360,0.44039157,0.82931674,0.09799352,0.548557,-0.103847094,-0.505491
350,1778415873370,0.43886706,0.8974914,0.06500379,0.5885687,-0.11362094,-0.5035057
351,1778415873380,0.40709692,0.92913955,0.032318957,0.50426924,-0.15057829,-0.5381723
352,1778415873390,0.3670336,0.9096872,0.02042802,0.3287982,-0.21365012,-0.5841399
353,1778415873400,0.3287387,0.81803554,0.002134271,0.21975878,-0.22266038,-0.559858
354,1778415873410,0.31392074,0.7551051,-0.008110229,0.1244638,-0.19440787,-0.4071417
355,1778415873420,0.26013714,0.7555929,-0.031770147,0.004428773,-0.18035796,-0.15515977
356,1778415873430,0.20617057,0.8219382,-0.03878275,-0.07452556,-0.15332718,0.056199603
357,1778415873440,0.13275166,0.96377575,-0.06317442,-0.16584991,-0.17562376,0.15622878
358,1778415873450,0.08067544,1.1014057,-0.007866313,-0.35934147,-0.2350304,0.13729197
359,1778415873460,0.01323248,1.135615,0.032562874,-0.6388123,-0.19730948,0.055588737
360,1778415873470,-0.033965394,1.1264682,0.045917314,-0.93859446,-0.15699236,0.02565634
361,1778415873480,-0.09500554,1.1075037,0.041404855,-1.1157454,-0.1873829,0.031154128
362,1778415873490,-0.10787215,1.0592082,0.017866896,-1.1484267,-0.28619036,0.09483683
363,1778415873500,-0.098725274,1.0606107,-0.0035367915,-1.0259482,-0.43508878,0.18035796
364,1778415873510,-0.086834334,1.1195775,0.007256521,-0.75945824,-0.6934848,0.29229903
365,1778415873520,-0.06994311,1.1927526,0.047075916,-0.5152648,-0.8961393,0.3359759
366,1778415873530,-0.051283482,1.2952585,0.1164702,-0.24846944,-1.0894781,0.31963524
367,1778415873540,-0.025062438,1.3270286,0.17549805,-0.070249505,-1.1989758,0.25167647
368,1778415873550,0.08622454,1.200375,0.25611252,-0.06154467,-1.2967142,0.3211624
369,1778415873560,0.07476046,1.2983685,0.25800288,0.027794369,-1.0644327,0.2753475
370,1778415873570,0.15671647,1.2695863,0.27928457,0.110413894,-0.9370673,0.2012801
371,1778415873580,0.21751268,1.2251325,0.2769064,0.21868975,-0.7301367,0.11362094
372,1778415873590,0.2792236,1.1656168,0.25903952,0.28221974,-0.56046885,0.065515295
373,1778415873600,0.30971318,1.1343344,0.2333063,0.321926,-0.3726278,0.045814894
374,1778415873610,0.3473983,1.0942712,0.19159654,0.32742378,-0.21105394,0.012980887
375,1778415873620,0.37124115,1.0493906,0.19610901,0.25625798,-0.20219639,0.04428773
376,1778415873630,0.37752202,1.042378,0.10616472,0.18784106,-0.09437868,0.049938235
377,1778415873640,0.40551147,1.0247549,0.06384519,0.20525073,-0.16814066,0.028863383
378,1778415873650,0.44179407,0.8815758,-0.110555224,0.5166393,-0.7860308,0.35033122
379,1778415873660,0.33599523,1.112382,0.23623328,0.7122689,-0.55680364,0.24587326
380,1778415873670,0.33599523,1.112382,0.23623328,0.7122689,-0.55680364,0.24587326
381,1778415873680,0.36843613,1.0987836,0.029513916,0.659429,-0.61208695,-0.033750303
382,1778415873690,0.36843613,1.0987836,0.029513916,0.659429,-0.61208695,-0.033750303
383,1778415873700,0.37837574,1.0581106,0.16976601,0.4448626,-0.5542075,-0.04627304
384,1778415873710,0.3612406,1.0884781,0.23483077,0.13271047,-0.23289238,-0.034055736
385,1778415873720,0.41490227,1.0043269,0.09409086,-0.28237244,-0.08353582,-0.024892759
386,1778415873730,0.41490227,1.0043269,0.09409086,-0.28237244,-0.08353582,-0.024892759
387,1778415873740,0.39855984,0.96353185,0.15080148,-0.20082195,-0.12858713,0.035430185
388,1778415873750,0.41020685,0.95426303,0.14939895,-0.20082195,-0.12858713,0.035430185
389,1778415873760,0.36916786,0.99822897,0.19982874,0.21578814,-0.084910266,0.054519724
390,1778415873770,0.36081374,1.0137787,0.17933974,0.3987423,0.0888809,0.05421429
391,1778415873780,0.40154782,1.0032902,0.056222793,0.5290093,0.059253927,0.12140947
392,1778415873790,0.36874104,0.9836549,0.21354906,0.51266867,0.19333886,0.105832405
393,1778415873800,0.41264603,0.9936555,0.12384869,0.2817616,0.18493946,0.06658431
394,1778415873810,0.42752492,0.9317007,0.10567689,0.07880162,0.1207986,0.06352998
395,1778415873820,0.44008666,0.9248711,0.09494456,0.01695151,0.08979719,0.084910266
396,1778415873830,0.42984214,0.8474275,0.12708059,0.047036625,0.08964448,0.17760907
397,1778415873840,0.43807435,0.8451103,0.20684133,0.121256754,0.20387627,0.26633725
398,1778415873850,0.45191658,0.7851068,0.17019285,0.19303341,0.30115658,0.34773505
399,1778415873860,0.41380462,0.8115718,0.22854991,0.21380283,0.4700608,0.51053065
400,1778415873870,0.48179638,0.7710206,0.20763406,0.19364429,0.6293439,0.5856671
401,1778415873880,0.47502774,0.77882594,0.21147576,0.12950343,0.7357872,0.6574437
402,1778415873890,0.49795586,0.7676058,0.21586627,0.076052725,0.8350528,0.7107417
403,1778415873900,0.5110054,0.7807163,0.19385278,0.031001411,0.9221011,0.75533485
404,1778415873910,0.49661437,0.78358227,0.14714272,0.04841107,0.97158116,0.7698429
405,1778415873920,0.47923526,0.78492385,0.084456146,0.08445212,0.93279123,0.7646506
406,1778415873930,0.44801396,0.7628494,0.006890646,0.1553125,0.67057735,0.72311175
407,1778415873940,0.4604537,0.7121147,-0.018171793,0.16691893,0.3678936,0.7287622
408,1778415873950,0.503505,0.67949086,0.019330395,0.15515977,0.15683965,0.76159626
409,1778415873960,0.55594707,0.6961382,0.068174705,0.15149458,0.035124753,0.83108217
410,1778415873970,0.58381456,0.7243715,0.07762648,0.13805555,0.0050396384,0.8410087
411,1778415873980,0.5814974,0.7156515,0.09957898,0.08200866,-0.051465396,0.8573494
412,1778415873990,0.57643604,0.7107122,0.07091877,0.032375857,-0.117438845,0.77824235
414,1778415874010,0.600279,0.6799787,0.072992064,-0.017104227,-0.24984388,0.7626653
415,1778415874020,0.6003399,0.649794,0.091651686,-0.022143865,-0.29932398,0.77366084
416,1778415874030,0.60284007,0.63034165,0.11653119,0.0010690142,-0.33444872,0.80771655
417,1778415874040,0.6133285,0.62217045,0.16226557,0.034513887,-0.33933565,0.875828
418,1778415874050,0.63936657,0.6490013,0.19123067,0.03756821,-0.2875648,0.9101892
419,1778415874060,0.6604044,0.69333315,0.18988912,-0.0056505036,-0.19685133,0.89965177
420,1778415874070,0.66369724,0.7001018,0.16311927,-0.07513642,-0.16508633,0.8576548
421,1778415874080,0.66046536,0.6707708,0.1156165,-0.20158553,-0.15836681,0.8136725
422,1778415874090,0.66253865,0.6199752,0.06530869,-0.32834008,-0.24449882,0.8135198
423,1778415874100,0.6727832,0.5956445,0.07658983,-0.37583485,-0.3118467,0.840856
424,1778415874110,0.7107122,0.5488125,0.07774844,-0.36575556,-0.43004912,0.9433287
425,1778415874120,0.81602323,0.4644783,0.1235438,-0.31963524,-0.56779927,1.1433871
426,1778415874130,0.70510215,0.5552153,0.1214705,-0.23319781,-0.48731774,1.2478449
427,1778415874140,0.7374821,0.59521765,0.14787449,-0.13209961,-0.43967026,1.1366675
428,1778415874150,0.8451103,0.5991813,0.21751268,-0.09743301,-0.37232238,1.0569496
429,1778415874160,0.9088945,0.5822291,0.307335,-0.20051652,-0.048563786,0.98624194
430,1778415874170,0.91212636,0.55777645,0.2748941,-0.4027129,0.30100384,0.9459248
431,1778415874180,0.8924301,0.5230183,0.16866837,-0.5532912,0.45142943,0.9599747
432,1778415874190,0.8963937,0.4735032,0.016708292,-0.63606346,0.3023783,1.0167851
433,1778415874200,0.8679165,0.45850238,0.07134563,-0.626595,0.05390886,1.3883439
434,1778415874210,0.8502325,0.5318603,0.20086539,-0.5484043,0.06918049,1.3153456
435,1778415874220,0.901577,0.5271649,0.052807957,-0.63148195,-0.016035212,1.1742357
436,1778415874230,0.9334691,0.50338304,0.10732334,-0.63346726,-0.37904188,1.1846204
437,1778415874240,0.9344448,0.42398816,0.13506886,-0.5215262,-0.2855795,1.1751521
438,1778415874250,0.91523635,0.4487457,0.08921252,-0.43371433,-0.3042109,1.1093313
439,1778415874260,0.9124313,0.4663077,0.10811607,-0.27152961,-0.376293,0.98654735
440,1778415874270,0.91480947,0.44240385,0.096591,-0.27152961,-0.376293,0.98654735
441,1778415874280,0.9199317,0.42526874,0.06213777,-0.22617286,-0.43692136,0.9405798
442,1778415874290,0.93523747,0.39837688,0.027196707,-0.18463401,-0.50579643,0.90224797
443,1778415874300,0.9546288,0.36569205,0.01762298,-0.18081611,-0.6180429,0.86162543
444,1778415874310,0.9562143,0.36282605,0.042380523,-0.19440787,-0.7796168,0.8052731
445,1778415874320,0.9529824,0.37654635,0.069577225,-0.20372356,-0.84467393,0.76251256
446,1778415874330,0.954141,0.38002217,0.10165227,-0.22876903,-0.88315845,0.70386946
447,1778415874340,0.9730446,0.3635578,0.17318083,-0.29138273,-0.86361074,0.62995476
448,1778415874350,1.0217669,0.28379703,0.28928518,-0.46975538,-0.5768095,0.5673411
449,1778415874360,1.0217669,0.28379703,0.28928518,-0.46975538,-0.5768095,0.5673411
450,1778415874370,1.0114005,0.2613567,0.2748331,-0.4784602,-0.40301836,0.57742035
451,1778415874380,0.933774,0.24598998,0.087017275,-0.25992316,-0.25457808,0.62690043
452,1778415874390,0.89285696,0.26916206,-0.0160985,-0.088422745,-0.3943135,0.63224554
453,1778415874400,0.85194,0.3017249,-0.107628234,0.03863723,-0.6421721,0.61712664
454,1778415874410,0.8469397,0.3211163,-0.13884957,0.076816306,-0.906524,0.5858198
455,1778415874420,0.8469397,0.3211163,-0.13884957,0.076816306,-0.906524,0.5858198
456,1778415874430,0.8841369,0.3055666,-0.102384016,0.0421497,-1.1548407,0.5503896
457,1778415874440,0.9392012,0.28087005,-0.0037197291,-0.07666359,-1.3098478,0.5170974
458,1778415874450,0.9986558,0.2655643,0.17372964,-0.32330042,-1.0612257,0.46609017
459,1778415874460,1.0001193,0.26214942,0.17714448,-0.35323283,-0.77396625,0.4447099
460,1778415874470,0.98853326,0.22989148,0.12287302,-0.31230485,-0.5981898,0.43844852
461,1778415874480,0.9695078,0.20440216,0.032623854,-0.22159137,-0.51175237,0.47555858
462,1778415874490,0.9613366,0.19988972,-0.030062728,-0.112399206,-0.5859725,0.5209153
463,1778415874500,0.9753008,0.2139759,-0.06524771,-0.02321288,-0.6889033,0.5357288
464,1778415874510,0.99536294,0.23440392,-0.06104015,0.058490347,-0.79076505,0.50915617
465,1778415874520,1.000973,0.27056456,-0.031160356,0.08323039,-0.8173377,0.4549419
466,1778415874530,1.0090222,0.2944684,0.009085896,0.034208454,-0.7677049,0.36987892
467,1778415874540,1.0178033,0.27062553,0.020367041,-0.07391469,-0.6609562,0.29764408
468,1778415874550,1.0189619,0.2242204,-0.020245085,-0.14874569,-0.57619864,0.2826779
469,1778415874560,1.0254866,0.18812074,-0.05506419,-0.17638734,-0.57726765,0.3135266
470,1778415874570,1.0401217,0.1832424,-0.053112853,-0.15806139,-0.60994893,0.34513888
471,1778415874580,1.0544518,0.21495157,-0.03292875,-0.0693332,-0.5934556,0.3539964
472,1778415874590,1.0501832,0.23544057,-0.022318374,0.0061086523,-0.5311473,0.33017266
473,1778415874600,1.0368288,0.23733091,-0.05780825,0.06078109,-0.45188758,0.30283645
474,1778415874610,1.0336579,0.22702545,-0.10104248,0.066737026,-0.44226643,0.28313604
476,1778415874630,1.0265843,0.21428078,-0.13500789,0.041080687,-0.47112983,0.2771801
477,1778415874640,1.030365,0.20348747,-0.15439926,-0.035888333,-0.5477934,0.2742785
478,1778415874650,1.0319505,0.21379296,-0.13500789,-0.12507465,-0.61010164,0.24327709
479,1778415874660,1.0277429,0.22257397,-0.10927467,-0.18020524,-0.6230826,0.19364429
480,1778415874670,1.0229255,0.20995127,-0.08433419,-0.20357084,-0.5928447,0.15347989
481,1778415874680,1.0180472,0.18025441,-0.07634591,-0.20448714,-0.5723807,0.1572978
482,1778415874690,1.0210352,0.16909523,-0.062686585,-0.18478674,-0.5748242,0.19868392
483,1778415874700,1.0376825,0.17641273,-0.05353971,-0.13072516,-0.5534439,0.24709499
484,1778415874710,1.0601228,0.18123008,-0.052198168,-0.06719518,-0.52473325,0.27458394
485,1778415874720,1.0820143,0.1885476,-0.059149794,0.0047342055,-0.4877759,0.28985557
486,1778415874730,1.0898197,0.1972676,-0.066040434,0.031612277,-0.46379945,0.3005457
487,1778415874740,1.103479,0.22696446,-0.07305304,0.053450707,-0.44822237,0.2857322
488,1778415874750,1.0922589,0.2639788,-0.0922005,0.07849618,-0.43875396,0.23777929
489,1778415874760,1.0993934,0.26830834,-0.122446164,0.11026118,-0.5004513,0.183565
490,1778415874770,1.1175652,0.26739365,-0.10061563,0.1421789,-0.5572618,0.1244638
491,1778415874780,1.1309197,0.26501545,-0.06317442,0.16600263,-0.5357288,0.0777326
492,1778415874790,1.1262243,0.25678328,-0.025184397,0.1611157,-0.42714754,0.001985312
493,1778415874800,1.1165286,0.2315379,-0.0001829375,0.09972375,-0.23747386,-0.061850104
494,1778415874810,1.1057353,0.19543824,-0.002866021,0.013133603,-0.07544186,-0.08399397
495,1778415874820,1.0859779,0.17446141,-0.039148625,-0.102319926,0.09285152,-0.081397794
496,1778415874830,1.074148,0.17147341,-0.063418336,-0.15042557,0.15332718,-0.07467828
497,1778415874840,1.0652452,0.16507061,-0.0866514,-0.16142114,0.19318613,-0.09911288
498,1778415874850,1.0589032,0.14269125,-0.07530928,0.012217305,0.15485434,-0.18768835
499,1778415874860,1.0687819,0.11397006,-0.04549046,0.10170906,0.16646078,-0.22403483
500,1778415874870,1.0610986,0.107201375,-0.023537958,0.14553864,0.22770002,-0.2415972
501,1778415874880,1.0610986,0.107201375,-0.023537958,0.14553864,0.22770002,-0.2415972
502,1778415874890,1.036097,0.097444706,-0.04384402,0.23671028,0.4166101,-0.21288654
503,1778415874900,1.036097,0.097444706,-0.04384402,0.23671028,0.4166101,-0.21288654
504,1778415874910,1.0249379,0.14744763,-0.13994719,0.43463063,0.33948836,-0.14645495
505,1778415874920,1.0249379,0.14744763,-0.13994719,0.43463063,0.33948836,-0.14645495
506,1778415874930,1.0196327,0.1733028,-0.13909347,0.5047274,0.29092458,-0.1459968
507,1778415874940,1.0131688,0.21708584,-0.18214478,0.6105598,0.17944166,-0.17654006
508,1778415874950,1.0393289,0.2189762,-0.2133661,0.75487673,-0.21578814,-0.31322116
509,1778415874960,1.0365238,0.2122075,-0.1870231,0.8187121,-0.36453384,-0.3849978
510,1778415874970,1.0421339,0.1952553,-0.13250773,0.8961393,-0.47952923,-0.46181414
511,1778415874980,1.0715259,0.14659391,-0.08805392,0.9660834,-0.47158796,-0.50900346
512,1778415874990,1.0671964,0.14025208,-0.07293109,1.0210613,-0.38621956,-0.52534413
513,1778415875000,1.0515248,0.14952092,-0.08994427,1.0485502,-0.25610524,-0.5216789
514,1778415875010,1.0426828,0.15385045,-0.106957465,1.0154108,-0.12568553,-0.50411654
515,1778415875020,1.0426828,0.15385045,-0.106957465,1.0154108,-0.12568553,-0.50411654
516,1778415875030,1.0396948,0.15385045,-0.12055582,0.97600996,-0.044593163,-0.49739704
517,1778415875040,1.0385972,0.14988679,-0.14244732,0.79076505,0.16737708,-0.463494
518,1778415875050,1.047866,0.17086363,-0.15037462,0.74097955,0.19792034,-0.47998735
519,1778415875060,1.0697576,0.18690115,-0.16561942,0.7162395,0.2003638,-0.52870387
520,1778415875070,1.0970762,0.17372964,-0.15153323,0.7254025,0.19914207,-0.5900958
521,1778415875080,1.0908563,0.17860797,-0.1325687,0.74464476,0.23884831,-0.6293439
522,1778415875090,1.0607326,0.20208496,-0.12384869,0.7629707,0.3436117,-0.674548
523,1778415875100,1.0493906,0.18013246,-0.13970327,0.7475463,0.40042216,-0.6768387
524,1778415875110,1.050793,0.16982698,-0.15086246,0.68859786,0.45738536,-0.64919704
525,1778415875120,1.0523175,0.19421865,-0.14470357,0.6078109,0.50732356,-0.6385069
526,1778415875130,1.0523175,0.19421865,-0.14470357,0.6078109,0.50732356,-0.6385069
527,1778415875140,1.068599,0.2172078,-0.11567748,0.4915938,0.57543504,-0.6543894
528,1778415875150,1.1317123,0.22861089,0.010488417,0.14584407,1.0512991,-0.8191703
529,1778415875160,1.0618303,0.23056222,-0.020915855,0.0125227375,1.366811,-0.86620694
530,1778415875170,1.0009121,0.19342592,-0.093907915,-0.04932737,1.529912,-0.84223044
531,1778415875180,0.95755583,0.15915562,-0.16793664,-0.036651913,1.5227343,-0.7787005
532,1778415875190,0.9581657,0.140496,-0.2344649,0.0021380284,1.3367258,-0.66675943
533,1778415875200,1.009876,0.14976484,-0.22647662,0.044135015,1.0965031,-0.57696223
535,1778415875220,1.0322554,0.26483253,-0.18592548,0.07192938,0.95646226,-0.6203337
536,1778415875230,1.0120713,0.3492277,-0.16738781,0.08032878,0.9117164,-0.72692966
537,1778415875240,0.95755583,0.41404852,-0.18312044,0.08933904,0.77411896,-0.9633345
538,1778415875250,0.8901129,0.37605852,-0.20013362,0.15760323,0.49388456,-1.127199
539,1778415875260,0.86480653,0.26166162,-0.14488651,0.33475417,0.12996158,-1.1600331
540,1778415875270,0.8726729,0.21537842,-0.11397006,0.54825157,-0.043676864,-1.048703
541,1778415875280,0.898833,0.23202574,-0.06213777,0.70707655,-0.046883907,-0.9437868
542,1778415875290,0.9269444,0.27501604,-0.019696271,0.73945236,0.15195273,-0.84467393
543,1778415875300,0.921822,0.34178823,-0.002561125,0.5887214,0.419359,-0.79381937
544,1778415875310,0.8701117,0.39734024,-0.031892106,0.23777929,0.72402805,-0.7654142
545,1778415875320,0.825597,0.43240327,-0.07957781,-0.14095716,0.8720101,-0.763887
546,1778415875330,0.7704718,0.42740297,-0.16689998,-0.33353242,0.7620544,-0.7866417
547,1778415875340,0.75864184,0.42051232,-0.19360885,-0.32375857,0.59315014,-0.7979427
548,1778415875350,0.75461715,0.3878885,-0.20117027,-0.122478485,0.17470746,-0.8078693
549,1778415875360,0.79675376,0.35136196,-0.14854525,0.19792034,-0.2406809,-0.7958047
550,1778415875370,0.95279956,0.2558076,-0.09848136,0.5129741,-0.49449542,-0.6769914
551,1778415875380,0.8354146,0.44624552,0.016586334,0.6934848,-0.36636642,-0.5403103
552,1778415875390,0.90169895,0.48826018,0.09488358,0.6417139,-0.16218472,-0.61300325
553,1778415875400,0.8715143,0.5213719,0.082626775,0.34529158,0.3399465,-0.5884159
554,1778415875410,0.84395164,0.5159447,0.039026666,0.06704246,0.65377855,-0.5729916
555,1778415875420,0.8130962,0.5222866,0.0064637917,-0.321926,0.8753699,-0.539394
556,1778415875430,0.7973026,0.5192986,-0.02555027,-0.46914452,0.9642508,-0.51083606
557,1778415875440,0.787363,0.49569967,-0.14061797,-0.49754974,0.9633345,-0.44211373
558,1778415875450,0.6866864,0.62131673,-0.2397701,-0.123547494,0.5102252,-0.26419923
559,1778415875460,0.6866864,0.62131673,-0.2397701,-0.123547494,0.5102252,-0.26419923
560,1778415875470,0.76675206,0.5898515,-0.10756725,0.19120082,-0.064446285,-0.47494772
561,1778415875480,0.746446,0.5801558,-0.08116327,0.19226983,-0.14049901,-0.44929138
562,1778415875490,0.7018092,0.6202191,-0.054454394,0.13316862,-0.1872302,-0.39003745
563,1778415875500,0.69412583,0.6358298,-0.042868353,0.04886922,-0.17944166,-0.33292156
564,1778415875510,0.6844302,0.6621728,-0.043478146,-0.013591751,-0.1441642,-0.2930626
565,1778415875520,0.70674855,0.65820915,-0.059576645,-0.10888673,-0.11224649,-0.24556783
566,1778415875530,0.70674855,0.65820915,-0.059576645,-0.10888673,-0.11224649,-0.24556783
567,1778415875540,0.70113844,0.66070926,-0.018232772,-0.22800545,-0.10797043,-0.16249016
568,1778415875550,0.7000409,0.6647339,0.047868647,-0.42913285,0.013744468,-0.20799962
569,1778415875560,0.6635753,0.6341224,0.07305304,-0.42913285,0.013744468,-0.20799962
570,1778415875570,0.6532698,0.6073525,0.07665081,-0.47311515,0.18891008,-0.09101892
571,1778415875580,0.6346102,0.63522,0.1247024,-0.44883323,0.26236662,-0.015271631
572,1778415875590,0.602962,0.649916,0.13201989,-0.40500367,0.38881573,0.045662176
573,1778415875600,0.5893027,0.652843,0.12476338,-0.4173737,0.5914703,0.15241088
574,1778415875610,0.582534,0.69180864,0.12500729,-0.5371033,0.74296486,0.22357668
575,1778415875620,0.5810095,0.70248,0.107933134,-0.65026605,0.84497935,0.24205536
576,1778415875630,0.5810095,0.70248,0.107933134,-0.65026605,0.84497935,0.24205536
577,1778415875640,0.58472925,0.69412583,0.071467586,-0.76159626,0.89980453,0.24938573
578,1778415875650,0.58411944,0.6785152,0.053112853,-0.80863285,0.7457138,0.24587326
579,1778415875660,0.56802094,0.6507697,0.06305246,-0.7518224,0.6609562,0.27214047
580,1778415875670,0.5686307,0.6337565,0.09183463,-0.66905016,0.605062,0.33124167
581,1778415875680,0.585522,0.63095146,0.1589117,-0.6272059,0.6047566,0.38591412
582,1778415875690,0.6261951,0.61198694,0.20171909,-0.5589417,0.7154759,0.47586402
583,1778415875700,0.65930676,0.6168043,0.19281614,-0.50579643,0.88407475,0.5954409
584,1778415875710,0.6943088,0.66839266,0.15488708,-0.49327368,1.0202976,0.6800457
585,1778415875720,0.7074803,0.7443727,0.13153206,-0.5036584,1.0867293,0.6899723
586,1778415875730,0.70400447,0.81303525,0.090249166,-0.548557,1.1713341,0.6415612
587,1778415875740,0.70400447,0.81303525,0.090249166,-0.548557,1.1713341,0.6415612
588,1778415875750,0.66320944,0.8709045,0.008841979,-0.73761976,1.048092,0.48670688
589,1778415875760,0.6281464,0.9006623,0.0043905,-0.83291477,0.91354895,0.3895793
590,1778415875770,0.6265609,0.86553836,-0.00798827,-0.85994554,0.7460192,0.31856623
591,1778415875780,0.638208,0.84358585,-0.012805625,-0.81229806,0.6046039,0.31673363
592,1778415875790,0.6449767,0.84212226,-0.024025792,-0.73639804,0.50411654,0.32925636
593,1778415875800,0.6333906,0.90645534,-0.025794188,-0.5688683,0.27763826,0.34804046
594,1778415875810,0.65113556,0.960056,-0.0018293752,-0.49021935,0.091477074,0.312763
595,1778415875820,0.66223377,1.0220718,0.04006331,-0.46639562,-0.03772093,0.22907446
596,1778415875830,0.6551602,1.0464635,0.06811373,-0.48563787,-0.090713486,0.15714508
597,1778415875840,0.65485525,1.0533541,0.09970094,-0.5655085,-0.12644911,0.0795652
598,1778415875850,0.66028243,1.0475612,0.120189935,-0.63148195,-0.13225232,0.031154128
599,1778415875860,0.67156357,1.0456098,0.13037346,-0.6284276,-0.14553864,-0.020158553
600,1778415875870,0.67156357,1.0456098,0.13037346,-0.6284276,-0.14553864,-0.020158553
601,1778415875880,0.66388017,1.0193278,0.1562896,-0.3578143,-0.20723604,-0.09773844
602,1778415875890,0.6561358,1.0120713,0.17732742,-0.17654006,-0.25045475,-0.13500121
603,1778415875900,0.649916,0.9994486,0.19684075,-0.026572637,-0.29229903,-0.16966783
604,1778415875910,0.6571725,0.97847176,0.1925722,0.0917825,-0.3315471,-0.19898935
605,1778415875920,0.658514,0.9618854,0.187328,0.23655757,-0.40240747,-0.23487769
606,1778415875930,0.6677219,0.9467625,0.17763232,0.35460728,-0.47051895,-0.27030787
608,1778415875950,0.6836984,0.92920053,0.1703758,0.5103779,-0.54504454,-0.30024028
609,1778415875960,0.7016873,0.91846824,0.16409494,0.6420194,-0.60246587,-0.32482758
610,1778415875970,0.7245545,0.91352886,0.1557408,0.72509706,-0.6462954,-0.3575089
611,1778415875980,0.7323598,0.9242613,0.15324064,0.79611015,-0.65393126,-0.40958515
612,1778415875990,0.725957,0.9242613,0.14445965,0.81382525,-0.6383542,-0.46731192
613,1778415876000,0.7102244,0.90230876,0.12811723,0.7805331,-0.6189592,-0.5366451
614,1778415876010,0.71010244,0.88175875,0.11025034,0.74388117,-0.6151413,-0.56077427
615,1778415876020,0.69296724,0.8588916,0.10220108,0.6743952,-0.625526,-0.59437186
616,1778415876030,0.6811983,0.8476714,0.096469045,0.6609562,-0.62796944,-0.6064365
617,1778415876040,0.6594897,0.7949854,0.06671121,0.6826419,-0.6582073,-0.5981898
618,1778415876050,0.6457084,0.7720573,0.05719846,0.70570207,-0.69806623,-0.5740606
619,1778415876060,0.644062,0.73888457,0.029148044,0.73975784,-0.7791586,-0.5193882
620,1778415876070,0.6454645,0.73254275,0.02872119,0.7689266,-0.8660542,-0.46471575
621,1778415876080,0.6422326,0.74327505,0.05055173,0.79183406,-0.9650144,-0.4100433
622,1778415876090,0.6570505,0.7467509,0.08793196,0.79213953,-0.9735665,-0.3819435
623,1778415876100,0.6737588,0.75461715,0.10823802,0.75854194,-0.9419542,-0.355829
624,1778415876110,0.6831496,0.75949556,0.12811723,0.7021896,-0.8584184,-0.34788775
625,1778415876120,0.67930794,0.75272685,0.1437279,0.64843345,-0.7339546,-0.33857206
626,1778415876130,0.682052,0.7268107,0.12348281,0.56489766,-0.5525276,-0.3031419
627,1778415876140,0.6770517,0.71461487,0.097749606,0.48487428,-0.4266894,-0.25809056
628,1778415876150,0.67339295,0.7077242,0.056954544,0.3828598,-0.31505376,-0.20922135
629,1778415876160,0.66388017,0.6774176,0.025062438,0.3036,-0.26160303,-0.16187929
630,1778415876170,0.63772017,0.6549163,-0.028172374,0.3462079,-0.40408736,-0.064599
631,1778415876180,0.64253753,0.6412569,-0.029574897,0.41050145,-0.48166725,-0.021380283
632,1778415876190,0.66991717,0.6515014,-0.0127446465,0.4636467,-0.5699373,0.02076942
633,1778415876200,0.68723524,0.6958943,0.0127446465,0.4729624,-0.61941737,0.0035124752
634,1778415876210,0.699553,0.7095536,0.035489876,0.46410486,-0.6049093,-0.041691553
635,1778415876220,0.699553,0.7095536,0.035489876,0.46410486,-0.6049093,-0.041691553
636,1778415876230,0.7132124,0.6940039,0.042319544,0.4457789,-0.571159,-0.06704246
637,1778415876240,0.71223664,0.6666852,0.04634417,0.40011674,-0.4972443,-0.07880162
638,1778415876250,0.69308925,0.6457694,0.038294915,0.33551773,-0.376293,-0.05100725
639,1778415876260,0.6485744,0.59698606,0.01981823,0.27137688,-0.14309518,0.06612616
640,1778415876270,0.6488183,0.58814406,-0.015671646,0.24587326,-0.10323623,0.15821409
641,1778415876280,0.68680835,0.59247357,-0.029940773,0.22770002,-0.1863139,0.21578814
642,1778415876290,0.7204689,0.6109503,-0.030184686,0.29367346,-0.3361286,0.22113322
643,1778415876300,0.749312,0.6372933,-0.024635585,0.4016439,-0.48762318,0.19043724
644,1778415876310,0.772789,0.6592458,-0.014635001,0.5412266,-0.59681535,0.14110987
645,1778415876320,0.77291095,0.68363744,0.0012805625,0.70509124,-0.6412558,0.059864793
646,1778415876330,0.7637031,0.6787591,0.012073875,0.74281216,-0.56306505,0.03268129
647,1778415876340,0.7281522,0.65979457,0.020549979,0.70631295,-0.41447207,0.04795292
648,1778415876350,0.6910769,0.63643956,0.026708877,0.55924714,-0.15790866,0.1085813
649,1778415876360,0.6621118,0.62131673,-0.0028050416,0.35445455,0.13026701,0.21013765
650,1778415876370,0.6476597,0.61924344,-0.06597946,0.11148291,0.32818735,0.3022256
651,1778415876380,0.6604044,0.63467115,-0.14293517,-0.107359566,0.3727805,0.34238997
652,1778415876390,0.67814934,0.6545504,-0.207817,-0.2284636,0.25885415,0.30909783
653,1778415876400,0.6955284,0.63595176,-0.2277572,-0.24694228,0.09132435,0.2564107
654,1778415876410,0.7203469,0.5896686,-0.21537842,-0.1928807,-0.12843442,0.22266038
655,1778415876420,0.7253472,0.56387436,-0.18263261,-0.11804971,-0.24953845,0.24617869
656,1778415876430,0.7329696,0.5683868,-0.13360536,-0.047494773,-0.29565877,0.300393
657,1778415876440,0.7450435,0.5928395,-0.066650234,-0.02565634,-0.22220223,0.36758816
658,1778415876450,0.7418116,0.5904613,-0.03744121,-0.113926366,-0.03604105,0.42012256
659,1778415876460,0.74071395,0.5714358,-0.051405437,-0.29153544,0.18081611,0.474795
660,1778415876470,0.73101825,0.5459465,-0.11933623,-0.48670688,0.33399057,0.52106804
661,1778415876480,0.7358966,0.5477149,-0.21519548,-0.59620446,0.26450464,0.54290646
662,1778415876490,0.72985965,0.5486296,-0.24727054,-0.5900958,0.087201014,0.5242751
663,1778415876500,0.7306524,0.5008829,-0.25672227,-0.5010622,-0.18707748,0.49480084
665,1778415876520,0.7335184,0.47161287,-0.25800288,-0.3764457,-0.47723848,0.50778174
666,1778415876530,0.7227251,0.45258737,-0.26318607,-0.28909197,-0.7284568,0.52732944
667,1778415876540,0.714066,0.43947688,-0.23781876,-0.22235495,-0.97005403,0.55573463
668,1778415876550,0.72120064,0.42106113,-0.1803154,-0.17455475,-1.1633929,0.59650993
669,1778415876560,0.7297987,0.45331916,-0.1343371,-0.17806722,-1.1946996,0.6221663
670,1778415876570,0.7361405,0.4552705,-0.1358006,-0.24480425,-1.1291844,0.5862779
671,1778415876580,0.775716,0.386425,-0.17397358,-0.37323865,-1.0874928,0.5729916
672,1778415876590,0.83017033,0.3473983,-0.18220575,-0.52626044,-1.1662945,0.6073528
673,1778415876600,0.86785555,0.3312998,-0.15452121,-0.60048056,-1.2370021,0.62888575
674,1778415876610,0.92413926,0.33379996,-0.11098208,-0.5703954,-1.2999213,0.63087106
675,1778415876620,0.9652392,0.33770263,-0.08104131,-0.43249258,-1.3295482,0.6087272
676,1778415876630,1.0032902,0.2997126,-0.06390616,-0.10216721,-1.2614367,0.61407226
677,1778415876640,1.0278038,0.30605444,-0.040673107,0.052534413,-1.187522,0.635758
678,1778415876650,1.0308529,0.3494716,-0.0336605,0.24556783,-0.97020674,0.6488916
679,1778415876660,1.0321944,0.35867947,-0.061954834,0.2762638,-0.7098254,0.65011334
680,1778415876670,1.0354263,0.34788615,-0.08622454,0.115453534,-0.44119743,0.67057735
681,1778415876680,1.0292674,0.34294683,-0.13866661,-0.16768251,-0.18753563,0.7104363
682,1778415876690,1.0095711,0.37014353,-0.18403512,-0.45173484,-0.03894266,0.7257079
683,1778415876700,1.0056685,0.3784367,-0.18891345,-0.62125,0.030848695,0.7128797
684,1778415876710,1.0178642,0.38575423,-0.1943406,-0.7160868,0.06872234,0.67347896
685,1778415876720,1.024694,0.39057156,-0.19245026,-0.6620252,0.08155051,0.6044512
686,1778415876730,1.0203035,0.39642558,-0.19104773,-0.5899431,0.07391469,0.54382277
687,1778415876740,0.9940214,0.42228076,-0.2022679,-0.37720928,0.0027488936,0.3911065
688,1778415876750,0.9696297,0.42520773,-0.20799993,-0.21731532,-0.06811147,0.28038713
689,1778415876760,0.9448112,0.3691069,-0.26013714,-0.043066,-0.18845193,0.1965459
690,1778415876770,0.9235295,0.31879908,-0.3050178,0.039553523,-0.39385536,0.19792034
691,1778415876780,0.9224928,0.28959006,-0.29898086,0.040927973,-0.63514715,0.24281894
692,1778415876790,0.92810297,0.29952967,-0.17940071,-0.04642576,-0.7987063,0.33765575
693,1778415876800,0.93432283,0.31623796,-0.11628727,-0.093004234,-0.7115053,0.36270124
694,1778415876810,0.93432283,0.31623796,-0.11628727,-0.093004234,-0.7115053,0.36270124
695,1778415876820,0.93157876,0.32605562,-0.0837244,-0.1001819,-0.5172501,0.37888917
696,1778415876830,0.93042016,0.31282312,-0.10896978,-0.07803804,-0.32085696,0.4034765
697,1778415876840,0.9326154,0.29227313,-0.14482552,-0.05665775,-0.22922719,0.4266894
698,1778415876850,0.9228587,0.30379823,-0.24312395,-0.07391469,-0.12186762,0.46731192
699,1778415876860,0.9231027,0.31495738,-0.2889193,-0.104610674,-0.17959438,0.46273044
700,1778415876870,0.9532263,0.32075045,-0.31142062,-0.104610674,-0.17959438,0.46273044
701,1778415876880,0.9727397,0.32117727,-0.30861557,-0.1001819,-0.38224894,0.40973786
702,1778415876890,0.9855453,0.32075045,-0.2842849,-0.07544186,-0.43783766,0.36896262
703,1778415876900,0.99200904,0.31007907,-0.2526367,-0.08674286,-0.43050727,0.32513303
704,1778415876910,1.0023146,0.2876997,-0.23263553,-0.13530666,-0.37003163,0.29749137
705,1778415876920,1.0071929,0.28038222,-0.23013538,-0.17256944,-0.31306845,0.28817567
706,1778415876930,1.0071929,0.28038222,-0.23013538,-0.17256944,-0.31306845,0.28817567
707,1778415876940,1.0159129,0.2681864,-0.23159887,-0.18081611,-0.23350324,0.2773328
708,1778415876950,1.0246329,0.26428372,-0.23983108,-0.15286903,-0.20708331,0.26740626
709,1778415876960,1.0785385,0.25586858,-0.2774552,-0.006414085,-0.21395555,0.22800545
710,1778415876970,1.0892099,0.2558076,-0.28965104,0.029626964,-0.23579398,0.21044308
711,1778415876980,1.0978689,0.25483194,-0.3003834,0.035430185,-0.26847526,0.20906863
712,1778415876990,1.0926247,0.26946694,-0.28928518,-0.01572978,-0.29352075,0.19853121
713,1778415877000,1.0835389,0.2856264,-0.26940596,-0.115453534,-0.27000242,0.16417004
714,1778415877010,1.0816485,0.2807481,-0.2503805,-0.20540343,-0.21044308,0.10629055
715,1778415877020,1.0724406,0.26861322,-0.24446549,-0.2406809,-0.15958855,0.06765333
716,1778415877030,1.06555,0.2490999,-0.23995303,-0.22235495,-0.10781772,0.03940081
717,1778415877040,1.06555,0.2490999,-0.23995303,-0.22235495,-0.10781772,0.03940081
718,1778415877050,1.0621351,0.24037987,-0.23598938,-0.108123146,-0.013286319,0.018784106
719,1778415877060,1.0514028,0.24470939,-0.24714857,-0.030390546,0.033292156,-0.0076358155
720,1778415877070,1.033353,0.24958774,-0.24903892,-0.0013744468,0.062155537,-0.03726278
721,1778415877080,1.0230476,0.25300255,-0.26068595,0.0070249503,0.08017606,-0.0580322
722,1778415877090,1.0209743,0.24861206,-0.28013828,-0.0056505036,0.062155537,-0.09468412
723,1778415877100,1.0209743,0.24178241,-0.2815408,-0.017104227,0.020005837,-0.1337795
724,1778415877110,1.0219499,0.2271474,-0.27172315,-0.021380283,-0.014966198,-0.16187929
726,1778415877130,1.0314016,0.21550037,-0.23861149,-0.0096211275,-0.03313944,-0.18906279
727,1778415877140,1.0451219,0.20385335,-0.21135378,0.019700404,-0.004428773,-0.19898935
728,1778415877150,1.0559762,0.19415767,-0.18751094,0.051465396,0.06307184,-0.2041817
729,1778415877160,1.0559762,0.19415767,-0.18751094,0.051465396,0.06307184,-0.2041817
730,1778415877170,1.0579885,0.19659685,-0.17391258,0.11575896,0.25686884,-0.20326541
731,1778415877180,1.0603667,0.20245083,-0.18903543,0.14278975,0.33383787,-0.21685717
732,1778415877190,1.0636597,0.1999507,-0.21580528,0.18524489,0.3733914,-0.23075435
733,1778415877200,1.059574,0.20330454,-0.24836816,0.23380867,0.3755294,-0.23854288
734,1778415877210,1.0653061,0.20763406,-0.27324766,0.29153544,0.3222314,-0.25030205
735,1778415877220,1.0751847,0.2388554,-0.25690526,0.32482758,0.29428434,-0.3032946
736,1778415877230,1.0680501,0.25836873,-0.23172083,0.31444287,0.32330042,-0.3849978
737,1778415877240,1.0467074,0.25306356,-0.21019518,0.23869559,0.40683624,-0.48456886
738,1778415877250,1.0312186,0.24775836,-0.19214535,0.13576481,0.50747633,-0.5297729
739,1778415877260,1.0123152,0.22056165,-0.15927759,0.00061086525,0.6614143,-0.5526803
740,1778415877270,1.0083514,0.1791568,-0.15708233,-0.111941054,0.84894997,-0.5183192
741,1778415877280,1.0067661,0.16013129,-0.17104656,-0.18799378,1.0001391,-0.43661594
742,1778415877290,0.9906676,0.17665665,-0.18226673,-0.22556199,1.0763446,-0.36025777
743,1778415877300,0.9697517,0.21763465,-0.190255,-0.25030205,1.1055133,-0.30482176
744,1778415877310,0.9634099,0.24147749,-0.20251182,-0.21517728,1.0679451,-0.29184088
745,1778415877320,0.9614585,0.25513685,-0.20062146,-0.15012014,0.9987647,-0.2938262
746,1778415877330,0.9620684,0.27074748,-0.18665724,-0.05024367,0.9101892,-0.3193298
747,1778415877340,0.9728007,0.27855286,-0.18915738,0.042455133,0.8349001,-0.34972036
748,1778415877350,0.97963035,0.28294334,-0.18677919,0.07971791,0.8020661,-0.36972618
749,1778415877360,0.97731316,0.30635932,-0.1791568,0.09743301,0.76831573,-0.38835758
750,1778415877370,1.0179863,0.31709167,-0.14677685,0.039095376,0.7263188,-0.3743077
751,1778415877380,1.0259135,0.336605,-0.12988563,-0.09056077,0.74036866,-0.37186423
752,1778415877390,1.021523,0.35319135,-0.13043444,-0.11835514,0.77549344,-0.38988474
753,1778415877400,1.0137177,0.36099666,-0.1343371,-0.10919216,0.77182823,-0.42913285
754,1778415877410,1.0137177,0.36099666,-0.1343371,-0.10919216,0.77182823,-0.42913285
755,1778415877420,0.97847176,0.3653262,-0.16439983,0.010995574,0.6385069,-0.463494
756,1778415877430,0.97847176,0.3653262,-0.16439983,0.010995574,0.6385069,-0.463494
757,1778415877440,0.9802401,0.3766683,-0.120738745,0.12583824,0.46654832,-0.5346598
758,1778415877450,0.9802401,0.3766683,-0.120738745,0.12583824,0.46654832,-0.5346598
759,1778415877460,0.94346964,0.3869738,-0.072016396,0.08964448,0.5028948,-0.6579019
760,1778415877470,0.94346964,0.3869738,-0.072016396,0.08964448,0.5028948,-0.6579019
761,1778415877480,0.8681604,0.35142294,-0.10848194,-0.052534413,0.47235155,-0.66630125
762,1778415877490,0.8462079,0.33727577,-0.10634767,-0.10980303,0.4098906,-0.64736444
763,1778415877500,0.8564524,0.32026258,-0.08732217,-0.11209377,0.36651915,-0.61682117
764,1778415877510,0.84498835,0.32861674,-0.05427146,-0.04718934,0.3915646,-0.56489766
765,1778415877520,0.8222431,0.34867886,-0.03140427,0.03145956,0.49113566,-0.52519137
766,1778415877530,0.8222431,0.34867886,-0.03140427,0.03145956,0.49113566,-0.52519137
767,1778415877540,0.8140719,0.36721656,-0.017866896,0.023365596,0.5684101,-0.5187773
768,1778415877550,0.8140719,0.36721656,-0.017866896,-0.014202617,0.5842926,-0.5355761
769,1778415877560,0.8111449,0.35843554,-0.015854584,-0.06658431,0.59788436,-0.56688297
770,1778415877570,0.8216333,0.38124177,-0.0661624,0.093767814,0.601855,-0.5354234
771,1778415877580,0.8034005,0.41965863,-0.11787273,0.23090707,0.5503896,-0.49770245
772,1778415877590,0.7808992,0.45325816,-0.14330104,0.39202276,0.43127087,-0.4541783
773,1778415877600,0.7721182,0.48685768,-0.15854584,0.46288314,0.3031419,-0.45142943
774,1778415877610,0.77906984,0.5025293,-0.14067894,0.47051895,0.19333886,-0.47494772
775,1778415877620,0.80943745,0.4850283,-0.10464026,0.3827071,0.15882497,-0.50228393
776,1778415877630,0.78285056,0.47923526,-0.06512575,0.24465153,0.16798794,-0.48365256
777,1778415877640,0.726018,0.5046636,-0.046588086,0.05589417,0.17867808,-0.4352415
778,1778415877650,0.726018,0.5046636,-0.046588086,0.05589417,0.17867808,-0.4352415
779,1778415877660,0.6604044,0.4941142,-0.0010366458,-0.1563815,0.059253927,-0.36361754
780,1778415877670,0.68564975,0.47990605,-0.012256813,-0.07971791,-0.05207626,-0.28130344
781,1778415877680,0.7165052,0.5189327,-0.005305188,0.13316862,-0.14370605,-0.16982053
782,1778415877690,0.73961633,0.56619155,0.020123126,0.34254268,-0.12904528,-0.10949759
783,1778415877700,0.7578491,0.5993643,0.03591673,0.40851614,-0.061850104,-0.09773844
784,1778415877710,0.7666301,0.62473154,0.02792846,0.33735034,0.022907447,-0.09819659
785,1778415877720,0.7577881,0.65485525,0.0010366458,0.105832405,0.07238753,-0.110413894
786,1778415877730,0.74510443,0.6758321,-0.006341833,-0.022907447,0.10323623,-0.14828753
787,1778415877740,0.7352258,0.66314846,-0.02128173,-0.09468412,0.11560625,-0.18310685
788,1778415877750,0.74864125,0.6104625,-0.045856334,-0.06811147,0.07452556,-0.15760323
789,1778415877760,0.7549221,0.5807046,-0.042807378,0.05390886,0.03772093,-0.07574729
790,1778415877770,0.76089805,0.5793021,-0.019452354,0.14584407,0.06734789,0.011453724
792,1778415877790,0.75528795,0.6139383,0.010549396,0.13255776,0.14950927,0.07895433
793,1778415877800,0.7387626,0.64028126,0.012866604,0.07895433,0.2835942,0.11407909
794,1778415877810,0.74949497,0.65485525,0.0015854583,-0.06078109,0.41706824,0.13271047
795,1778415877820,0.7213226,0.72754246,0.00073175,-0.22800545,0.48915035,0.09911288
796,1778415877830,0.7077242,0.7455313,-0.0065857503,-0.29749137,0.547488,0.028863383
797,1778415877840,0.70607775,0.71577346,-0.028782167,-0.30925053,0.5751296,-0.065209866
798,1778415877850,0.7043704,0.6718685,-0.056771606,-0.25350907,0.5748242,-0.07437284
799,1778415877860,0.7043704,0.6718685,-0.056771606,-0.25350907,0.5748242,-0.07437284
800,1778415877870,0.7043704,0.6718685,-0.056771606,-0.25350907,0.5748242,-0.07437284
801,1778415877880,0.68308866,0.6552211,-0.110067405,0.089949906,0.54046303,0.08979719
802,1778415877890,0.6709538,0.7058948,-0.11811664,-0.03634648,0.4821254,0.106901415
803,1778415877900,0.66314846,0.74778754,-0.13195892,-0.25350907,0.35903606,0.06001751
804,1778415877910,0.65259904,0.7936439,-0.12195834,-0.41996986,0.2284636,-0.0143553335
805,1778415877920,0.6375372,0.8038884,-0.11128698,-0.5870415,0.06765333,-0.13164146
806,1778415877930,0.64095205,0.76150787,-0.096469045,-0.690125,-0.04153884,-0.18096884
807,1778415877940,0.6400983,0.72894496,-0.06512575,-0.7838928,-0.12904528,-0.17287487
808,1778415877950,0.63650054,0.71296847,-0.00079272914,-0.86361074,-0.15989397,-0.12308934
809,1778415877960,0.63979346,0.7111391,0.059027832,-0.8709411,-0.089949906,-0.049480084
810,1778415877970,0.63979346,0.7111391,0.059027832,-0.8709411,-0.089949906,-0.049480084
811,1778415877980,0.63979346,0.7111391,0.059027832,-0.8709411,-0.089949906,-0.049480084
812,1778415877990,0.6302197,0.73510385,0.08909056,-0.8219192,0.09315695,0.14721853
813,1778415878000,0.6361347,0.78724104,0.08098034,-0.7809912,0.0038179078,0.28252518
814,1778415878010,0.6328418,0.8569402,0.07665081,-0.6994407,-0.1414153,0.27656925
815,1778415878020,0.6436961,0.89395463,0.083175585,-0.57604593,-0.31581733,0.22861631
816,1778415878030,0.63595176,0.90761393,0.09287128,-0.4569272,-0.42623124,0.18081611
817,1778415878040,0.6390007,0.8760267,0.122751065,-0.30757064,-0.49938235,0.13026701
818,1778415878050,0.6434522,0.813706,0.15616766,-0.18463401,-0.46868637,0.14126259
819,1778415878060,0.6522332,0.7766917,0.17872995,-0.10705414,-0.37140608,0.20540343
820,1778415878070,0.6522332,0.7766917,0.17872995,-0.10705414,-0.37140608,0.20540343
821,1778415878080,0.6522332,0.7766917,0.17872995,-0.10705414,-0.37140608,0.20540343
822,1778415878090,0.6319881,0.88858837,0.07890704,0.13805555,0.17363845,0.37873647
823,1778415878100,0.61424315,0.9552996,0.018720604,0.14110987,0.150731,0.3370449
824,1778415878110,0.60582805,0.98981386,-0.012073875,0.1375974,0.07360926,0.27458394
825,1778415878120,0.5980837,1.0083514,-0.012134855,0.120493166,-0.025350908,0.19761491
826,1778415878130,0.5947908,1.0015829,0.0102445,0.09330966,-0.13133603,0.08628472
827,1778415878140,0.5944249,0.9713981,0.04402696,0.09330966,-0.13133603,0.08628472
828,1778415878150,0.5944249,0.9713981,0.04402696,0.06719518,-0.14080444,0.035277467
829,1778415878160,0.5939981,0.9315177,0.0690894,0.032070424,-0.09117164,0.0062613687
830,1778415878170,0.5939981,0.9315177,0.0690894,0.032070424,-0.09117164,0.0062613687
831,1778415878180,0.5939981,0.9315177,0.0690894,0.032070424,-0.09117164,0.0062613687
832,1778415878190,0.635159,0.8534644,0.052381106,0.0804815,0.054519724,0.029321533
833,1778415878200,0.65412354,0.85194,0.04402696,0.2087632,0.020005837,0.020616703
834,1778415878210,0.6760151,0.8573061,0.037075333,0.2507602,-0.046578474,0.007788532
835,1778415878220,0.69449174,0.85187894,0.034148335,0.2695443,-0.12629639,-0.010842858
836,1778415878230,0.69449174,0.85187894,0.034148335,0.28313604,-0.23243423,-0.042913284
837,1778415878240,0.7408969,0.83974415,0.058357064,0.29229903,-0.28206703,-0.06505715
838,1778415878250,0.77175236,0.8207796,0.08610259,0.33276883,-0.32330042,-0.11942416
839,1778415878260,0.76754475,0.8237676,0.115250625,0.39202276,-0.26816985,-0.16768251
840,1778415878270,0.76754475,0.8237676,0.115250625,0.39202276,-0.26816985,-0.16768251
841,1778415878280,0.76754475,0.8237676,0.115250625,0.39202276,-0.26816985,-0.16768251
842,1778415878290,0.76754475,0.8237676,0.115250625,0.39202276,-0.26816985,-0.16768251
843,1778415878300,0.7219933,0.84321994,0.07250423,0.5160284,0.0917825,-0.23564127
844,1778415878310,0.7106512,0.8611478,0.04036821,0.54718256,0.10125092,-0.27030787
845,1778415878320,0.7051631,0.8552938,0.015610667,0.57711494,0.06490443,-0.2950479
846,1778415878330,0.699614,0.8566963,-0.019879209,0.62125,-0.017256944,-0.31642818
848,1778415878350,0.6975407,0.85322046,-0.03445323,0.6569856,-0.10919216,-0.33658674
849,1778415878360,0.69808954,0.8386465,-0.025123417,0.70463306,-0.19028452,-0.36896262
850,1778415878370,0.6927843,0.8211454,-0.0075004376,0.7554876,-0.1797471,-0.38896844
851,1778415878380,0.6927843,0.8211454,-0.0075004376,0.7554876,-0.1797471,-0.38896844
852,1778415878390,0.6927843,0.8211454,-0.0075004376,0.7554876,-0.1797471,-0.38896844
853,1778415878400,0.6927843,0.8211454,-0.0075004376,0.7554876,-0.1797471,-0.38896844
854,1778415878410,0.6796128,0.7401042,-0.057564333,0.5571091,0.03848451,-0.34391713
855,1778415878420,0.690772,0.746446,-0.07658983,0.5012149,-0.03481932,-0.30176744
856,1778415878430,0.7029069,0.7619957,-0.08451713,0.5007568,-0.12644911,-0.29825497
857,1778415878440,0.70498013,0.77224016,-0.06854059,0.5300783,-0.22785273,-0.32925636
858,1778415878450,0.70943165,0.7674228,-0.05250306,0.5516113,-0.26297748,-0.35155296
859,1778415878460,0.708212,0.76748383,-0.01695221,0.5636759,-0.22204952,-0.377362
860,1778415878470,0.6902842,0.76120293,0.008415125,0.5012149,-0.0842994,-0.39736784
861,1778415878480,0.6902842,0.76120293,0.008415125,0.5012149,-0.0842994,-0.39736784
862,1778415878490,0.6902842,0.76120293,0.008415125,0.5012149,-0.0842994,-0.39736784
863,1778415878500,0.6902842,0.76120293,0.008415125,0.5012149,-0.0842994,-0.39736784
864,1778415878510,0.74236035,0.69034517,-0.07110171,0.105374254,0.3098614,-0.2948952
865,1778415878520,0.74327505,0.6951625,-0.08037054,-0.01038471,0.29733866,-0.23014349
866,1778415878530,0.7276644,0.6991262,-0.07939488,0.022143865,0.2452624,-0.21945333
867,1778415878540,0.7097365,0.69717485,-0.06274756,0.09468412,0.18341228,-0.21059579
868,1778415878550,0.705468,0.69040614,-0.033538543,0.1563815,0.16493362,-0.205098
869,1778415878560,0.7040655,0.6816861,-0.02128173,0.17470746,0.18051068,-0.19792034
870,1778415878570,0.7061388,0.66369724,0.0026221042,0.17470746,0.18051068,-0.19792034
871,1778415878580,0.7061388,0.66369724,0.0026221042,0.19746219,0.44089198,-0.14263703
872,1778415878590,0.7061388,0.66369724,0.0026221042,0.19746219,0.44089198,-0.14263703
873,1778415878600,0.7061388,0.66369724,0.0026221042,0.19746219,0.44089198,-0.14263703
874,1778415878610,0.7373601,0.75864184,-0.028233355,-0.15042557,0.46822822,-0.013133603
875,1778415878620,0.7257131,0.7771795,-0.0248795,-0.0983493,0.34132096,-0.06887506
876,1778415878630,0.70827305,0.76943517,0.0020123124,0.06719518,0.16310102,-0.14782938
877,1778415878640,0.70827305,0.76943517,0.0020123124,0.06719518,0.16310102,-0.14782938
878,1778415878650,0.7010775,0.7417506,0.027989438,0.19379699,0.09117164,-0.18112154
879,1778415878660,0.6859547,0.6857108,0.046832,0.38423425,0.06841691,-0.17195857
880,1778415878670,0.66168493,0.62717074,0.0015854583,0.5187773,0.122020334,0.0346666
881,1778415878680,0.66168493,0.62717074,0.0015854583,0.5187773,0.122020334,0.0346666
882,1778415878690,0.66168493,0.62717074,0.0015854583,0.5187773,0.122020334,0.0346666
883,1778415878700,0.66168493,0.62717074,0.0015854583,0.5187773,0.122020334,0.0346666
884,1778415878710,0.7238837,0.71083415,-0.070187025,0.19547687,-0.22953261,0.1647809
885,1778415878720,0.74095786,0.7001018,-0.055613004,0.16035213,-0.3042109,0.103847094
886,1778415878730,0.75431234,0.66314846,-0.009695687,0.13942999,-0.30283645,0.069791354
887,1778415878740,0.76266646,0.62808543,0.019696271,0.12797627,-0.2171626,0.09193522
888,1778415878750,0.7602883,0.57796055,0.048661377,0.12797627,-0.2171626,0.09193522
889,1778415878760,0.7446776,0.56186205,0.047868647,0.1226312,0.17730364,0.28955013
890,1778415878770,0.73010355,0.5578374,-0.029391957,0.09086621,0.3549127,0.4027129
891,1778415878780,0.73010355,0.5578374,-0.029391957,0.09086621,0.3549127,0.4027129
892,1778415878790,0.6932112,0.6257682,-0.20818289,0.055283304,0.0125227375,0.44913867
893,1778415878800,0.71339524,0.6462572,-0.17726645,0.08674286,-0.24938573,0.34681875
894,1778415878810,0.73120123,0.6385738,-0.12573905,0.07788532,-0.35918877,0.25625798
895,1778415878820,0.7379089,0.62259734,-0.053173836,-0.012675454,-0.3659083,0.18005253
896,1778415878830,0.7367503,0.5735091,0.021037813,-0.16630806,-0.25167647,0.15363261
897,1778415878840,0.7251033,0.53167737,0.05055173,-0.26374108,-0.118507855,0.16707164
898,1778415878850,0.6957113,0.4663687,0.04762473,-0.39354995,0.13072516,0.24938573
899,1778415878860,0.6802836,0.40880433,0.015427729,-0.46379945,0.33383787,0.3923282
900,1778415878870,0.682052,0.3989867,-0.022440333,-0.48701233,0.45937067,0.550695
901,1778415878880,0.682052,0.3989867,-0.022440333,-0.48701233,0.45937067,0.550695
903,1778415878900,0.682052,0.3989867,-0.022440333,-0.48701233,0.45937067,0.550695
904,1778415878910,0.682052,0.3989867,-0.022440333,-0.48701233,0.45937067,0.550695
905,1778415878920,0.7446776,0.4969192,-0.27861384,-0.49663344,0.50762904,0.64873886
906,1778415878930,0.77839905,0.47063723,-0.24842913,-0.52763486,-0.92271197,0.32513303
907,1778415878940,0.8182185,0.43563515,-0.17787623,-0.41050145,-1.3200798,0.2585487
908,1778415878950,0.83065826,0.41624376,-0.119397216,-0.29978213,-1.4595097,0.25961772
909,1778415878960,0.825597,0.4027064,-0.061893854,-0.09483683,-1.5522085,0.3051272
910,1778415878970,0.81559634,0.40862137,-0.016647313,0.0795652,-1.542282,0.38789943
911,1778415878980,0.8251092,0.4223417,0.020184105,0.1853976,-1.4149166,0.46288314
912,1778415878990,0.8394393,0.4428917,0.047258858,0.18570304,-1.1930199,0.48517972
913,1778415879000,0.8773683,0.42868355,0.039880376,0.07467828,-0.90301156,0.49648073
914,1778415879010,0.8826125,0.4471602,0.006219875,-0.13576481,-0.60032785,0.4978552
915,1778415879020,0.875173,0.4607586,-0.02646496,-0.34223726,-0.39660427,0.47326785
916,1778415879030,0.8778561,0.45240447,-0.06530869,-0.58062744,-0.20952678,0.42332962
917,1778415879040,0.86401385,0.4411233,-0.089517415,-0.7333437,-0.09896017,0.37614027
918,1778415879050,0.85413516,0.42014647,-0.11025034,-0.7733554,-0.07223482,0.356898
919,1778415879060,0.8440126,0.36447248,-0.152204,-0.7545713,-0.12660182,0.33215797
920,1778415879070,0.8495008,0.2795895,-0.1838522,-0.64461553,-0.2611449,0.3724751
921,1778415879080,0.8451103,0.25574663,-0.18415709,-0.5001459,-0.410196,0.4699081
922,1778415879090,0.8227919,0.27818695,-0.17446141,-0.39950588,-0.54702985,0.54458636
923,1778415879100,0.8101692,0.29916382,-0.17360769,-0.3491095,-0.65225136,0.54641896
924,1778415879110,0.8063275,0.2992248,-0.1575092,-0.30390546,-0.7622071,0.51893
925,1778415879120,0.8118157,0.29824913,-0.13805683,-0.28298333,-0.82863873,0.47571132
926,1778415879130,0.82803607,0.30513975,-0.11336028,-0.27885997,-0.8709411,0.42913285
927,1778415879140,0.8632821,0.2909926,-0.08232188,-0.2753475,-0.8721629,0.419359
928,1778415879150,0.89072275,0.26574722,-0.044331856,-0.2759584,-0.8155051,0.44516805
929,1778415879160,0.9114556,0.2628812,0.006219875,-0.29825497,-0.6560693,0.54718256
930,1778415879170,0.9296274,0.28239453,0.016708292,-0.35995236,-0.44226643,0.6740898
931,1778415879180,0.9607268,0.33886123,-0.019208437,-0.5954409,-0.12858713,0.8481864
932,1778415879190,0.98066694,0.3567891,-0.03744121,-0.66966105,-0.053297993,0.8906415
933,1778415879200,1.0009121,0.392279,-0.0863465,-0.68875057,-0.019394971,0.9166033
934,1778415879210,1.0260965,0.4180122,-0.12744646,-0.61300325,-0.082619525,0.883922
935,1778415879220,1.0548176,0.4311227,-0.14269125,-0.45799622,-0.1956296,0.8038987
936,1778415879230,1.0923198,0.4408184,-0.1501917,-0.45799622,-0.1956296,0.8038987
937,1778415879240,1.1142724,0.43398872,-0.14147167,-0.15882497,-0.3950771,0.61834836
938,1778415879250,1.1142724,0.43398872,-0.14147167,-0.15882497,-0.3950771,0.61834836
939,1778415879260,1.1265291,0.42429304,-0.11958014,-0.08582657,-0.43417248,0.5477934
940,1778415879270,1.1168944,0.4063042,-0.0951275,-0.11484267,-0.42562035,0.42577308
941,1778415879280,1.1157968,0.3799612,-0.10372557,-0.18784106,-0.40225476,0.3921755
942,1778415879290,1.118236,0.35806966,-0.10165227,-0.24144448,-0.41157046,0.3744604
943,1778415879300,1.1293951,0.35124,-0.098725274,-0.25488353,-0.41279218,0.37201694
944,1778415879310,1.1459814,0.33562934,-0.09531044,-0.21624629,-0.40698898,0.3484986
945,1778415879320,1.1426277,0.34148335,-0.090919934,-0.14004086,-0.38683042,0.30863968
946,1778415879330,1.1406763,0.34489816,-0.08805392,-0.06169739,-0.3631594,0.25152376
947,1778415879340,1.1367736,0.34587383,-0.08945644,-0.0062613687,-0.33933565,0.19226983
948,1778415879350,1.1357371,0.3405077,-0.09531044,0.032070424,-0.3034473,0.13072516
949,1778415879360,1.1297611,0.33117786,-0.11903133,0.032070424,-0.3034473,0.13072516
950,1778415879370,1.1320173,0.31843323,-0.14671588,0.05421429,-0.27351493,0.0143553335
951,1778415879380,1.1343344,0.30867654,-0.16025324,0.07437284,-0.30970868,-0.007941248
952,1778415879390,1.1427495,0.3179454,-0.14817938,0.11530081,-0.32559118,-0.03283401
953,1778415879400,1.144335,0.32776302,-0.12397064,0.16340645,-0.29932398,-0.07849618
954,1778415879410,1.1430545,0.32392135,-0.090371124,0.19975294,-0.21639901,-0.13500121
955,1778415879420,1.1226875,0.3064203,-0.06780884,0.22082779,-0.009010263,-0.21578814
956,1778415879430,1.1015887,0.28349215,-0.08213894,0.21639901,0.13805555,-0.26190847
957,1778415879440,1.0759774,0.2591005,-0.117933705,0.19226983,0.2648101,-0.3129157
958,1778415879450,1.0642084,0.24544115,-0.13043444,0.1740966,0.3155119,-0.33964106
959,1778415879460,1.0290235,0.22836697,-0.13848369,0.15485434,0.38805214,-0.36987892
960,1778415879470,1.00701,0.21812248,-0.14854525,0.15012014,0.4447099,-0.39675698
961,1778415879480,0.98261833,0.20989029,-0.14647196,0.14889841,0.49418998,-0.42348233
962,1778415879490,0.95237267,0.19482844,-0.14531335,0.106595986,0.56321776,-0.44257188
963,1778415879500,0.9334691,0.1884866,-0.12964171,0.024587326,0.59131753,-0.42332962
964,1778415879510,0.92481005,0.20415826,-0.111165024,-0.110413894,0.63194007,-0.35338554
965,1778415879520,0.9215172,0.22659859,-0.105493955,-0.1957823,0.6601926,-0.29993483
966,1778415879530,0.9385304,0.26117378,-0.12128756,-0.21624629,0.65057147,-0.26542094
968,1778415879550,0.9731055,0.26111278,-0.13311753,-0.14721853,0.59712076,-0.2490803
969,1778415879560,0.99017966,0.27080846,-0.13226382,-0.063682705,0.5532912,-0.24266621
970,1778415879570,1.0146934,0.3030055,-0.12183637,0.11881329,0.4812091,-0.26419923
971,1778415879580,1.0493295,0.30495682,-0.11128698,0.22861631,0.4503604,-0.3032946
972,1778415879590,1.0490246,0.32154313,-0.09049308,0.29016098,0.49098295,-0.36254853
973,1778415879600,1.021706,0.33373898,-0.09287128,0.30955598,0.5693264,-0.42012256
974,1778415879610,1.0048757,0.31178647,-0.13110521,0.31306845,0.657291,-0.4775439
975,1778415879620,0.9840818,0.278065,-0.17360769,0.28160888,0.6899723,-0.48701233
976,1778415879630,0.95755583,0.27654052,-0.22019579,0.2490803,0.65286225,-0.44257188
977,1778415879640,0.9329202,0.28135788,-0.26391783,0.2574797,0.5467244,-0.39767328
978,1778415879650,0.936701,0.28178474,-0.29019985,0.32467487,0.33643404,-0.34468073
979,1778415879660,0.9488358,0.2856874,-0.295627,0.37125334,0.18661933,-0.33200526
980,1778415879670,1.0057294,0.3105669,-0.24007498,0.45662177,-0.087659165,-0.36865717
981,1778415879680,1.0492076,0.31514034,-0.13080032,0.4980079,-0.14446963,-0.4352415
982,1778415879690,1.115431,0.27769914,-0.052015226,0.4279111,-0.024740042,-0.48090366
983,1778415879700,1.153177,0.2651374,0.0018903542,0.2967278,0.16523905,-0.48426342
984,1778415879710,1.1500671,0.27885774,0.045124583,0.052839845,0.50320023,-0.45066583
985,1778415879720,1.118053,0.32129923,0.06006448,-0.26251933,0.8437576,-0.40301836
986,1778415879730,1.0955517,0.34617874,0.039087646,-0.45982882,1.0607675,-0.3726278
987,1778415879740,1.0415852,0.35922828,-0.035733793,-0.54137933,1.2011138,-0.35445455
988,1778415879750,1.030487,0.3488618,-0.095920235,-0.49434268,1.151481,-0.3475823
989,1778415879760,1.0309747,0.3302022,-0.17409553,-0.16890424,0.7805331,-0.34162638
990,1778415879770,1.030426,0.3369709,-0.19312102,0.18677205,0.43967026,-0.37018433
991,1778415879780,1.0475001,0.36276507,-0.2040363,0.70356405,-0.020158553,-0.4531093
992,1778415879790,1.0521346,0.40862137,-0.17464434,1.2380711,-0.4465425,-0.61819565
993,1778415879800,1.0406705,0.44283074,-0.1393374,1.4445436,-0.62018096,-0.74036866
994,1778415879810,0.9934116,0.40313327,-0.03286777,1.3692545,-0.58246,-0.88270026
995,1778415879820,0.9564582,0.36471638,6.0979168e-05,1.155299,-0.377362,-0.81290895
996,1778415879830,0.9110898,0.33941004,-0.0015244792,0.8530733,-0.04520403,-0.6479753
997,1778415879840,0.9110898,0.33941004,-0.0015244792,0.8530733,-0.04520403,-0.6479753
998,1778415879850,0.860538,0.3889861,-0.080919355,0.52442783,0.57543504,-0.2828306
999,1778415879860,0.860538,0.3889861,-0.080919355,0.52442783,0.57543504,-0.2828306
1000,1778415879870,0.84303695,0.44453815,-0.09482261,0.48349985,0.7276932,-0.21731532
1001,1778415879880,0.86553836,0.52082306,-0.1999507,0.29138273,1.0590876,-0.21365012
1002,1778415879890,0.86553836,0.52082306,-0.1999507,0.29138273,1.0590876,-0.21365012
1003,1778415879900,0.82645065,0.5864367,-0.3348976,0.2779437,0.7443393,-0.28863382
1004,1778415879910,0.7899851,0.62058496,-0.33014122,0.2602286,0.37293324,-0.38560867
1005,1778415879920,0.7634592,0.6211948,-0.2775162,0.2434298,0.08597928,-0.44211373
1006,1778415879930,0.72059083,0.573692,-0.16177773,0.17516561,-0.15607607,-0.45158213
1007,1778415879940,0.70241904,0.5246038,-0.084578104,0.06582073,-0.25671613,-0.41279218
1008,1778415879950,0.69412583,0.50191957,0.013842272,-0.086437434,-0.30772337,-0.3145956
1009,1778415879960,0.6767468,0.49124816,0.050002918,-0.13072516,-0.2845105,-0.27382034
1010,1778415879970,0.67138064,0.45228252,0.06097917,-0.11407909,-0.24480425,-0.21151209
1011,1778415879980,0.6864425,0.4873455,0.040246252,0.032223143,-0.2312125,-0.14080444
1012,1778415879990,0.6855278,0.547227,0.020915855,0.2509129,-0.22388211,-0.10873401
1013,1778415880000,0.6943088,0.58472925,0.008963938,0.38438696,-0.22220223,-0.10262536
1014,1778415880010,0.68741816,0.62564623,-0.02042802,0.42821655,-0.19715676,-0.11530081
1015,1778415880020,0.6843692,0.6275976,-0.03305071,0.36865717,-0.16539176,-0.13423763
