id,timestamp,acc_x,acc_y,acc_z,gyro_x,gyro_y,gyro_z
0,1778413080700,1.1950507375,-0.166107255,0.077737003125,0.2236464525,-0.316342515,0.00998353525
1,1778413080710,1.2207657444444444,-0.1643456355555555,0.0636080444444444,0.2922819222222222,-0.2721578988888888,-0.13859446
2,1778413080720,1.2105618777777778,-0.15328808,0.0674023048888888,0.3555385577777777,-0.2754157566666666,-0.2466465577777777
3,1778413080730,1.1093208,-0.159619074,0.060491336,0.420614164,-0.268696444,-0.3089665519999999
4,1778413080740,0.9997161444444445,-0.1814740033333333,0.0097058512222222,0.5193813666666666,-0.1725897977777777,-0.3402419155555555
5,1778413080750,0.9839903,-0.18537667,-0.002713573,0.5414397,-0.11659547,-0.31886226
6,1778413080760,0.90423564,-0.1712295,-0.0795900078,0.4775451,0.1257887268,-0.1863084059999999
7,1778413080770,0.84113648,-0.1385243366666666,-0.1459739666666666,0.4233426,0.2163417466666666,-0.1077127286666666
8,1778413080780,0.836524404,-0.089371063,-0.19893235,0.30992863,0.255059273,0.0138585960999999
9,1778413080790,0.85326112,-0.040510495,-0.2536021966666666,0.20791714,0.2157817899999999,0.0625863923333333
10,1778413080800,0.8693698,-0.0239953036666666,-0.2812562466666667,0.1420135088888889,0.1843401244444444,0.0769752411111111
11,1778413080810,0.917239518,0.0042380527999999,-0.297907624,-0.0587176941999999,0.1063637799999999,0.068185828
12,1778413080820,0.9158902011111112,0.0193337846666666,-0.2684743366666666,-0.1954880893333333,0.0976083033333333,0.0332657241666666
13,1778413080830,0.90514433,0.02497097,-0.24797179,-0.27045262,0.100866154,0.0104607595
14,1778413080840,0.90514433,0.02497097,-0.2479717899999999,-0.27045262,0.100866154,0.0104607595
15,1778413080850,0.8501105911111111,0.0408424922222222,-0.2115028511111111,-0.3753147422222222,0.1541880295555555,0.0101214000555555
16,1778413080860,0.8487012888888888,0.0878100033333333,-0.1551038955555555,-0.5162168488888889,0.19463969,-0.0186902286111111
17,1778413080870,0.8711423039999999,0.116500698,-0.143172982,-0.542279672,0.1634169132,-0.086129462
18,1778413080880,0.8553141266666667,0.1301600288888889,-0.1535861966666666,-0.5726862622222222,0.0908211099999999,-0.2509224744444445
19,1778413080890,0.8490129666666666,0.1295095866666666,-0.1772867633333333,-0.6103552066666666,0.0772467288888889,-0.31641888
20,1778413080900,0.848525126,0.131330832,-0.193993022,-0.6386713740000001,0.0741721335,-0.35087067
21,1778413080910,0.8521025766666667,0.1259321506666666,-0.2494352899999999,-0.8430201133333334,0.1059565516666666,-0.5403961933333332
22,1778413080920,0.8452187166666667,0.0990877633333333,-0.254313611111111,-0.9216158,0.1540353233333333,-0.5855988933333333
23,1778413080930,0.7720450600000001,0.0226415654,-0.273503744,-1.131014264,0.35859788,-0.64077876
24,1778413080940,0.7205163,-0.0138524336666666,-0.2851589088888888,-1.2681698666666668,0.4715910422222222,-0.6319554177777778
25,1778413080950,0.720387568888889,-0.0163559672222222,-0.3027073688888889,-1.3515844555555556,0.4987398144444444,-0.5890603755555556
26,1778413080960,0.8619337822222222,-0.0043261331333333,-0.4379286622222222,-1.500495377777778,0.4851654422222222,-0.5135868
27,1778413080970,1.04226204,0.0243855695039999,-0.520030344,-1.68529702,0.474170188,-0.5100574480000001
28,1778413080980,1.1364619444444444,0.0717115033333333,-0.56992144,-2.0107565000000003,0.6052987266666666,-0.5605541666666666
29,1778413080990,1.1495927444444445,0.0860348331111111,-0.6069290666666666,-2.253873633333333,0.7274681866666667,-0.5756217433333334
30,1778413081000,1.1701992899999998,0.0768581451,-0.58579639,-2.4852243799999996,0.8287670309999999,-0.555748848
31,1778413081010,1.2408751666666666,0.0501248763333333,-0.4750277133333333,-3.1679811,1.1406045666666669,-0.4854199533333333
32,1778413081020,1.2970167,0.0742726276666666,-0.3143577733333333,-3.4931555,1.3155105,-0.4442895733333333
33,1778413081030,1.3287462,0.0918346266666666,-0.2091687033333333,-3.6432203666666663,1.4291280666666666,-0.41985568
34,1778413081040,1.366162,0.093298125,-0.08495922,-3.93206972,1.83220576,-0.343540492
35,1778413081050,1.4234367,0.1069676233333333,0.0019106799999999,-4.070745555555556,2.0557215777777778,-0.3108533844444444
36,1778413081060,1.543606322222222,0.1648910566666666,0.1107652688888888,-4.2070322,2.272911733333333,-0.3329117566666666
37,1778413081070,1.65741375,0.19665782,0.153606525,-4.35599768,2.52625048,-0.385811122
38,1778413081080,1.7449899333333334,0.1453743366666666,0.2016377766666666,-4.577612800000001,2.786278,-0.6136978833333333
39,1778413081090,1.733617311111111,0.0344430658888888,0.4925660166666666,-4.698764266666667,2.8593506000000004,-0.8358426866666666
40,1778413081100,1.7281129700000002,-0.0076010527,0.676880999,-4.63772044,2.81078316,-0.939605276
41,1778413081110,1.7568166333333333,-0.1058225724444444,1.1736491333333332,-4.274632666666666,2.7361375666666667,-1.0555441
42,1778413081120,1.7836372777777778,-0.1198139015555555,1.3811679555555554,-3.9142328,2.740752822222222,-1.0997965777777778
43,1778413081130,1.8363266444444448,-0.1113310188888889,1.532358977777778,-3.3780447999999996,2.8143938222222222,-1.1374654666666666
44,1778413081140,1.8657186,-0.105585426,1.565762,-3.1836596,2.8564744,-1.147782
45,1778413081150,2.0521624,-0.0013720313,1.5516149,-2.3974228,3.0147603,-1.1508362
46,1778413081160,2.4554989666666667,0.0304726454444444,1.4361408,-2.0974289333333336,3.8956698333333337,-1.372641711111111
47,1778413081170,2.60052357,0.0404627273,1.41850667,-2.065122,4.2602777,-1.4855806
48,1778413081180,2.4733422555555555,0.0676055691111111,1.741131388888889,-1.7969599333333337,4.707214333333333,-1.9646884666666664
49,1778413081190,2.2691637,0.0283349855555555,1.8339214333333336,-1.3568104888888888,4.915377466666666,-2.347418155555556
50,1778413081200,1.97623732,-0.03681922,1.8596574,-0.4048084959999999,4.63558224,-2.49665486
51,1778413081210,1.9362511333333332,-0.0482345199999999,1.5581296,0.4837486266666667,4.316815155555555,-2.3622820222222223
52,1778413081220,1.9838352,-0.03945352,1.4342301,0.7796702,4.224238,-2.2729626
53,1778413081230,2.2813051333333334,0.2051440755555555,0.8964073333333332,0.7802131577777778,4.3358194,-2.2565376666666666
54,1778413081240,2.54142884,0.4062737079999999,0.597729992,0.217935034,4.7852398,-2.3940326599999997
55,1778413081250,2.6075303111111108,0.4694379733333333,0.6669935333333333,0.0134471311111111,4.870717733333334,-2.5175222222222224
56,1778413081260,2.6132319,0.6092225233333334,1.1360926999999998,-0.3151802022222222,4.7846560333333334,-3.092456777777778
57,1778413081270,2.39354221,0.520481566,1.31707679,-0.335935442,4.8036875000000006,-3.2043367600000003
58,1778413081280,2.153743511111111,0.4275181511111111,1.5394224777777776,-0.50196373,5.1698294,-3.1270034
59,1778413081290,2.0039516222222225,0.3394032888888889,1.8647530555555552,-0.52354701,5.6353458,-2.9132069333333335
60,1778413081300,1.9999676555555552,0.3227796933333333,1.9087088666666665,-0.5091581666666667,5.906655277777777,-2.7820699333333336
61,1778413081310,2.15258297,0.2448374649999999,1.98681111,0.0361239779999999,6.18941015,-2.58089079
62,1778413081320,2.1822344555555553,0.2114554344444444,1.9384600888888892,0.3404709933333333,6.088213100000001,-2.618320466666667
63,1778413081330,2.1024601,0.118767094,1.7170718,1.000050277777778,5.4964715222222225,-2.810720311111111
64,1778413081340,1.90692841,-0.0100432701999999,1.56006354,1.7454807000000003,4.39820719,-3.13842629
65,1778413081350,1.8391318,-0.04994194,1.5321015,1.879806,4.147882,-3.2192414
66,1778413081360,1.8391318,-0.04994194,1.5321015,1.879806,4.147882,-3.2192414
67,1778413081370,1.4754031600000002,-0.098749664,1.34506622,1.7913554399999998,4.554950799999999,-3.23585652
68,1778413081380,1.2876699444444446,-0.0762104044444444,1.2024549222222225,1.703678466666667,4.3426746666666665,-3.183947922222222
69,1778413081390,1.12236221,-0.0916720066666666,1.0373369,1.6397430888888889,4.216432822222222,-3.121777255555555
70,1778413081400,0.8395239266666666,-0.1400860722222222,0.75054174,1.4815336,4.0886297,-2.9602423
71,1778413081410,0.81783129,-0.138462353,0.583863337,1.1547303999999998,4.2572237,-2.7088404
72,1778413081420,0.8540674822222222,-0.1414649022222222,0.5493308322222222,0.9925844044444444,4.352990888888889,-2.587752666666667
73,1778413081430,0.99798509,-0.1010323166666666,0.5537213166666667,0.8281307311111111,4.432061555555555,-2.466940488888889
74,1778413081440,0.956549704,-0.156600604,0.4481968679999999,0.908681136,4.387944760000001,-2.488836
75,1778413081450,0.90392464,-0.2019935,0.37410718,0.96292436,4.370841,-2.503252
76,1778413081460,0.8388293533333333,-0.2803923877777778,0.25850085,1.0246877244444446,3.963677444444445,-2.5379346666666667
77,1778413081470,0.7357576444444445,-0.2946445644444444,0.2391569144444444,1.058623688888889,3.8845388666666665,-2.5413282666666666
78,1778413081480,0.428628672,-0.317811232,-0.0214707667999999,0.9675668,4.14690448,-2.40380614
79,1778413081490,0.2567392355555555,-0.3085376333333333,-0.1565470746666666,0.68967204,4.307924,-2.1542546333333332
80,1778413081500,0.2270457655555555,-0.3031680755555555,-0.1628076011111111,0.58786416,4.316476,-2.0726047
81,1778413081510,0.3885592599999999,-0.29046818,0.044045254,0.37455628,4.0632183600000005,-1.66468092
82,1778413081520,0.6074134933333333,-0.2625966266666666,0.1560761833333333,0.4565998444444444,3.883385155555556,-1.6072748666666667
83,1778413081530,0.6920424044444444,-0.2465184477777778,0.14216277,0.7673174888888888,3.626354244444444,-1.7278833111111112
84,1778413081540,0.789615838888889,-0.2452074033333333,-0.0621343816666666,0.9682183333333332,3.508528533333333,-1.8101440666666664
85,1778413081550,0.8114497999999999,-0.26446667,-0.16232654,0.9641459999999998,3.5211527000000005,-1.8044428
86,1778413081560,0.7156718444444444,-0.3167461322222222,-0.3573379444444444,0.3961598755555555,3.8586119444444447,-1.8619981777777777
87,1778413081570,0.6259477755555555,-0.3348332333333333,-0.3982041433333333,-0.3468085333333333,4.217722288888889,-1.921589711111111
88,1778413081580,0.701669004,-0.26178966,-0.1077075043999999,-0.2950850379999999,3.7464331,-1.9318655799999995
89,1778413081590,0.71845657,-0.24690464,-0.049576063,-0.1556048488888889,3.532080044444444,-1.9762267
90,1778413081600,0.6557056111111111,-0.3143103511111111,-0.1028820208888889,0.1042088466666666,3.0904884444444445,-2.059980588888889
91,1778413081610,0.4453186759999999,-0.326793462,-0.0552593216,0.403510416,2.6033394999999997,-2.12635932
92,1778413081620,0.3299108577777778,-0.3263435755555555,-0.0661691762222222,0.5583398333333334,2.371190388888889,-2.0709758444444444
93,1778413081630,0.1869045333333333,-0.3138360533333333,-0.1460756011111111,0.6963913333333333,2.1009921333333335,-1.7962981555555555
94,1778413081640,0.2440284533333333,-0.2682880066666666,-0.1248243566666666,0.7177709666666667,1.9790941666666664,-1.6362562333333337
95,1778413081650,0.27062553,-0.2520269,-0.1122931399999999,0.7259156,1.9340951,-1.5827053
96,1778413081660,0.545916,-0.06555261,-0.10326822,0.9129027555555556,1.6774034777777775,-1.599537522222222
97,1778413081670,0.7177349333333334,-0.0104071133333333,-0.1436161066666666,0.9916342,1.6115677,-1.7366388
98,1778413081680,0.602422362,-0.0218000521,-0.002106827,1.19981092,1.291850338,-2.07480385
99,1778413081690,0.2642837066666666,-0.076793098,0.2393025733333333,1.8926339444444444,0.5219520233333333,-2.481600877777778
100,1778413081700,0.1895266397777777,-0.0896495396666666,0.2715198966666666,2.2411053444444446,0.3223916144444445,-2.486623388888889
101,1778413081710,0.076333724,-0.0969507756,0.2268303079999999,2.76365632,0.23564961,-2.38254852
102,1778413081720,-0.0106950682222222,-0.0987557588888888,0.01469598,3.0270536333333333,0.5533767266666667,-2.2837542
103,1778413081730,-0.3385631322222222,-0.1582409511111111,-0.1895198777777778,3.243904366666667,0.7411104433333333,-2.5122111333333335
104,1778413081740,-0.6754784060000001,-0.2823823399999999,-0.218213956,3.62348481,0.320977333,-2.76028898
105,1778413081750,-0.7375125,-0.30840215,-0.21626262,3.7466316,0.12102412,-2.8154714
106,1778413081760,-0.8034649,-0.3664136522222222,-0.1957465088888889,4.339832222222222,-0.7067417866666665,-2.950943711111111
107,1778413081770,-1.0363562,-0.5765885199999999,-0.5673044,4.4393324,-0.89304342,-2.99005154
108,1778413081780,-1.2218700666666666,-0.8247839133333333,-0.96499535,3.7179219333333338,-0.6677833333333334,-2.7661964
109,1778413081790,-1.14600588,-0.7726060880000001,-0.73476846,3.12204036,-0.744363192,-2.5772485300000003
110,1778413081800,-1.0711058555555557,-0.7110848666666667,-0.5746032766666667,2.9234131666666667,-0.840856691111111,-2.5124825555555557
111,1778413081810,-1.0231491666666668,-0.4830464533333333,-0.29222232,2.881536188888889,-0.9674378444444444,-2.6236313888888887
112,1778413081820,-1.0901856,-0.43944636,-0.31190842,2.9244313,-0.9375742,-2.7311745
113,1778413081830,-1.5029874111111112,-0.5802811388888888,-0.86575855,2.2116319,-0.8188662,-2.765381911111111
114,1778413081840,-1.7276211333333331,-0.7174808766666667,-1.0048452333333335,1.36669442,-0.7351801166666667,-2.740515333333333
115,1778413081850,-1.8906592,-0.8670018299999999,-1.0396643,0.68498886,-0.67613155,-2.6822302
116,1778413081860,-1.8906592,-0.86700183,-1.0396643,0.5657972866666667,-0.6672403333333334,-2.6559637888888883
117,1778413081870,-2.22406884,-1.167135228,-0.7506169570000001,-0.93346623,-0.5671564330000001,-2.08903659
118,1778413081880,-2.8685312333333335,-1.6512143333333331,0.2314159333333333,-2.4984162666666667,-0.2748049055555555,-0.3356266311111111
119,1778413081890,-2.7555369,-1.5082790666666668,0.6162656133333333,-2.4208386111111113,-0.1913903244444444,0.398518451111111
120,1778413081900,-2.38398055,-1.30275885,0.7929883600000001,-2.16297954,-0.0862974504,1.10754242
121,1778413081910,-1.6389539777777775,-1.060268422222222,0.8306683711111111,-1.598230933333333,0.1711644846666666,1.483620733333333
122,1778413081920,-1.3125867333333332,-1.0257204,0.6905382466666666,-1.0718842666666666,0.2636314933333333,1.3125835
123,1778413081930,-1.2210346600000002,-0.965355104,0.655288216,-0.354146342,-0.0981860619999999,0.971628931
124,1778413081940,-1.221175588888889,-0.8940935066666668,0.7215427555555556,0.2213557666666666,-0.4629458622222222,0.7899018722222223
125,1778413081950,-1.2010213,-0.8169806319999999,0.76574589,1.2294981,-0.919004444,0.66431166
126,1778413081960,-1.0086191555555557,-0.5976331555555556,0.3278612666666667,2.440326411111111,-1.2679746666666665,0.6409908555555556
127,1778413081970,-0.8986127444444444,-0.5365421777777778,-0.0410220444444444,3.0495193,-1.2594906666666668,0.6946096611111111
128,1778413081980,-0.791018712,-0.4385073,-0.6074775060000001,3.1877065,-1.198406,0.71904355
129,1778413081990,-0.7522457666666666,-0.3697234622222222,-0.8586611888888889,2.6515437222222227,-0.9837949777777778,0.8630678
130,1778413082000,-0.7275119333333334,-0.2849658033333333,-0.9826386,2.307942144444445,-0.9520309111111112,0.9284963177777776
131,1778413082010,-0.74324458,-0.16011301,-0.907430968,1.67315647,-1.04367831,1.089033729
132,1778413082020,-0.7475436222222221,-0.14884338,-0.87755796,1.2921710333333334,-1.1134981333333334,1.254756633333333
133,1778413082030,-0.7129806160000001,-0.1386300399999999,-0.87078252,0.99010705,-1.1629768,1.3888376
134,1778413082040,-0.6257715888888888,-0.0969670383333333,-0.8342526333333333,0.5754435666666667,-1.2342423666666666,1.5033714333333332
135,1778413082050,-0.6152493,-0.090462595,-0.8231883,0.46141875,-1.2552148,1.5235294
136,1778413082060,-0.723895884,-0.0785899479999999,-0.65259906,0.2165911668,-1.54805494,1.6026952
137,1778413082070,-0.79632694,-0.07067485,-0.5388729,0.028938888,-1.9021020333333336,1.7829358666666666
138,1778413082080,-0.7563415688888889,-0.0393451133333333,-0.4650508288888889,-0.032417325,-2.0518274888888888,1.9691085333333336
139,1778413082090,-0.6560078,-0.0026038104,-0.416426724,-0.2234555589999999,-2.15126663,2.2320510899999997
140,1778413082100,-0.5976771533333333,0.0233550203333333,-0.35544757,-0.3404964366666667,-2.147051733333333,2.3096897666666667
141,1778413082110,-0.568703888,0.0797851401,-0.0959598689,-0.4604872129999999,-2.1740512,2.4122511099999997
142,1778413082120,-0.5468408333333333,0.1247023966666666,0.0951579943333333,-0.3811517233333333,-2.2331812555555555,2.4659988555555556
143,1778413082130,-0.4461642266666666,0.2167436777777777,0.2840511377777777,0.0261476588888888,-2.2443121444444447,2.5507029
144,1778413082140,-0.36500908,0.286589888,0.251008546,0.238581668,-2.1816256000000003,2.5423004
145,1778413082150,-0.3122810733333333,0.3285354222222222,0.1893877333333333,0.3662623177777778,-2.133680877777778,2.5204321222222226
146,1778413082160,-0.1004123633333333,0.4968786133333334,0.017785591,0.5127299133333333,-2.0873923666666667,2.2194881000000004
147,1778413082170,-0.0671380625,0.56748739,-0.00539665645,0.5551838,-2.17453995,1.90011675
148,1778413082180,-0.2726717466666666,0.6147038788888889,0.0276032363777777,0.6222751833333333,-2.4417262444444443,1.438078711111111
149,1778413082190,-0.599608148,0.5930498500000001,0.0760745586,0.600630816,-2.7827147,1.08420806
150,1778413082200,-0.7545257133333334,0.5123368066666667,0.0983289066666666,0.5182275255555555,-2.8863890666666667,1.0102140777777775
151,1778413082210,-1.0057396466666666,0.2168724,0.2914499366666667,0.0606350733333333,-2.841322111111111,1.0667514333333332
152,1778413082220,-1.06347064,0.0811144842,0.43808043,-0.3140900299999999,-2.59209215,1.1884797
153,1778413082230,-1.0085242888888888,-0.0411812627777777,0.5981480388888889,-0.7652388955555556,-2.184992133333333,1.3691208444444445
154,1778413082240,-0.8949404166666667,-0.18466525,0.75830645,-1.0310253222222223,-1.9145904,1.4638700444444446
155,1778413082250,-0.8114955050000001,-0.364820083,0.735509375,-1.16607686,-1.7509173,1.36073864
156,1778413082260,-0.8327111666666666,-0.7936438866666666,0.7339859,-1.3050243,-1.761403533333333,0.9389486
157,1778413082270,-0.94785716,-0.93223428,0.8545803700000001,-1.042685779,-2.05019426,0.80944895
158,1778413082280,-1.5450901444444445,-1.150819188888889,1.0871637,0.1577258422222222,-2.893990688888889,1.0070240888888888
159,1778413082290,-1.2504252333333332,-0.9769641777777776,0.7007014333333333,1.6928867666666667,-3.639224466666666,1.8566447333333336
160,1778413082300,-0.959574248,-0.83100884,0.4160364587,2.2053876,-3.850170400000001,2.1716383
161,1778413082310,0.0331726666666666,-0.34394282,-0.4337143503333334,3.297921855555556,-4.142901766666666,2.7705994222222223
162,1778413082320,0.8001008577777777,0.0885282033333333,-0.9161951066666668,3.805680277777778,-4.480157311111111,2.8046882111111113
163,1778413082330,1.50880755,0.5838450500000001,-1.3845168,3.96989646,-4.7191006,2.48783581
164,1778413082340,1.7976456333333333,0.7724231166666667,-1.8017515333333336,3.6906375,-4.7605363333333335,2.1337658666666663
165,1778413082350,1.75745021,0.717127195,-1.85103186,3.3245973899999997,-4.7111595,2.00475491
166,1778413082360,1.3872252,0.2943261166666666,-1.3281364666666666,2.4411407444444446,-4.429253444444445,2.0608035555555557
167,1778413082370,1.290746,0.16848545,-1.1868376,2.1253667,-4.270433,2.1343768
168,1778413082380,1.009510118,-0.06898573,-0.78785696,1.95811672,-4.06066804,2.56907086
169,1778413082390,0.9366603555555556,-0.4275215522222222,-0.1971083833333333,1.9600306555555551,-3.578546866666667,3.6923172
170,1778413082400,1.2093388444444446,-0.3747000477777777,-0.1305665677777777,2.0473138888888887,-3.4517621444444444,4.029504866666667
171,1778413082410,1.86186473,-0.125732953,-0.194493068,2.3878705800000004,-3.4536692799999997,4.34889649
172,1778413082420,2.2753226888888887,0.0396161333333333,-0.2831296822222222,2.555683111111111,-3.4203373444444445,4.239907766666667
173,1778413082430,2.41750692,0.147191512,-0.255984436,2.5342220400000004,-3.14256484,3.3060580799999997
174,1778413082440,1.9924638666666663,0.0013110473333333,-0.0189746799999999,2.564845766666666,-2.9898938,2.8754107333333336
175,1778413082450,1.6788412333333331,-0.1109482097777777,0.1609680577777777,2.6235549333333332,-2.928266088888889,2.7497797555555556
176,1778413082460,1.00509219,-0.404953508,0.437424909,3.1760392800000004,-2.66396601,2.9478571899999997
177,1778413082470,0.7798727333333333,-0.5721980133333333,0.3526933266666666,3.2946048,-2.5930467,3.0299551
178,1778413082480,0.6776208333333333,-0.6972358033333333,0.1784453533333333,3.5012747666666666,-2.2855359666666666,3.5137460666666667
179,1778413082490,0.57027108,-0.89816216,-0.197999344,3.59440856,-1.8786455,4.3546382800000005
180,1778413082500,0.6254938066666668,-0.9027084866666666,-0.3012438488888889,3.5409118888888886,-1.8101355555555552,4.612185055555555
181,1778413082510,1.039179529,-0.6596269020000001,-0.404779739,3.30957049,-1.73411901,5.1940647900000005
182,1778413082520,1.1822268,-0.5710461888888889,-0.4432677533333333,3.216008944444445,-1.672219811111111,5.316458244444444
183,1778413082530,1.3486727777777778,-0.4318510844444445,-0.5282523544444444,2.982190111111111,-1.4916805333333332,5.4410458
184,1778413082540,1.3859345,-0.293248825,-0.550474165,2.59606265,-1.28270295,5.4834995
185,1778413082550,1.3272794,-0.2339702966666667,-0.5160226355555556,2.3245708555555553,-1.1664383444444446,5.497107466666666
186,1778413082560,1.5377929333333331,0.0752482966666666,-0.4794283933333333,1.9757091,-1.1244934333333334,5.663394133333333
187,1778413082570,1.96474882,0.438306036,-0.547678306,1.532234,-1.0354319200000002,5.4069604
188,1778413082580,2.080721,0.5552153,-0.5958376133333334,1.312329,-0.9660804,5.2125634000000005
189,1778413082590,1.93369512,0.57224678,-0.73563134,0.5506024700000001,-0.783152022,4.71479418
190,1778413082600,1.8152956333333337,0.5245393811111111,-0.7569716799999999,0.0464328833333333,-0.73911671,4.543023788888889
191,1778413082610,1.6018719444444445,0.4057011733333333,-0.4400087344444444,-1.0044874333333331,-0.8777111333333333,4.678428
192,1778413082620,1.7871805899999995,0.391303319,-0.256136887,-1.57534452,-0.8998238000000001,4.91906112
193,1778413082630,2.3782282,0.55440225,-0.0439558133333333,-2.1259350777777777,-0.6515619111111112,4.901591177777778
194,1778413082640,2.7807313333333337,0.67186848,0.0639874699999999,-2.7113982666666665,-0.2992387977777777,4.6684510999999995
195,1778413082650,2.90993808,0.69718094,0.153271132,-2.8806182399999996,-0.293130328,4.43465942
196,1778413082660,3.0996118666666668,0.6980590066666666,0.7801776133333332,-3.3649453555555553,-0.4718370844444444,3.3323245
197,1778413082670,2.98467115,0.69525398,1.088905025,-3.3818794500000005,-0.3154262499999999,2.9957477
198,1778413082680,2.8538656111111114,0.7104716888888889,1.274258033333333,-3.372614988888889,-0.1573864955555555,2.740600211111111
199,1778413082690,2.800498588888889,0.8361836333333333,1.7226479444444445,-3.2773227333333335,-0.2201680222222222,2.6170818
200,1778413082700,2.9771430800000003,1.08775247,2.21852572,-2.74357468,-0.495320786,2.4553158799999997
201,1778413082710,3.4859214444444446,1.5230495666666668,2.5204246888888893,-1.5184814,-0.8177123688888889,1.9213946222222225
202,1778413082720,3.705023,1.7029653,2.5756278666666668,-1.2216775555555557,-0.8185947266666667,1.6883903111111112
203,1778413082730,3.92503378,1.84674198,2.63220232,-0.5329337000000001,-0.8068528780000002,0.805600628
204,1778413082740,4.130278255555556,1.9236115666666664,2.731561777777778,-0.0982954977777777,-0.8111287777777778,0.1581839777777777
205,1778413082750,4.1492667,1.8985254,2.7940655,0.17493138,-0.8233457,-0.2596101
206,1778413082760,4.1007237,1.662234488888889,3.1155036444444444,0.8973600822222222,-0.3317494426999999,-1.0771273222222222
207,1778413082770,4.090739899999999,1.6037182333333333,3.0845362777777776,1.3295684555555554,0.1777141357755555,-1.4608751444444446
208,1778413082780,3.838592900000001,1.3968803,2.4632535,1.468095,1.36112045,-1.59156255
209,1778413082790,3.939461,1.4048075666666666,1.764987833333333,1.2701126155555555,2.089861255555556,-1.706096411111111
210,1778413082800,4.0276978,1.393472211111111,1.4984953,0.7092191133333333,2.791953833333334,-1.9200965333333333
211,1778413082810,4.31904452,1.2690893200000002,1.34674629,0.008231155,3.3097383999999996,-2.34638639
212,1778413082820,4.505222066666667,1.2667169111111112,1.470055288888889,-0.2885404944444444,3.610607866666667,-2.6857341333333333
213,1778413082830,4.927879160000001,1.39392278,1.6410836,-0.326039726,3.95509852,-3.2932760799999996
214,1778413082840,4.780533,1.3077592333333332,1.3784341333333332,-0.1668376566666666,4.42819288888889,-4.393629322222222
215,1778413082850,4.404620044444444,1.1403714422222224,1.0763873555555554,-0.1359983488888888,4.591289244444444,-4.7858612222222225
216,1778413082860,3.08311902,0.5707650120000001,0.2422580399999999,-0.691204222,4.77534438,-4.98385684
217,1778413082870,2.2742587666666667,0.2413758666666666,-0.0455920933333333,-1.405474711111111,4.807054,-4.569824499999999
218,1778413082880,1.7704691666666668,0.12130789,0.0458461733333333,-2.3438719333333333,4.915513466666666,-3.6030571
219,1778413082890,1.62963166,0.126854964,0.206725478,-2.81600588,5.005145000000001,-3.1040356000000004
220,1778413082900,1.6853659333333333,0.1719307666666666,0.3757197522222222,-3.1512166333333336,5.087704055555556,-2.790757466666667
221,1778413082910,2.1192089899999997,0.224982652,0.691704971,-3.54919058,5.24423056,-2.11487548
222,1778413082920,2.0930862,0.1288151116666666,0.7749537111111111,-3.444830677777778,5.1333822,-2.1750914000000003
223,1778413082930,1.8524556666666667,-0.0452262143333333,0.9696399333333334,-2.8865331333333333,4.718413166666667,-2.2978038
224,1778413082940,1.6825799,-0.202216064,0.979700485,-2.3088498399999997,4.41506634,-2.2937314
225,1778413082950,1.6551846444444445,-0.2857619233333333,0.9400209766666668,-1.9591738,4.2839650111111105,-2.2637319555555555
226,1778413082960,1.9406788666666663,-0.3028361055555555,1.0356837155555556,-1.2296864333333335,4.177813366666666,-2.3102244333333335
227,1778413082970,1.96623675,-0.175955394,1.10202467,-0.489135934,4.1378027799999995,-2.64471679
228,1778413082980,1.7301586333333334,-0.2311652566666666,0.8517536222222222,0.2019868333333333,4.161931366666667,-2.9254239
229,1778413082990,1.28123328,-0.398200056,0.3710216379999999,0.490372924,4.18489946,-2.95059082
230,1778413083000,1.1656100444444446,-0.3662578044444444,0.2510173566666667,0.5193135,4.242970722222221,-2.813978166666667
231,1778413083010,1.2801899555555556,-0.2331402977777777,0.083060402,0.4090894866666666,4.488938466666667,-2.5718960666666666
232,1778413083020,1.3972797099999998,-0.22297033,0.0002957484,0.249149323,4.70173711,-2.47002198
233,1778413083030,1.525492111111111,-0.2011634966666666,0.1194480282222222,0.1863338633333333,4.7774616666666665,-2.516079866666667
234,1778413083040,1.5271656777777778,-0.27104223,0.2480090544444444,0.4194739033333333,4.806578833333333,-2.5745176
235,1778413083050,1.45152374,-0.358417252,0.2166955734,0.5539010299999999,4.83893344,-2.57185023
236,1778413083060,1.372007566666667,-0.4384165022222222,-0.0280436417777777,0.67826955,5.106504755555555,-2.386851666666667
237,1778413083070,1.4537586,-0.43676327,-0.1714734299999999,0.60423485,5.18901,-2.25317112
238,1778413083080,1.5682283,-0.3971403666666667,-0.25355817,0.4804228944444444,5.208584277777778,-2.066632
239,1778413083090,1.5847468666666669,-0.3694727833333333,-0.16589383,0.51130462,5.071279233333333,-2.0831928000000004
240,1778413083100,1.5119205,-0.412228316,-0.041301188,0.73349012,4.78328522,-2.16985168
241,1778413083110,1.3986418888888887,-0.4277756311111111,0.1891438288888889,1.3182338222222223,4.2729701222222225,-2.3622820222222223
242,1778413083120,1.2891707777777777,-0.4196755755555555,0.2224858833333333,1.6647878444444446,4.0599879111111115,-2.4074168444444446
243,1778413083130,1.2209553999999998,-0.4887906919999999,-0.241831194,2.0657479199999997,3.88387368,-2.29617482
244,1778413083140,1.288317,-0.46937698,-0.5414848600000001,2.1354116888888885,3.8271870666666663,-2.180113811111111
245,1778413083150,1.32038186,-0.440074466,-0.65143436,2.0471783,3.8180244,-2.1343002
246,1778413083160,1.2678212555555557,-0.3251036611111111,-0.6543674444444445,1.6368246555555557,3.5778936666666663,-2.1907019222222224
247,1778413083170,1.2563233,-0.30547515,-0.6386958,1.5521205222222223,3.330907822222222,-2.210113255555556
248,1778413083180,1.2584118,-0.269085815,-0.4946020299999999,1.6200127599999998,2.69492822,-2.32409046
249,1778413083190,1.0818416333333332,-0.3659901755555556,-0.3818955933333333,1.7049001333333331,2.4835182444444444,-2.311921
250,1778413083200,1.0659769,-0.3740462,-0.37538776,1.7448088,2.4441526,-2.2741842
251,1778413083210,1.00701614,-0.392974164,-0.43683646,1.81811052,2.48178078,-2.06845104
252,1778413083220,0.9451669666666668,-0.3395523333333333,-0.4555855233333333,2.0435131666666666,2.3331820666666667,-1.9593944
253,1778413083230,0.9277218,-0.249694445,-0.548278915,2.3774480799999997,1.9585290399999995,-1.87078086
254,1778413083240,0.9229095333333333,-0.0900255783333333,-0.7796017266666666,2.7080555555555557,1.471480111111111,-1.8957305
255,1778413083250,0.8916475599999999,-0.010335969,-0.9514884666666666,2.8470572333333335,1.1943591,-1.9785341999999997
256,1778413083260,0.7239874000000001,-0.0220805554,-1.3451212,2.63305713,0.925280913,-2.25439278
257,1778413083270,0.4928505888888888,-0.0410254272222222,-1.3888513555555555,2.2540179,0.7800689422222222,-2.5136109999999996
258,1778413083280,0.0554605533333333,-0.0560398563333333,-1.1770707333333332,1.5591112333333337,0.530979,-2.8869405333333336
259,1778413083290,-0.1124516799999999,-0.0504785568,-1.005817858,1.27940428,0.3989748999999999,-3.03641487
260,1778413083300,-0.3754690777777778,-0.0323257333333333,-0.7168405755555555,1.1070843,0.26342788,-3.1685412
261,1778413083310,-1.23538316,-0.361399144,-0.896119414,0.790665432,0.0108272678499999,-3.64952232
262,1778413083320,-1.7875839666666664,-0.8127472777777778,-1.2793260444444443,0.0303642022222222,-0.0413255123333333,-3.1707130111111113
263,1778413083330,-2.2265323666666665,-1.091618566666667,-1.1421703333333333,-1.2545020999999998,0.2025213233333333,-2.2746170333333335
264,1778413083340,-2.4477525800000004,-1.2135098599999998,-0.834420652,-2.34235488,0.796331028,-1.5486199800000002
265,1778413083350,-2.515654866666667,-1.2216872,-0.1428741966666666,-3.1473480555555557,1.7010229555555556,-0.8900723444444445
266,1778413083360,-2.4380386,-0.94365263,1.1955576,-2.2217872666666665,1.9951798444444448,-0.6162091333333334
267,1778413083370,-2.45203944,-0.909141454,1.1576316,-1.2544054,1.81974452,-0.604127928
268,1778413083380,-2.5077920666666667,-0.8700440022222222,0.3743443477777777,0.6185846333333334,0.8282579666666666,-0.8323811866666666
269,1778413083390,-2.475693288888889,-0.8511472355555556,-0.18705019,1.7055109444444445,0.1653190133333333,-1.09178765
270,1778413083400,-2.4624608,-0.8477324000000002,-0.28483367,2.003808,-0.07261447,-1.2760599
271,1778413083410,-3.094347377777778,-1.0377298999999998,-0.8208676377777777,1.8329066,-0.7999299155555555,-1.7373174555555555
272,1778413083420,-3.3798789333333334,-1.1397412555555555,-0.9304133555555556,1.5334557444444443,-1.1027744222222222,-1.808107877777778
273,1778413083430,-3.63821545,-1.34871277,-0.70012626,0.8237122920000001,-0.953517291,-1.22328273
274,1778413083440,-3.6422418222222226,-1.5363566333333334,-0.6394275777777777,0.4284330044444444,-0.7410171144444444,-0.7796447244444444
275,1778413083450,-3.6018872,-1.6352785,-0.65113556,0.1109960333333333,-0.6315397133333334,-0.3084524166666667
276,1778413083460,-3.57048578,-1.79194597,-0.365323142,0.035780378,-1.04764886,0.53163564
277,1778413083470,-3.407915711111111,-1.7826378777777778,-0.2475923622222222,0.1563344755555555,-1.2929515333333332,1.0941716355555555
278,1778413083480,-3.133008,-1.7692495,-0.4720092333333334,0.0792319786666666,-1.3472491333333332,1.8493146
279,1778413083490,-2.59710888,-1.67573188,-0.694497808,-0.2653062404,-1.3357243799999998,2.71840784
280,1778413083500,-2.1933394,-1.5564390555555556,-0.7014297777777778,-0.4675526799999999,-1.339308,3.0195707666666665
281,1778413083510,-1.432400688888889,-1.323891622222222,-0.5516886666666667,-0.7831570999999999,-1.3395116666666669,3.4001284666666667
282,1778413083520,-0.663288722,-1.1520611200000002,-0.353270618,-0.78014358,-1.3522173199999998,3.3879116
283,1778413083530,-0.3486077366666666,-1.0646861333333333,-0.3193377433333333,-0.1785710133333333,-1.8149544666666668,3.0130551333333333
284,1778413083540,-0.3187381122222222,-1.1541561888888887,-0.3724031711111111,0.5596294033333333,-2.4965242444444447,2.719712588888889
285,1778413083550,-0.302215811,-1.1830081199999998,-0.44363869,0.93678007,-2.8235803400000004,2.71524664
286,1778413083560,0.0066297866666666,-1.1735983,-0.6976287977777778,2.0338073555555556,-3.561307433333334,2.8865418333333337
287,1778413083570,0.3258787639999999,-1.15146962,-0.8672823040000001,2.52699116,-3.74174487,3.02115899
288,1778413083580,0.9088403044444444,-0.9567936444444444,-1.3246029866666666,3.2307373555555556,-3.9762083777777777,3.136038977777778
289,1778413083590,1.2716087111111112,-0.8390022111111111,-1.6805113111111112,3.4597370555555553,-4.236565333333334,3.125043688888889
290,1778413083600,1.48731232,-0.761559674,-1.90494652,3.5992951900000003,-4.49804293,3.0840150900000003
291,1778413083610,2.096453511111111,-0.3413817022222222,-2.3586639999999996,3.661180955555556,-5.657811733333333,2.593343511111111
292,1778413083620,2.1624195222222222,-0.2229228866666666,-2.3410173222222226,3.5546219333333333,-5.994727933333333,2.3457298
293,1778413083630,2.01609934,-0.220515907,-2.25732681,3.37572512,-6.101218919999999,2.21085476
294,1778413083640,1.3896203444444444,-0.3488584311111111,-1.8617820888888887,2.6167932888888887,-5.961470555555555,2.171570555555556
295,1778413083650,1.14666448,-0.444678396,-1.6369431,2.31839436,-5.67568748,2.4404264400000004
296,1778413083660,1.330111511111111,-0.5475624777777779,-1.3726782999999998,1.5033884666666666,-4.605313533333334,3.3773913555555555
297,1778413083670,1.8633065555555557,-0.5264907644444444,-1.0786063199999998,0.94622788,-3.7363491666666664,3.872720666666667
298,1778413083680,2.08439,-0.53388786,-0.517774135,0.79707932,-3.09241425,3.85032295
299,1778413083690,1.8912554444444445,-0.6543674277777778,0.0966181,1.3601108222222222,-2.885303066666667,3.7430175
300,1778413083700,1.7705302,-0.72010297,0.28208962,1.7106014,-2.843494,3.7324295
301,1778413083710,1.72621052,-0.745470322,0.303359156,2.96965679,-2.98484404,3.87530668
302,1778413083720,1.7151306,-0.75181216,0.30867654,3.6232405,-3.1012716,3.9272897000000007
303,1778413083730,2.0082423,-0.69850113,-0.0847153049999999,4.154677599999999,-3.1060362,3.67623152
304,1778413083740,2.1558202333333334,-0.6351217722222222,-0.4495824746666667,4.684824988888889,-3.069032322222222,3.3679573333333335
305,1778413083750,2.1699742222222222,-0.6084908222222222,-0.54711865,4.8180575,-3.051182,3.2767375
306,1778413083760,1.8461901,-0.724371525,-0.80036679,4.9803598,-2.70969556,3.21210984
307,1778413083770,1.6140779333333333,-0.8390665633333333,-0.9472198788888888,4.844188533333333,-2.4191502333333332,3.3317815777777775
308,1778413083780,1.29286,-0.8716463600000001,-0.7939081333333333,4.6040578000000005,-2.1942906333333334,3.6723627666666663
309,1778413083790,1.16667172,-0.828834928,-0.711998888,4.33463348,-1.84284978,4.279748360000001
310,1778413083800,1.1015886,-0.6882278522222223,-0.7336776133333334,4.230558744444445,-1.4738981222222225,4.959562
311,1778413083810,1.31872639,-0.670435452,-1.59565714,3.46020533,-0.6713058700000001,6.26868265
312,1778413083820,1.4327971,-0.66494733,-1.8787072,3.1987016,-0.5032618,6.6016555
313,1778413083830,2.3473253333333335,-0.0449856872222222,-1.953044277777778,2.1577499555555555,-0.6172866,6.939385722222222
314,1778413083840,2.5239765600000004,0.1141011674999999,-1.82311869,1.7958679279999998,-0.6667245,6.92882482
315,1778413083850,2.588934966666667,0.5356308388888888,-0.7999518,-0.44332238,-0.95243811,6.362203133333334
316,1778413083860,2.3915386222222224,0.8287137222222223,0.3979669888888889,-0.7568906533333334,-0.58552255,6.240848133333333
317,1778413083870,2.44306936,0.87516081,0.5859640819999999,-0.752288952,-0.099858258,6.40410748
318,1778413083880,2.9843203999999997,0.80840422,-0.0649597355555555,-1.3403855,0.8477287344444444,6.572131333333334
319,1778413083890,3.3293404666666664,0.89158658,-0.35169734,-1.8299456333333337,0.8190952533333333,6.285236833333333
320,1778413083900,3.42526678,0.9867588,-0.269948674,-2.17715124,0.6018219708,5.915292460000001
321,1778413083910,3.265332733333333,1.2029055666666666,0.5573698866666666,-2.7445876666666664,-0.1528390773333333,4.9026092000000006
322,1778413083920,3.00512656,1.47339692,1.65250494,-2.15638246,-0.75163227,4.54339024
323,1778413083930,3.2966558666666668,1.8025340000000003,1.8066399,-1.3323088333333333,-0.7368090166666668,4.423908533333333
324,1778413083940,3.641052511111111,2.1228575333333333,1.4308252777777777,-1.0150754666666666,-0.3613415866666666,4.059843533333333
325,1778413083950,3.7002158,2.1843042,1.3468773,-0.9613209,-0.23571068,3.890028
326,1778413083960,3.6968824,2.1709702666666666,1.0010442066666667,-1.0826079444444443,-0.6943211888888889,2.7798046666666667
327,1778413083970,3.5816928666666663,2.230018433333333,1.2974740866666667,-1.1492581666666668,-1.6184652333333334,2.010374666666667
328,1778413083980,3.5249925000000006,2.262876,1.4513042,-1.1641221,-1.9161515,1.7868046
329,1778413083990,3.4938657444444443,2.499177,2.3664387777777782,-1.1597783666666668,-1.9747928333333336,1.7021005111111112
330,1778413084000,3.94894999,2.86075826,2.73078746,-1.61920327,-0.211521135686,1.7196114000000002
331,1778413084010,4.322115277777778,2.8304091444444444,2.925743222222222,-1.6882290777777778,0.3244786458399999,1.365659377777778
332,1778413084020,4.557298277777778,2.715788666666666,3.110466,-1.4463336333333334,0.8824197333333333,0.6577552333333334
333,1778413084030,4.6457099,2.5787846799999996,3.01654176,-1.11281102,1.03602746,0.02191415
334,1778413084040,4.553781988888889,2.2233310444444445,2.823938477777778,-0.7061903388888889,1.2268697444444443,-0.8936695111111111
335,1778413084050,4.3376719,2.0990554666666665,2.8080501,-0.5978667666666667,1.7610217666666663,-1.4234777333333333
336,1778413084060,3.72266846,1.78708608,2.82960426,-0.576548168,3.1178483100000003,-1.6259532499999998
337,1778413084070,3.5877195000000004,1.6706565666666666,2.745983466666667,-0.3863099799999999,3.8322774,-1.5448327
338,1778413084080,3.653353290000001,1.55222787,2.35039629,0.46897798,4.19198492,-1.58062834
339,1778413084090,3.8436796333333336,1.4659391888888889,1.6591923,1.1166542222222222,3.9771839555555553,-1.8426546333333336
340,1778413084100,3.9278411,1.4219020333333334,1.3124545799999998,1.3212880333333334,3.7115333,-2.099481966666666
341,1778413084110,4.08684509,1.3412459499999998,0.949058434,1.46137567,3.22709075,-2.8637664999999997
342,1778413084120,3.942099822222222,1.228859,0.7135070888888889,1.2638684222222225,3.4688234444444443,-3.3533563666666666
343,1778413084130,3.389652388888889,0.9529858555555556,0.3582356622222222,0.8206648111111111,3.885896333333333,-3.858662811111111
344,1778413084140,2.9399093400000003,0.757745444,0.388199472,0.414750008,4.0093416,-3.96557466
345,1778413084150,2.6803765222222222,0.6415923166666667,0.3848530722222222,0.144185398,4.08415,-3.9508328666666666
346,1778413084160,2.2902402499999996,0.50001394,0.30465193,-0.2518370596,4.1658408,-3.7713252
347,1778413084170,1.9626754666666664,0.3991797933333333,0.1330463866666666,-0.6850143000000001,4.194102666666667,-3.491475733333333
348,1778413084180,1.8789442777777776,0.3999691211111111,0.2374257822222222,-1.2712241,4.078245333333333,-3.1488582111111114
349,1778413084190,2.10624474,0.462844078,0.470734804,-1.69800267,4.2632099000000006,-2.96073089
350,1778413084200,2.176925688888889,0.4486406788888888,0.5411833622222222,-1.8344930666666663,4.392424444444445,-2.9290890222222226
351,1778413084210,2.1875835111111113,0.3085681388888889,0.7794052133333333,-1.8251267333333336,4.735788611111111,-3.1808258333333335
352,1778413084220,2.14237502,0.204999768,0.988112476,-1.64705799,4.75775207,-3.3277278699999995
353,1778413084230,2.0834209555555554,0.1215213144444444,0.9831264244444444,-0.8303959666666666,4.520906133333334,-3.6268802666666664
354,1778413084240,2.022021688888889,0.0111049822222222,0.8249227711111111,-0.3078840017777777,4.367854944444445,-3.8197722444444446
355,1778413084250,1.9670963999999995,-0.1042133959999999,0.671917252,-0.0187071952,4.319407920000001,-3.94932604
356,1778413084260,1.8335113666666665,-0.2887160333333333,0.45576848,0.1853157866666666,4.4754996333333334,-4.070762200000001
357,1778413084270,1.6378835333333333,-0.4321051666666666,0.2201246344444444,0.2560383188888889,4.7344309777777775,-3.994610211111111
358,1778413084280,1.56710972,-0.570118636,-0.134196858,0.1059056424,4.9711818999999995,-3.69215936
359,1778413084290,1.5244927111111108,-0.6102253044444443,-0.2164455555555555,-0.1573610368888889,5.1405766222222224,-3.3777902
360,1778413084300,1.4986728,-0.6208167039999999,-0.174821176,-0.229648026,5.1365381999999995,-3.26762055
361,1778413084310,1.4785721,-0.6696529,-0.0415979563333333,-0.2301367133333333,4.9796521333333335,-2.9504687
362,1778413084320,1.5373695777777778,-0.67128917,0.0392942991666666,-0.1783419548888888,4.901531544444444,-2.8521222666666666
363,1778413084330,1.93125899,-0.524756203,0.174546771,0.258006623,4.747123,-2.71254365
364,1778413084340,2.063230133333333,-0.5442898866666667,-0.09048292,0.5793122955555555,5.008565588888889,-2.8099738555555556
365,1778413084350,2.0602117,-0.5804912,-0.23870295,0.6232933,5.1722727,-2.8979359
366,1778413084360,1.7190057799999998,-0.608858715,-0.321418147,0.5937282859999999,4.9388679600000005,-3.03891923
367,1778413084370,1.521044,-0.6021489666666666,-0.3736701866666666,0.6251258,4.7161732,-3.0233629666666664
368,1778413084380,1.4110579,-0.601986335,-0.469829245,0.5800453,4.522087,-2.90697628
369,1778413084390,1.2793531333333332,-0.6196296233333334,-0.5331104033333333,0.4373242111111111,4.2179937999999995,-2.758662555555555
370,1778413084400,1.2465667,-0.6251584,-0.52594537,0.4247679,4.1906414,-2.7476673
371,1778413084410,1.14639315,-0.641516075,-0.451642235,0.4950153499999999,3.9502729,-2.59980415
372,1778413084420,1.0462467,-0.6546452444444445,-0.3804558133333333,0.5771403822222222,3.694293866666667,-2.428253688888889
373,1778413084430,1.0607258444444445,-0.6159641444444444,-0.4127917144444444,0.67216104,3.5694096,-2.2387552
374,1778413084440,1.2253458499999998,-0.45713033,-0.5139934349999999,0.907337227,3.14548169,-2.04774327
375,1778413084450,1.2983989111111112,-0.3891080644444444,-0.561618171111111,0.9659785600000002,3.028199,-2.023737
376,1778413084460,1.57236616,-0.213841744,-0.590436884,1.266026752,2.52822048,-2.04255108
377,1778413084470,1.728884766666667,-0.0556096120888888,-0.6222686777777777,1.7809166555555551,1.9385746333333331,-2.2900663333333333
378,1778413084480,1.5316712555555556,0.0189814601777777,-0.8839574555555555,2.311946577777778,1.5606638444444445,-2.7762244
379,1778413084490,1.31519255,0.0859928178999999,-1.03703308,2.43188976,1.38140052,-3.14093072
380,1778413084500,1.2490058,0.1116223599999999,-1.0792093,2.444432477777778,1.3162570555555555,-3.2540596222222224
381,1778413084510,0.4737335833333333,-0.1439006755555555,-1.3135522555555557,2.3792755444444444,0.94431898,-3.6412010888888897
382,1778413084520,0.0848433642,-0.23712664,-1.4462032800000002,2.24032816,0.7926659490000001,-3.68824999
383,1778413084530,-0.4578417586666666,-0.4344766,-1.8114979,1.354816761111111,1.058479526666667,-3.114786555555556
384,1778413084540,-0.93682292,-0.5519427933333333,-2.1251138,0.09424863,1.5486505,-2.344660733333333
385,1778413084550,-1.11315638,-0.5993398520000001,-2.15829056,-0.8378075739999999,1.86317572,-1.90718724
386,1778413084560,-1.3692567222222225,-0.7238159666666667,-1.449698311111111,-2.5124657333333333,2.2694502666666665,-1.1137781333333332
387,1778413084570,-1.37962315,-0.6826312999999999,-1.12264165,-2.6251466399999996,2.19651508,-0.8610502800000001
388,1778413084580,-1.2222292,-0.5705787133333333,-0.8431759133333334,-2.267515922222222,1.8590287555555551,-0.7467268444444444
389,1778413084590,-1.1546371111111111,-0.5602460966666667,-0.8491213922222223,-1.8534294,1.4982895444444444,-0.941383488888889
390,1778413084600,-1.16495816,-0.564490234,-0.790155884,-1.77802368,1.45934464,-1.1161401
391,1778413084610,-1.3031451333333337,-0.6351691700000001,-0.40506428,-1.427533022222222,1.525913422222222,-1.840143477777778
392,1778413084620,-1.6058220555555556,-0.8515571866666667,-0.1437448344444444,-0.6683856666666667,1.4902806444444443,-2.4883627555555554
393,1778413084630,-2.1843836,-1.06533044,-0.156704266,0.1875911839999999,1.0519095,-2.91137448
394,1778413084640,-3.0084276222222224,-1.377485577777778,-0.2852334455555556,1.6402860333333331,-0.2793183888888889,-3.195893533333334
395,1778413084650,-3.11397136,-1.43689183,-0.333610929,2.36458968,-1.070372368,-3.20311504
396,1778413084660,-3.6642890666666665,-1.8000745666666669,-0.8197023299999999,2.8641610666666666,-2.0861707999999997,-2.950468533333334
397,1778413084670,-3.759413177777778,-1.8376851555555556,-0.8216807644444444,2.858256222222222,-2.6195422444444443,-2.7458686666666665
398,1778413084680,-3.73240678,-1.85042502,-0.517889978,2.80055152,-3.34390004,-2.34516478
399,1778413084690,-3.854377911111111,-1.8857299333333333,-0.3426724411111111,2.6999789222222224,-3.5160368111111113,-1.822632466666667
400,1778413084700,-3.96578,-1.9076418,-0.33096445,2.4202532666666667,-3.2362687666666665,-1.1946136333333337
401,1778413084710,-3.72311662,-2.01322726,-0.5291711450000001,1.7793828399999998,-2.6686694199999996,-0.2473626159999999
402,1778413084720,-3.695286733333333,-2.0611264,-0.5415661766666667,1.3929608333333334,-2.4957182,0.2678310733333333
403,1778413084730,-3.5135435,-1.9727829,-0.3376569,1.2732347,-2.511193,0.517464
404,1778413084740,-3.31684,-1.879561,-0.19184047,1.1736666,-2.9943733,1.8020757
405,1778413084750,-2.428305677777778,-1.7253039555555556,-0.0853098558888889,1.1401378666666666,-2.666687677777778,3.122727455555556
406,1778413084760,-1.6355282600000003,-1.52436942,-0.0806693436,1.0695172,-2.3071319000000003,3.5296283
407,1778413084770,-1.1976477444444444,-1.4246292111111112,-0.08197972,1.0081949488888888,-1.971602866666667,3.6992402
408,1778413084780,-0.3945555266666666,-1.2856441333333333,0.012338118,1.1820827911111111,-1.4093519222222222,3.6766387
409,1778413084790,0.246124102,-1.1711841399999998,0.0917858424,1.6087731399999998,-1.21361608,3.41411692
410,1778413084800,0.33407435,-1.1569272,0.10101199,1.8656293111111113,-1.2015959444444446,3.258276244444444
411,1778413084810,0.364420632,-1.19984436,-0.0232361114,3.4338779,-1.57896375,2.64416695
412,1778413084820,0.3194698555555555,-1.2717509666666666,-0.3371978455555556,4.320488777777778,-1.8375558,2.4347099333333335
413,1778413084830,0.2667229,-1.3219063,-0.61649936,5.114319,-2.1470518,2.4184206
414,1778413084840,0.355807332,-1.54976114,-1.6839885200000002,6.353682,-3.2361465600000003,2.88335172
415,1778413084850,0.4233580377777777,-1.571633022222222,-2.0741691777777778,6.501561177777777,-3.5235706555555555,3.132170111111111
416,1778413084860,0.7295412111111111,-1.3395192,-2.493285711111111,6.201024422222222,-3.999759944444444,4.050070111111111
417,1778413084870,1.3278335,-0.98571604,-2.6436907599999997,5.77887477,-3.91522545,4.5987941
418,1778413084880,2.0510342333333336,-0.5146032,-2.7417249333333333,4.612371822222222,-3.070932777777778,5.1512238888888895
419,1778413084890,2.4536797399999997,-0.13872151876,-2.75687414,3.27343872,-2.16921016,5.29815316
420,1778413084900,2.5328307,-0.0517543736666666,-2.6168091444444443,1.5320981777777778,-1.3449414111111109,5.22344
421,1778413084910,2.6872536444444446,-0.1177270627777777,-1.929218322222222,-0.2496074777777777,-1.0703317,5.111994
422,1778413084920,2.7899187999999997,-0.1231474374999999,-1.58401015,-0.669946744,-1.02614708,4.9766032
423,1778413084930,2.6191162,-0.4128425244444444,-0.5333779977777778,-1.0093063111111111,-0.886602391111111,4.717386888888889
424,1778413084940,2.3442221333333335,-0.5973519266666667,0.16877002,-1.0313646777777778,-0.67653878,4.455401111111112
425,1778413084950,2.18955761,-0.6735697770000001,0.4560449,-0.812633012,-0.61626852,4.427268069999999
426,1778413084960,1.6161139666666666,-1.0701200666666668,0.9075901988888888,0.6657811355555555,-0.6476253555555556,4.668451133333333
427,1778413084970,1.60349295,-1.15657665,0.799467355,1.4170893,-0.8108233699999999,4.8796005000000005
428,1778413084980,1.789481211111111,-1.1815391222222222,0.4085638022222222,2.7032791,-1.3413441666666666,5.112333333333334
429,1778413084990,1.8650682444444449,-1.150646411111111,-0.1026110122222222,3.576816166666667,-1.7986651666666669,5.272986133333333
430,1778413085000,1.91232504,-1.099734891,-0.313070105,3.82524773,-2.01150476,5.34331761
431,1778413085010,2.0751008,-0.89012309,-0.7541293666666667,3.9131892,-2.2851033333333337,5.467922866666666
432,1778413085020,2.1091881333333333,-0.8047590444444445,-0.923421127777778,3.76231,-2.219606866666666,5.531586711111111
433,1778413085030,2.04972326,-0.7613432259999999,-1.04762826,3.43155668,-1.98407768,5.629553079999999
434,1778413085040,1.8029100666666664,-0.70065067,-1.4268109,2.048654466666667,-1.2544002666666667,6.0869146
435,1778413085050,1.7719936,-0.72961575,-1.5299673,1.1730558,-1.0646304,6.441613000000001
436,1778413085060,1.8441286555555552,-0.8630042444444445,-1.470492288888889,0.3822037466666667,-1.005446133333333,6.746765388888889
437,1778413085070,1.9155082000000003,-0.9497505,-1.2204981,0.35696387,-1.0017132,6.762919
438,1778413085080,2.01219052,-0.908409711,-1.041133922,-0.918599699,-0.93800179,7.2161676
439,1778413085090,2.346159911111111,-0.4172058888888889,-0.0935894688888889,-1.9404412222222225,-1.4584911222222223,7.449579277777777
440,1778413085100,2.5104818,-0.18074225,0.13296507,-1.8357148111111112,-1.7491187222222222,7.354287066666667
441,1778413085110,2.9700879999999996,0.269405982,0.0354532879999999,-1.71583942,-1.7203138800000002,6.735430839999999
442,1778413085120,2.979059388888889,0.3055734,-0.2720043533333333,-2.0151003,-1.5556837777777777,6.403672866666667
443,1778413085130,2.9318112999999997,0.351508308,-0.3984073959999999,-2.79047242,-1.54158,6.18041522
444,1778413085140,3.0338964999999996,0.60231155,-0.0091367199999999,-4.501868033333333,-1.4293062333333333,5.992233333333334
445,1778413085150,3.10573,0.68415576,0.20717672,-5.190445622222223,-1.1855103111111112,5.894769222222222
446,1778413085160,3.43275228,0.92177939,1.74092476,-6.26423877,-0.0906344559999999,5.374287799999999
447,1778413085170,3.5029617888888884,0.9001541666666666,2.132560088888889,-6.390887733333333,0.2082225566666666,4.982833733333333
448,1778413085180,3.701435433333333,0.9000524866666666,2.5683104666666665,-5.7353804777777775,-0.4089028777777778,4.107353944444444
449,1778413085190,3.59639875,1.018657,2.9329455500000003,-4.88104365,-1.30292188,3.16886188
450,1778413085200,3.519382,1.067044,3.0290792,-4.593495,-1.605841,2.8576963
451,1778413085210,3.508941111111111,1.7503291111111112,4.351266833333333,-2.7965351333333333,-2.8591724666666667,2.5279659
452,1778413085220,3.78965725,2.2569152000000003,5.03953195,-2.18698585,-2.84043985,2.4639287
453,1778413085230,4.691344277777778,2.8974387555555556,5.5438432,-1.6670445655555557,-2.6797107444444443,2.346001211111111
454,1778413085240,5.80736926,3.5189371,5.78549616,0.3635610079999999,-1.64603486,1.448273044
455,1778413085250,6.5613382,3.651666266666667,5.174986866666667,1.1847297444444442,-0.7253980855555555,0.2403344622222222
456,1778413085260,6.109895644444445,2.9055455444444447,4.188740266666667,1.5157411666666667,0.70710662,-1.5232494666666667
457,1778413085270,5.47986834,2.37402872,3.729552959999999,1.42240368,2.04160434,-2.64831304
458,1778413085280,3.9562811,1.1855704666666669,2.3463056888888887,0.9559335333333334,3.593495633333333,-2.950672222222222
459,1778413085290,3.5325842222222223,0.935423777777778,1.9952553555555557,0.7381325555555556,3.8194497333333337,-2.862031466666666
460,1778413085300,3.191863,0.76906925,1.7392783,0.5304445,3.9182034,-2.7354503
461,1778413085310,3.233738888888889,0.8492772244444445,1.8751873111111113,0.506417831111111,3.9633381111111112,-2.3083918111111115
462,1778413085320,3.3921858,0.99373489,1.8721397,0.62726378,4.02846135,-2.24242035
463,1778413085330,3.9439734333333334,1.1449550666666666,0.974088,0.60394976,3.9654423666666663,-2.4749494666666667
464,1778413085340,4.176036311111111,1.1541832333333335,0.7276542611111112,0.4005376233333333,3.8245402666666664,-2.817253
465,1778413085350,4.2285606,1.1257334,0.742034155,0.08452599,3.644544,-3.241232
466,1778413085360,3.464836177777778,0.7437866333333333,1.2592536444444444,-0.5434928677777778,4.386519466666666,-3.9219872222222225
467,1778413085370,3.2082562666666665,0.6081486333333334,1.309094,-0.6533859777777778,4.609275133333333,-4.0126641111111105
468,1778413085380,2.79631564,0.4503067699999999,1.26536048,-0.525420274,4.781941659999999,-3.7477465
469,1778413085390,2.4860902,0.3412597566666667,0.97087984,-0.5690212133333333,4.906893722222223,-3.5199819444444445
470,1778413085400,2.42090958,0.316997158,0.828444668,-0.62902,4.9853535,-3.3847811
471,1778413085410,2.4785999333333333,0.4222909066666667,0.9739592466666668,-1.1698234100000002,5.1044688,-3.0866875333333335
472,1778413085420,2.5086931333333333,0.4433592033333333,1.1329929,-1.2459078222222224,5.155440566666666,-3.055059255555556
473,1778413085430,2.5379378,0.342840105,1.1951916,-1.0175188,5.1783813,-3.11539735
474,1778413085440,2.5709223999999997,0.1863624933333333,1.1918175,-0.5656954666666666,5.135011266666666,-3.3238998333333334
475,1778413085450,2.4723292666666667,0.0593835453333333,1.1174635999999998,-0.4378248,5.1344004,-3.3982196
476,1778413085460,2.0795116800000004,-0.2524964376,0.90460158,0.075974124,5.1754492,-3.50682824
477,1778413085470,1.9395372888888889,-0.3611829933333333,0.8684450155555556,0.2679837855555556,5.176548777777778,-3.4323592
478,1778413085480,1.97287426,-0.4329246399999999,0.865672518,0.81693187,5.282103,-3.27397328
479,1778413085490,2.030636711111111,-0.5115881411111112,0.7040824466666666,1.3392741377777777,5.271976566666667,-3.2910498666666665
480,1778413085500,2.026378333333333,-0.5553576333333334,0.5875647866666667,1.5709888555555558,5.211706344444445,-3.3388317111111108
481,1778413085510,1.9340457,-0.676777275,0.26243909,2.3587637299999997,4.75750758,-3.604319489999999
482,1778413085520,1.8488205777777775,-0.76618967,0.0201366795555555,2.608012388888889,4.507263911111111,-3.714502755555555
483,1778413085530,1.728965977777778,-0.8943645277777778,-0.2404137491111111,2.857509533333334,3.9073439666666663,-3.951986611111112
484,1778413085540,1.71680128,-0.913132578,-0.260234694,2.9179562399999996,3.73238368,-4.02531556
485,1778413085550,1.7237454888888888,-0.8987144066666666,-0.2235055977777778,2.9886380333333333,3.5542741444444443,-4.118340955555556
486,1778413085560,1.3067022666666668,-0.95673262,-0.5784992333333334,2.9126215,3.552509433333333,-4.186212533333333
487,1778413085570,1.05672929,-0.989847405,-0.794579928,2.73665688,3.5042932,-4.0598894
488,1778413085580,0.933228551111111,-0.9073666055555556,-0.9008384377777776,1.9639079333333336,3.2260454888888885,-3.5065431555555553
489,1778413085590,0.970126741,-0.8325485520000001,-0.74057368,1.53956414,3.0238008200000004,-3.2136215999999997
490,1778413085600,1.0301109333333334,-0.7737036566666666,-0.57298058,1.4165802,2.8950088000000003,-3.0925924
491,1778413085610,1.2643691777777777,-0.6644290055555556,-0.2742571955555555,1.4382992555555556,2.515350277777778,-2.947346488888889
492,1778413085620,1.41507652,-0.640153206,-0.171156326,1.66173362,2.2199717,-3.0059336
493,1778413085630,1.424199,-0.6537271655555555,-0.1433687944444444,1.9062761333333331,2.0031209333333333,-3.138406
494,1778413085640,1.3446584444444445,-0.6788235,0.0031505933333333,2.1690761555555556,1.7857271777777777,-3.2339696
495,1778413085650,1.27607759,-0.6758992100000001,0.157481747,2.52140177,1.54938358,-3.2836246699999996
496,1778413085660,1.3049779111111113,-0.6191011222222222,0.2574099999999999,3.430552111111111,1.0930941555555558,-3.3283116333333336
497,1778413085670,1.3689671,-0.5747743799999999,0.2010635649999999,3.7310550500000006,0.93047305,-3.37317495
498,1778413085680,1.4794765333333333,-0.49280318,-0.1933039566666666,4.461730333333334,0.4609351644444444,-3.511701566666667
499,1778413085690,1.6229672666666666,-0.4599353522222222,-0.7264346288888889,4.611862855555556,0.3512541422222222,-3.647784755555555
500,1778413085700,1.630403,-0.461228099,-0.94094206,4.4982179900000006,0.36128561,-3.75483235
501,1778413085710,1.4046449333333333,-0.4388772333333333,-1.2741190333333334,3.8488466666666663,0.3872262533333333,-4.064654166666667
502,1778413085720,1.2617165555555556,-0.4337278933333333,-1.3253957333333333,3.5577441222222226,0.3720229455555556,-4.143657033333334
503,1778413085730,0.86634627,-0.4784882849999999,-1.34009345,2.55151667,0.126055971,-4.1110172
504,1778413085740,0.5377854333333334,-0.4029097,-1.1682795666666663,1.9337642333333336,0.0546453773333333,-4.037980233333333
505,1778413085750,0.324332945,-0.405145585,-1.19365195,1.5267363,0.126216318,-3.92202115
506,1778413085760,0.0235074733333333,-0.47971294,-1.4504809333333333,1.060388355555555,0.2750424688888889,-3.768936133333333
507,1778413085770,-0.3003528733333333,-0.6053198566666667,-1.6627188666666666,-0.3849355866666666,0.8623297055555557,-3.4244860444444445
508,1778413085780,-0.93383498,-0.8772279839999999,-1.80875788,-1.35531737,1.264606525,-3.13158475
509,1778413085790,-1.3862732444444443,-1.0629210755555556,-1.6544765888888888,-2.8973504,1.8027629333333333,-2.489635233333333
510,1778413085800,-1.5470211,-1.1195063333333333,-1.5097832,-3.441844322222222,1.9313802444444448,-2.1648426777777776
511,1778413085810,-1.7014529,-1.14219468,-1.08091668,-4.2934466,1.8368483,-1.37843788
512,1778413085820,-1.687571377777778,-1.1397446555555557,-0.9245932111111111,-4.499695888888889,1.6647793888888889,-1.0789598444444444
513,1778413085830,-1.5061610399999998,-1.2064362,-0.70505335,-4.637354,1.63306958,-0.8088839379999999
514,1778413085840,-1.259199511111111,-1.3226279333333335,-0.5007575488888888,-4.750482866666666,1.9002949666666669,-0.8203678766666667
515,1778413085850,-1.209034,-1.347792,-0.45981342,-4.716546877777778,2.0616265222222223,-0.9800026444444444
516,1778413085860,-1.63928775,-1.55629514,0.0681259199999999,-3.7863216,2.06994756,-1.59418922
517,1778413085870,-2.0281333,-1.6937235555555556,0.4328741633333333,-2.950214088888889,1.8415178444444444,-1.8198497444444448
518,1778413085880,-2.801213633333333,-1.7461995,0.4712571466666666,-0.763966256,0.7447755133333334,-1.7910041666666667
519,1778413085890,-3.37059615,-1.76044427,0.26662529,0.4774840462,0.0197379989999999,-1.63474943
520,1778413085900,-3.5779834,-1.7524194,-0.1088783,1.3288219,-0.5845045,-1.3628002
521,1778413085910,-3.439696066666667,-1.665639177777778,-0.5137664288888888,1.8586979222222224,-0.9487051677777778,-0.7362067044444445
522,1778413085920,-3.3172484000000004,-1.5909525800000002,-0.741390836,1.97112775,-0.899090785,-0.25166907
523,1778413085930,-3.3453983000000003,-1.5721547333333332,-1.0197444766666668,1.7919798333333334,-0.72248809,0.2035394022222222
524,1778413085940,-3.42189476,-1.58192765,-1.3275805699999998,1.52960734,-0.6361210589999999,0.559978966
525,1778413085950,-3.4432802,-1.585001,-1.4096555,1.4381635,-0.6187119,0.6622348
526,1778413085960,-3.3545351777777777,-1.5665582,-1.6724790555555555,0.3087748088888888,-1.125240088888889,1.5826459
527,1778413085970,-3.00154712,-1.50089852,-1.4366325999999998,-0.305484712,-1.58690482,2.12472536
528,1778413085980,-2.6755830666666665,-1.4681750666666666,-1.1454936466666663,-0.5811702533333334,-1.8652474666666667,2.425979933333333
529,1778413085990,-2.136832,-1.3833632333333332,-0.5680277122222223,-0.7591304533333333,-2.3404867333333335,2.8976048666666667
530,1778413086000,-1.9755238,-1.33026662,-0.353014492,-0.6527819509999999,-2.4774209,3.07613519
531,1778413086010,-1.2750845333333334,-1.1052779,0.0201536133333333,-0.1573949745333333,-2.644765,3.5640392999999997
532,1778413086020,-0.8231821220000001,-0.97020296,0.113744442,0.19325678928,-2.61198292,3.71703616
533,1778413086030,-0.1607647924444444,-0.8654705111111112,0.0456496822222222,0.6437906,-2.473345966666667,3.601979644444444
534,1778413086040,0.0638722862222222,-0.8856376666666667,-0.0810616344444444,1.296379091111111,-2.441140811111111,3.3189537777777773
535,1778413086050,0.147642752,-0.94060972,-0.177845732,1.47322616,-2.48394173,3.25022667
536,1778413086060,0.2398649288888888,-1.0760452555555555,-0.3481300666666666,2.6743741777777776,-3.010934066666666,2.989774888888889
537,1778413086070,0.1958989577777777,-1.1332436888888888,-0.4803769622222222,3.3218892777777778,-3.419658688888889,2.9927612
538,1778413086080,0.195846792,-1.29565484,-0.718889524,4.18509812,-4.06689888,3.2207836999999997
539,1778413086090,0.3372249555555555,-1.4562401111111112,-0.9341297444444444,4.7148248,-4.4870804,3.5438812333333334
540,1778413086100,0.48515025,-1.551554,-1.0706723,5.1228704,-4.8177524,3.9193487
541,1778413086110,0.7240361444444444,-1.4675043333333333,-1.2414985777777778,5.324305955555555,-4.872389155555556,4.6207371111111115
542,1778413086120,0.9606251866666666,-1.4250629111111113,-1.3945461222222224,5.157612777777778,-4.759450311111111,5.387706911111112
543,1778413086130,1.61128613,-1.5522155,-1.58716884,3.79476648,-4.17062076,6.86749616
544,1778413086140,2.0880825,-1.6240513222222224,-1.1648512111111111,2.4954891666666668,-3.1971745666666664,7.827693744444446
545,1778413086150,2.3781468666666665,-1.6258468333333334,-0.93124339,2.1766778222222225,-2.826721177777778,8.019440444444445
546,1778413086160,2.9207343999999997,-1.6480991500000002,-0.528765585,0.91985962,-0.732329518,8.353031
547,1778413086170,3.2105024,-1.6708189333333334,-0.1599686773333333,0.049232595,0.8414082142222221,8.15124811111111
548,1778413086180,3.2623245666666665,-1.6141998333333332,0.046415306,-0.1747023166666667,1.3315961666666665,7.878173766666667
549,1778413086190,3.1927046399999996,-1.35076788,0.29258414,-0.3408222399999999,1.87386562,6.962177280000001
550,1778413086200,3.1104491999999997,-1.240648277777778,0.3340472644444444,-0.2063476071111111,1.7228098777777778,6.228834777777778
551,1778413086210,2.2411247199999997,-1.27481826,0.387321396,0.2026638576,1.073655684,5.34301976
552,1778413086220,1.8492034,-1.3936585333333331,0.3520530666666667,0.6243113466666667,0.3917058,4.977947199999999
553,1778413086230,1.329173011111111,-1.6614553666666667,0.1733739399999999,1.1372193666666668,-0.47432289,5.139210666666667
554,1778413086240,1.1640557699999998,-1.78853121,0.0458929229,1.36889336,-0.90495494,5.555976360000001
555,1778413086250,1.1378544,-1.8312146,-0.021102179,1.3330977333333334,-0.90662459,5.967188566666667
556,1778413086260,1.1518862666666667,-1.8772030333333332,-0.1959972166666666,1.083261246666667,-0.6580097466666667,6.586994999999999
557,1778413086270,1.1944751500000002,-1.88602465,-0.270915205,0.68132378,-0.314632148,7.191489679999999
558,1778413086280,1.378799911111111,-1.895415488888889,-0.3580967711111111,0.0788502066666666,-0.0180454477777777,7.894250422222222
559,1778413086290,1.81672787,-1.81453885,-0.456877262,-0.58161823,0.1314085159999999,8.4934032
560,1778413086300,2.0865918555555556,-1.7056551,-0.5158532577777778,-1.0092384833333332,0.14430418,8.675625777777777
561,1778413086310,2.7176246222222225,-1.331236177777778,-0.6215132,-2.050936644444444,0.0511160357777777,8.518434333333333
562,1778413086320,2.98344232,-1.1154553,-0.537031328,-2.7351295999999996,-0.1209935692,8.1167244
563,1778413086330,2.999392444444444,-0.9319344222222222,-0.2286447842222222,-3.6179718666666663,-0.4580590933333334,7.321844500000001
564,1778413086340,2.8115327333333338,-0.7217189644444445,0.3865469478888889,-4.169363377777778,-0.6038479755555556,6.984724333333333
565,1778413086350,2.87807052,-0.590991832,0.624493744,-4.26974596,-0.59177356,6.96003924
566,1778413086360,3.5210625666666666,0.0500537388888889,1.3596660555555555,-4.5711652888888885,0.0149403044444444,6.562900600000001
567,1778413086370,3.799439211111112,0.3176371011111111,1.5706878777777775,-4.592748555555556,0.1050826933333333,6.454712777777778
568,1778413086380,4.2481837,0.90309838,1.7504954,-4.775894200000001,0.687355876,5.074613619999999
569,1778413086390,4.310691777777778,1.1208207777777777,1.758225911111111,-4.9721525,0.9177810266666666,3.924710533333333
570,1778413086400,4.270554,1.166379,1.753456,-5.162465122222222,0.9551105777777776,3.1535328666666667
571,1778413086410,3.3600253799999997,0.93488386,1.72347862,-5.9215912600000005,0.968651041,1.3899370699999998
572,1778413086420,2.8852191333333335,0.7673449166666667,1.8109186555555552,-6.2848037,0.9811734166666668,0.9454642666666666
573,1778413086430,1.809248477777778,0.4173854611111111,2.4389329222222225,-6.672080955555556,0.6981475155555555,0.7931597
574,1778413086440,1.505722,0.368930063,2.9068129,-6.80569352,0.132782922,0.843900762
575,1778413086450,1.8382136777777776,0.6769263888888889,3.9363407,-5.651787711111111,-1.5348894355555556,1.25597828
576,1778413086460,3.2781824222222222,1.5385348222222222,6.199710966666667,-2.8716608333333333,-3.837410444444444,1.7316247555555555
577,1778413086470,3.6280673,1.6707478333333332,6.434104766666667,-1.8584518999999995,-4.313599733333334,1.7778455333333332
578,1778413086480,5.3026263,2.1533939999999996,6.21062472,1.40433792,-4.23329364,0.7989423880000001
579,1778413086490,6.191356966666667,2.3876698333333333,5.717254666666666,3.050197988888889,-3.869174511111111,0.0354291377777777
580,1778413086500,6.293212488888889,2.3697858666666667,5.133893922222223,3.850882844444444,-2.792310044444444,-1.118054077777778
581,1778413086510,5.4175873,1.74441575,3.12998425,4.0014769999999995,-0.756244184,-2.7680237
582,1778413086520,4.6487161,1.1878368777777777,1.917523811111111,3.3708926666666668,0.4775637788888888,-3.5477414333333335
583,1778413086530,3.794174566666667,0.6647034,0.8664936333333333,1.77742125,1.417861313333333,-3.7200004222222223
584,1778413086540,3.1595289,0.373726075,0.307716105,0.0246247949999999,2.2508194500000003,-3.70181075
585,1778413086550,2.7890211333333332,0.2413758822222222,0.2003165611111111,-1.0024512466666669,2.6200936,-3.5193710333333335
586,1778413086560,2.599494522222222,0.1088410366666666,0.9723601955555554,-3.221099433333334,3.4875559999999997,-2.7814165
587,1778413086570,2.691153011111111,0.0737034837777777,1.7299924444444443,-3.848532855555556,4.0223867222222225,-2.4070096666666667
588,1778413086580,2.85514224,0.0297212464399999,2.43306872,-3.845084940000001,4.60394038,-2.08934208
589,1778413086590,3.2061831333333335,0.0062706910333333,3.1968126666666667,-3.072383577777778,5.236818933333333,-1.8203927444444443
590,1778413086600,3.330621288888889,0.0028253682222222,3.3419126666666665,-2.3735998,5.4098926,-1.8044428
591,1778413086610,3.48874,-0.10183521,3.2156815199999995,-0.47701824,5.157184849999999,-2.23851097
592,1778413086620,3.344466666666667,-0.1654737422222222,2.983663177777778,1.0825146222222222,4.609343111111111,-2.7667902444444445
593,1778413086630,3.1089788,-0.2454106577777777,2.639076688888889,1.9181876666666664,4.245413888888889,-3.0234988
594,1778413086640,2.6709484777777774,-0.3990306922222222,1.8962082666666669,3.012393266666667,3.8078436333333334,-3.3888532999999996
595,1778413086650,2.6186162,-0.40541386,1.76593236,3.13529572,3.73140624,-3.4690779
596,1778413086660,2.4236983333333333,-0.4117110066666666,1.2668219333333337,2.986330533333333,3.661851066666667,-3.663327433333333
597,1778413086670,2.1357242000000003,-0.4999783533333333,1.0392883333333334,2.7059262,3.811305033333334,-3.7107698666666664
598,1778413086680,1.86779195,-0.57074975,0.99592705,2.126283,4.0996249,-3.61873555
599,1778413086690,1.7275873222222222,-0.5854372666666667,1.1526316333333333,1.7258725333333331,4.361882233333333,-3.3133119666666664
600,1778413086700,1.7363819,-0.57122236,1.2592503,1.6088613333333333,4.518123466666666,-3.1629077111111115
601,1778413086710,1.90340366,-0.6249084199999999,1.35942076,1.62306697,5.14948828,-2.8844971
602,1778413086720,1.9664661777777777,-0.6602180444444444,1.2516990444444442,1.6511455666666666,5.424179444444444,-2.8030508
603,1778413086730,2.1067590666666667,-0.7225320000000001,1.0087784,1.6619372333333335,5.9756133333333326,-2.8350184666666665
604,1778413086740,2.105532777777778,-0.8055958000000001,0.8616729444444444,1.7044929666666668,6.2054955666666665,-2.9254238666666668
605,1778413086750,2.0129772,-0.90836398,0.7778503,1.84388832,6.1934415000000005,-3.0659186600000004
606,1778413086760,1.89819,-1.0151507,0.7538245,2.0838292,5.9823327,-3.1832013
607,1778413086770,1.7818960444444447,-1.1483563,0.7774844111111112,2.6752055,5.4453216,-3.3041492
608,1778413086780,1.7673593,-1.165007,0.7804419,2.6752055,5.4453216,-3.3041492
609,1778413086790,1.66352999,-1.25725019,0.4303421829999999,3.3941728500000004,4.998975509999999,-3.22119608
610,1778413086800,1.5891408111111112,-1.2987614444444444,0.1339509027777777,3.680931655555556,4.774543444444444,-3.1318902
611,1778413086810,1.5803463,-1.2670861333333334,-0.0076020683333333,3.5238080444444444,4.6605186666666665,-3.0290642
612,1778413086820,1.6119080499999998,-1.24431045,0.015092345,3.37315956,4.49105616,-2.9791784
613,1778413086830,1.628916211111111,-1.1832804444444445,0.2418704811111111,3.451320866666667,4.155687111111111,-3.020580322222222
614,1778413086840,1.6131429222222222,-1.1496945333333335,0.2978358088888889,3.6038969666666665,3.985871555555556,-3.0456929222222224
615,1778413086850,1.6079630666666669,-1.1529467555555557,0.27622547,3.710591644444444,3.9068687222222223,-3.0568239111111115
616,1778413086860,1.5345955999999998,-1.19574048,0.0335568396,3.8025242,3.7966448,-3.0918797
617,1778413086870,1.3538561333333332,-1.1438167333333336,-0.0692791146666666,3.8066984,3.5936399000000003,-3.112750333333333
618,1778413086880,1.3035144444444446,-1.0994442444444443,-0.1549751755555555,3.8508830666666665,3.108084188888889,-3.0919816888888887
619,1778413086890,1.28367245,-1.0883562,-0.210515345,3.83459376,2.95889826,-3.0932848
620,1778413086900,1.2661104,-1.0810387,-0.25553322,3.7997754,2.8320405,-3.105013
621,1778413086910,1.1705967,-1.066485,-0.2765303733333333,3.7743234,2.7459111,-3.1137685000000004
622,1778413086920,1.02951736,-1.06679394,-0.34017228,3.70252854,2.27164944,-3.10708996
623,1778413086930,0.86121896,-1.0525614333333333,-0.4047288933333333,3.664846022222222,1.7526735333333334,-2.995942822222222
624,1778413086940,0.7645059799999999,-0.9873238666666668,-0.40465776,3.681678199999999,1.1886578666666667,-2.7321416666666667
625,1778413086950,0.77164055,-0.9457597644444444,-0.4087840233333333,3.707469555555556,0.9973269511111112,-2.597119022222222
626,1778413086960,0.91954144,-0.823432156,-0.5565568599999999,3.74400499,0.7605354,-2.32231905
627,1778413086970,1.0084395777777777,-0.6519858666666667,-0.659228838888889,3.7500253,0.4687404366666666,-2.248868088888889
628,1778413086980,1.0446205666666666,-0.52784585,-0.6815167377777778,3.757355488888889,0.4031676783333333,-2.261695888888889
629,1778413086990,1.07905985,-0.2632409639999999,-0.651891708,3.8413131,0.1100899485,-2.41467918
630,1778413087000,1.1437557,-0.0384778553333333,-0.7940707333333333,3.869615622222222,0.2066275722222222,-2.5484038888888887
631,1778413087010,0.9184648444444444,-0.1112158415555555,-1.729802822222222,3.1219385666666666,1.1607625,-3.0879092333333333
632,1778413087020,0.48149153,-0.33054368,-2.4643693200000003,2.56986502,1.4321008599999998,-3.3050043199999997
633,1778413087030,-0.1886255111111111,-0.4561715777777777,-2.7334048111111113,0.6025923622222221,1.405644411111111,-3.1901923111111112
634,1778413087040,-0.86524356,-0.607759,-2.811444633333333,-0.7542182066666667,1.5688084333333334,-2.8454029333333337
635,1778413087050,-0.99036264,-0.6576298,-2.8029075,-1.2032164,1.6579921,-2.6994104
636,1778413087060,-1.32397965,-0.817349525,-2.581919,-2.6379362,1.5920206,-2.1694851099999997
637,1778413087070,-1.3774279,-0.84090275,-2.393158,-3.388904166666667,1.220353988888889,-1.9160242333333335
638,1778413087080,-1.3774279,-0.84090275,-2.393158,-3.5642173000000006,1.026987,-1.8490347
639,1778413087090,-1.38778526,-1.08394736,-1.49962713,-4.141162530000001,1.09662352,-1.70621853
640,1778413087100,-1.4030392,-1.1393652,-1.1219252,-4.4065757,1.294538,-1.675554
641,1778413087110,-1.9881038,-1.0849515333333333,-0.2923951,-3.925771333333333,1.7697772111111112,-1.7120013333333333
642,1778413087120,-2.386660244444444,-1.005282211111111,0.0456700077777777,-2.914276,1.7569494,-1.627908
643,1778413087130,-2.86155718,-0.94570151,-0.2713085119999999,-2.1353693,1.5046695,-1.5381134
644,1778413087140,-3.130894033333333,-0.9340382166666666,-0.7409578333333333,1.197421788888889,-0.3473599933333333,-0.9354107677777778
645,1778413087150,-3.1648188,-0.9243527,-0.8537083,1.3776896,-0.48066044,-0.88084173
646,1778413087160,-3.14363769,-0.843341895,-1.09238383,1.87082658,-0.949302482,-0.577983699
647,1778413087170,-3.0932292333333335,-0.7531333666666666,-1.337964266666667,2.3537555777777777,-1.346638288888889,-0.08195534
648,1778413087180,-3.0574343,-0.7152246,-1.4513652,2.4063563,-1.3669999,0.06604786
649,1778413087190,-3.08242375,-0.7577362599999999,-1.88065244,2.03667158,-1.57664258,0.587711412
650,1778413087200,-3.1001506,-0.7837957,-2.1068912,1.7374786,-1.7921494999999998,0.9016869
651,1778413087210,-2.734973422222222,-0.5656799977777778,-1.7901078444444445,1.2178512888888888,-2.4793272222222225,1.5924194555555555
652,1778413087220,-2.551717422222222,-0.5426841000000001,-1.6987271555555554,0.9634673333333332,-2.699266333333333,1.9087026111111112
653,1778413087230,-2.03013674,-0.4993889219999999,-1.5189301,0.5468152199999999,-2.81307382,2.2828125
654,1778413087240,-1.8429801111111113,-0.52323854,-1.4265907111111111,0.3063993,-2.844579911111111,2.4513384222222223
655,1778413087250,-1.7730302,-0.55219686,-1.3796232,0.1492758,-2.8642628,2.5497527
656,1778413087260,-1.3899438,-0.569466152,-1.09694508,-0.126865337,-3.0486165400000003,2.95534768
657,1778413087270,-0.8629568333333333,-0.5872598666666666,-0.8462180666666667,-0.3671700999999999,-3.1432164,3.322958166666667
658,1778413087280,-0.6230817688888889,-0.611099328888889,-0.7759565222222222,-0.5270084666666667,-2.993151533333333,3.4039972666666665
659,1778413087290,-0.1397168322222222,-0.6920390188888889,-0.6036903888888889,-0.8635853111111111,-2.6263716,3.476416611111111
660,1778413087300,-0.065250761,-0.742778105,-0.5345189969999999,-0.950081286,-2.5063596,3.4664055300000003
661,1778413087310,0.0565175253333333,-1.1877014,-0.1120492206666666,-1.0562736666666668,-1.9334587777777776,3.5116421333333334
662,1778413087320,-0.2166047693333333,-1.5208712777777778,-0.0422585626666666,-0.5819847266666667,-1.852351888888889,3.792224588888888
663,1778413087330,-0.3332968939999999,-1.69638855,-0.1010638228,-0.169861356,-2.09537416,4.11750764
664,1778413087340,0.0912214388888888,-1.8417674444444443,-0.2608824488888889,0.7677246955555556,-2.9721622222222224,4.977743444444445
665,1778413087350,0.3694897055555555,-1.8707799777777776,-0.3299786222222222,1.0520401533333332,-3.250046788888889,5.224330588888889
666,1778413087360,1.2577472,-1.89382999,-0.53344574,1.90937116,-4.1185766,5.76235122
667,1778413087370,1.5622355555555556,-1.9073301222222223,-0.6126102277777777,2.0960460888888885,-4.503844666666667,5.948320277777778
668,1778413087380,2.0100258666666666,-1.8711152333333336,-0.53131147,1.8295808111111111,-4.592553322222222,6.1219368
669,1778413087390,2.2415264444444443,-1.806108111111111,-0.2936214688888889,1.3269214,-4.1029932,6.1323211
670,1778413087400,2.24759148,-1.74611718,0.0440879439999999,0.8312256619999999,-3.4990552800000003,6.148406700000001
671,1778413087410,2.0394788,-1.7932448666666667,0.8106163666666667,-0.14398179,-1.6531054,6.481522233333333
672,1778413087420,2.0278114888888887,-1.8933320222222223,1.0901042,-0.3967622533333333,-0.6725343333333333,6.846673055555556
673,1778413087430,2.2715166000000004,-1.89010428,1.33744388,-0.30233884,0.187545384,7.138468059999999
674,1778413087440,2.3550662222222223,-1.8467167666666664,1.3859853777777775,0.0188174888888888,0.4616817466666667,6.9985701111111105
675,1778413087450,2.3204639555555557,-1.8158612555555556,1.3583279333333331,0.0866978888888889,0.50729168,6.945154888888889
676,1778413087460,1.8550269555555556,-1.7830410555555558,1.0103942944444446,0.4848345333333334,0.7852950666666667,6.586791533333334
677,1778413087470,1.53831234,-1.79752559,0.7179534750000001,0.5838325,0.859798065,6.61656017
678,1778413087480,1.4014876444444446,-1.7528495555555557,0.3531811777777778,0.4992912622222222,0.8373528166666666,6.746290444444444
679,1778413087490,1.3931606,-1.6912368666666666,0.0362419466666666,0.0416988111111111,0.5745527777777778,6.928051422222222
680,1778413087500,1.4444562399999998,-1.63427511,-0.18287348,-0.114373516,0.477888752,6.942569260000001
681,1778413087510,1.5054232666666667,-1.5401813,-0.25758616,-1.1563168888888888,-0.1357353511111111,6.885699544444445
682,1778413087520,1.5958147333333337,-1.4853542444444443,-0.0818069361111111,-1.5743400666666667,-0.35978055,6.8710391444444445
683,1778413087530,1.79946785,-1.36764383,0.1971700340999999,-2.01038994,-0.55860455,6.805678299999999
684,1778413087540,1.9832764222222223,-1.2175168555555556,0.33615444,-2.2574030555555553,-0.60513754,6.674142733333333
685,1778413087550,2.0283434222222225,-1.1705832222222223,0.3367472955555555,-2.3053885222222217,-0.5872872255555556,6.625139222222223
686,1778413087560,2.1055293,-0.9829875611111112,0.0331489544444444,-2.659272588888889,-0.4574482466666666,6.309602444444445
687,1778413087570,2.0989029500000003,-0.888847575,-0.156960383,-3.02113605,-0.532887865,6.0897655
688,1778413087580,2.0733594777777777,-0.6950778322222223,-0.1223885777777777,-3.760910266666667,-0.85592425,5.817938333333333
689,1778413087590,2.0680475,-0.65055627,-0.0927798,-4.0321264,-0.97361416,5.739139
690,1778413087600,2.0996682499999997,-0.619145889,-0.0221201909999999,-4.149775480000001,-1.195718212,5.58591565
691,1778413087610,2.507422777777778,-0.2161067744444444,0.6499295277777777,-4.428362555555555,-1.803891277777778,5.015615888888889
692,1778413087620,2.6451137333333334,-0.0822304038333333,0.7862145866666667,-4.425512166666667,-1.8939573,4.7091742
693,1778413087630,3.202517422222222,0.0894191707222222,0.8483658511111112,-4.427548233333334,-1.7848193,3.954981533333333
694,1778413087640,3.1864420200000003,0.0687723046,0.732170776,-4.5655180799999995,-1.58531658,3.41869832
695,1778413087650,3.0751287,0.0306826853333333,0.6171702066666667,-4.804101444444445,-1.4938523666666663,3.095366711111111
696,1778413087660,2.9142249,0.0033436908666666,0.6822349666666666,-5.8246830888888885,-1.6363834888888888,2.3821770777777775
697,1778413087670,3.0138038600000003,0.00677478536,1.0263282,-6.30137826,-1.7280106199999998,2.11238616
698,1778413087680,3.3368308333333334,0.1070692618,1.8773453333333332,-6.6132361,-1.4588305666666668,1.6118986666666666
699,1778413087690,3.3574114333333336,0.1511470333333333,2.3856066,-6.5892094,-1.1554430666666666,1.291611133333333
700,1778413087700,3.3058333,0.14796595,2.4719124,-6.413217577777778,-0.8295221033333333,0.9917530222222224
701,1778413087710,2.60517334,0.116305561,2.5284706100000003,-5.8053702000000005,-0.929511012,0.6844696
702,1778413087720,2.400282222222222,0.2308840644444444,2.844854277777778,-5.160743,-1.6674687555555556,0.8248559111111111
703,1778413087730,2.6297503222222223,0.8102403377777778,3.835647166666667,-3.6796674,-3.1366752666666664,1.3066787333333334
704,1778413087740,3.14531768,1.1371943400000002,4.37143782,-2.1604445599999997,-4.00056092,1.6962770800000002
705,1778413087750,3.812488666666667,1.4409377333333333,4.819742466666667,-0.8464561266666667,-4.3066767666666665,1.9081596
706,1778413087760,5.1492130666666664,1.9791399333333333,5.322638,1.56074014,-3.562257633333333,1.7200186666666668
707,1778413087770,5.65714112,2.1185566,5.22223772,2.1589632,-3.2106133,1.5870576
708,1778413087780,6.062874066666667,2.050827544444444,3.4561602555555555,4.397523199999999,-0.9869849888888887,-0.2397066577777777
709,1778413087790,5.645654622222223,1.833413111111111,2.535286833333333,4.870386833333333,-0.4019290277777778,-1.5629545822222224
710,1778413087800,5.113054440000001,1.6100634,1.7740365,4.8770655,-0.16192033972,-2.5105976
711,1778413087810,3.758572877777778,1.1863801555555555,0.4800449644444444,3.764889277777778,0.2983394785555555,-3.3180629777777777
712,1778413087820,3.4450044111111113,1.0092018266666667,0.11229992,1.6234877222222222,1.3629529444444444,-3.312972477777778
713,1778413087830,3.2726603600000006,0.797836212,-0.0946884577999999,-0.09313134,2.3454625800000004,-3.1003704300000003
714,1778413087840,3.372991544444444,0.5754502577777778,0.6581650771111112,-2.765831477777778,4.500612233333333,-2.828638511111111
715,1778413087850,3.363011288888889,0.54109188,0.8687227444444444,-3.0321014666666666,4.7754935,-2.8259914888888886
716,1778413087860,3.29285664,0.4019319799999999,1.7002394199999995,-3.10143944,5.0990933400000005,-2.92200304
717,1778413087870,3.325878288888889,0.2558753588888889,2.177728711111111,-2.2027916,4.716784233333333,-3.1078635333333335
718,1778413087880,3.3435623777777774,0.1210571988888888,2.3701517777777776,-1.3879637777777778,4.401451377777778,-3.2786293222222223
719,1778413087890,3.23864927,-0.070238857,2.30073179,-0.109250028,4.05173444,-3.56889042
720,1778413087900,3.184565788888889,-0.1297907744444444,2.2446940333333334,0.06314634,4.0171604,-3.608962
721,1778413087910,2.993457166666667,-0.22818403,1.9245939666666665,0.7525893133333335,4.140144333333333,-3.689593799999999
722,1778413087920,2.84768137,-0.321515698,1.77285943,1.20036074,4.301265689999999,-3.74188222
723,1778413087930,2.659054133333333,-0.4073713111111111,1.6358914777777778,1.364251,4.435591333333333,-3.7461989
724,1778413087940,2.421133822222222,-0.4815626577777778,1.5366038777777775,1.5376637222222225,4.501834111111112,-3.7804742888888887
725,1778413087950,2.26815068,-0.5371655040000001,1.45903636,1.6206846599999998,4.47663992,-3.75959688
726,1778413087960,1.9771004888888892,-0.6166213277777778,1.329074888888889,1.7421618,4.3882844,-3.605568344444445
727,1778413087970,1.916416033333333,-0.6138298444444444,1.2751184333333334,1.7416188666666663,4.472377666666667,-3.495344388888889
728,1778413087980,1.90521478,-0.5797655199999999,1.1470486999999998,1.6475619600000002,4.74419108,-3.3434878400000003
729,1778413087990,1.9069709999999995,-0.5667505433333333,1.078660553333333,1.5090217666666668,5.0488817,-3.2620008
730,1778413088000,1.9030684,-0.55585563,0.98737466,1.3428713,5.3982863,-3.216798
731,1778413088010,1.78443333,-0.61520054,0.902763072,1.24238693,5.70834479,-3.2604125499999994
732,1778413088020,1.7031888,-0.6528226333333333,0.8060632799999999,1.2283035999999998,5.847878322222222,-3.3266148222222225
733,1778413088030,1.6227403555555555,-0.6947458044444444,0.7099905944444445,1.280564933333333,5.762088166666667,-3.3934007555555556
734,1778413088040,1.4709971222222222,-0.7877729133333333,0.5844616111111112,1.3860378333333334,5.529440133333334,-3.5014528
735,1778413088050,1.39876764,-0.83940263,0.556078175,1.4354757699999998,5.43347097,-3.51434168
736,1778413088060,1.1579944,-0.99954,0.4922238599999999,1.5380030666666666,5.292745466666667,-3.4009344777777777
737,1778413088070,1.0922385666666667,-1.034924888888889,0.4988637711111111,1.6012597333333334,5.2531083333333335,-3.2304402333333337
738,1778413088080,0.98778934,-1.09881412,0.51998156,1.71396105,5.20006625,-2.95779875
739,1778413088090,0.9827842444444445,-1.1191472777777778,0.5353970777777778,1.8803490444444444,5.121572444444444,-2.630885222222222
740,1778413088100,1.0064306,-1.1164371,0.5392997,1.9433342,5.092252,-2.5301294
741,1778413088110,1.0978994199999998,-1.13346252,0.426463904,2.29799206,4.833008319999999,-2.23020332
742,1778413088120,1.0928177666666667,-1.1318038666666668,0.3598584,2.532903644444444,4.546833244444445,-2.124662511111111
743,1778413088130,1.1491117666666666,-1.0773088333333334,0.2513459733333333,2.835858533333333,3.914538433333333,-2.057537166666666
744,1778413088140,1.198020411111111,-1.0712007222222222,0.1744681788888889,2.9629147,3.5087322,-2.066088966666667
745,1778413088150,1.2029055,-1.0768921,0.16519257,2.9787967,3.4209738,-2.0799348
746,1778413088160,1.1742656333333334,-1.0781387666666666,0.1612899011111111,2.9749279555555557,3.3354551333333333,-2.0776272
747,1778413088170,0.9522540555555556,-1.0896435666666668,0.1829578311111111,2.9862625,3.1010254444444443,-2.013420377777778
748,1778413088180,0.7710002766666667,-1.1457884555555555,0.1440090677777777,3.1217348000000005,2.849780533333333,-1.7109831333333334
749,1778413088190,0.733091565,-1.15009765,0.12162294,3.2288774600000005,2.63632508,-1.50219554
750,1778413088200,0.73162806,-1.1420484,0.11540307,3.3172061,2.434379,-1.343864
751,1778413088210,0.73162806,-1.1420484,0.11540307,3.3172061,2.434379,-1.343864
752,1778413088220,0.7578887400000001,-1.124745555,0.1042499807,3.4116430899999997,2.2490479399999996,-1.31955228
753,1778413088230,0.99423486,-0.96901995,0.0038721769999999,4.0508337,0.9475768,-1.2021474
754,1778413088240,1.1406898644444443,-0.9382966166666667,-0.0196962703333333,4.299923611111111,0.5103374244444444,-1.1610849
755,1778413088250,1.2712266199999998,-0.8839906,-0.0316664808,4.43462897,0.2797909439,-1.14368932
756,1778413088260,1.664151977777778,-0.5688881977777778,-0.0640145775555555,4.802854566666666,0.0235600394444444,-1.3583886333333333
757,1778413088270,1.7380790666666668,-0.4178089266666667,-0.33762131,4.8205013,0.028786177,-1.3884559
758,1778413088280,1.7493094,-0.36672872,-0.46932614,4.8205013,0.028786177,-1.3884559
759,1778413088290,1.54841964,-0.3020908,-0.915254588,4.1984143199999995,0.2486911903999999,-2.41735942
760,1778413088300,1.4981972,-0.28593132,-1.0267367,3.9940248,0.30801973,-2.7287312
761,1778413088310,0.8033599066666667,-0.3138191288888889,-1.1581942111111112,2.874027855555555,0.5970183411111111,-3.1783146444444443
762,1778413088320,0.155002942,-0.34486158,-1.19635034,2.19811858,0.8973040620000001,-3.2698807000000003
763,1778413088330,-0.21152657,-0.27219068,-1.4181112333333334,1.0832612666666668,1.7695736333333334,-3.0276391
764,1778413088340,-0.5197660866666667,-0.3175896733333333,-1.7206491333333334,0.148215311111111,2.3251053333333336,-2.889044633333333
765,1778413088350,-0.7068705,-0.36624088,-1.8058980333333332,-0.5185923333333333,2.5816612,-2.8171003
766,1778413088360,-0.8602941,-0.37453404,-1.7837627,-1.224596,2.750798,-2.720179
767,1778413088370,-0.9581555,-0.3411784366666667,-1.6546596333333334,-1.4324877,2.6269996333333334,-2.7480744
768,1778413088380,-1.1538783,-0.27446723,-1.3964535,-1.8482711,2.3794029,-2.8038652
769,1778413088390,-1.1538783,-0.27446723,-1.3964535,-1.8482711000000005,2.3794029,-2.8038652
770,1778413088400,-1.7647067,-0.79135716,-0.7172979,-1.6082082,1.9970124,-2.7696579
771,1778413088410,-2.0710118555555557,-0.8481897288888889,-0.37020454,-1.136905533333333,2.0295909777777776,-2.4150270555555555
772,1778413088420,-2.3274834,-0.74303114,-0.04664906,-0.085289545,2.0446584,-1.8905723
773,1778413088430,-2.978273344444444,-0.8163890533333333,-1.0124201044444443,2.0295145,2.0332560666666666,-1.3516013333333334
774,1778413088440,-3.6910622,-0.9759140444444444,-2.1573446666666665,3.167344733333333,1.6822224666666663,-0.8698465
775,1778413088450,-3.8508344,-1.0139312,-2.4180374,3.444873,1.5278817,-0.700031
776,1778413088460,-4.01929241,-0.975633209,-3.36675137,3.20456582,0.431624684,-0.0076508669999999
777,1778413088470,-3.947953933333333,-0.8334937866666667,-4.0982271,2.6700898000000004,-0.9163981,0.8308286333333332
778,1778413088480,-2.9393992,-0.5621161266666667,-3.4244885666666667,1.4473940777777778,-2.0151086555555557,1.584478388888889
779,1778413088490,-2.08794202,-0.323570692,-2.49303871,0.259594806,-2.23586888,1.94318154
780,1778413088500,-1.886587088888889,-0.2737964488888889,-2.1516565888888888,-0.1893541633333333,-2.0005162666666667,1.9934067666666668
781,1778413088510,-1.873513811111111,-0.3859269844444444,-1.7600959,-0.6504675055555555,-1.3124307888888889,2.2049634555555553
782,1778413088520,-1.9155387,-0.48313794,-1.6075634,-0.8816392777777778,-0.854498938888889,2.4353207555555554
783,1778413088530,-1.9549616,-0.7463240649999999,-1.45528305,-0.891806444,-0.68908152,2.9219268200000004
784,1778413088540,-1.7973913777777777,-1.0197682,-1.2316029444444443,-0.7524111200000001,-0.6681226444444444,3.608359611111111
785,1778413088550,-1.6826286,-1.0736805555555555,-1.1462931,-0.6318705933333333,-0.7199089333333333,3.902041433333333
786,1778413088560,-1.2214554,-1.24085292,-0.9576108,-0.32600154,-0.79891188,4.48652055
787,1778413088570,-0.7732632555555556,-1.2388595555555555,-1.0193277777777778,-0.0127344666666666,-0.9328910377777778,5.009982677777778
788,1778413088580,-0.1805051133333333,-1.1640312888888888,-1.2565367555555556,0.2142971022222222,-1.3806420222222222,5.352659444444445
789,1778413088590,0.172821088,-1.19403302,-1.38705042,0.208894496,-1.84113944,5.4671898
790,1778413088600,0.4415975844444444,-1.2452013444444443,-1.4165663333333331,0.0857476833333333,-2.535779766666667,5.6135079999999995
791,1778413088610,0.9741319711111112,-1.3499026666666667,-1.3475921777777775,-0.37025828,-3.0606162222222224,5.666651888888889
792,1778413088620,1.3137691222222223,-1.5030483444444445,-0.9329846344444443,-1.2366772533333332,-3.4534587777777777,5.728822433333333
793,1778413088630,1.4003257,-1.5449681,-0.8170903299999999,-1.4151804,-3.514815,5.7440257
794,1778413088640,1.5267930444444444,-1.6254809555555554,-0.6396443466666667,-1.6916905777777778,-3.4082562,5.7333019
795,1778413088650,1.8194556333333336,-1.822894311111111,-0.1359665922222222,-2.169237344444445,-3.152107644444444,5.693529011111111
796,1778413088660,1.85020558,-1.86815184,0.76485555,-2.2109922600000003,-2.6083177600000003,5.693692220000001
797,1778413088670,1.7912834,-1.709551,0.9641923766666668,-1.7733405000000002,-2.3877509999999997,5.719388333333334
798,1778413088680,1.686175566666667,-1.543504633333333,0.9534600666666666,-1.2227635,-2.2234076666666667,5.7354739
799,1778413088690,1.6686136666666669,-1.471437433333333,0.7182837533333334,-0.925213011111111,-2.189539611111111,5.731265933333333
800,1778413088700,1.66950906,-1.44780089,0.570603401,-0.7933378600000001,-2.15083905,5.680558899999999
801,1778413088710,1.5252584111111114,-1.4118100555555555,0.3379939788888888,-1.0912277,-1.8632114,5.479325466666667
802,1778413088720,1.4143202888888888,-1.4163631444444444,0.3030664633333333,-1.396108377777778,-1.6705230222222225,5.392992333333334
803,1778413088730,1.3109972,-1.45091394,0.38555909,-2.2156346200000003,-1.38190454,5.3463641200000005
804,1778413088740,1.2880866777777775,-1.5150172444444443,0.7853303899999999,-2.502895722222222,-1.354036322222222,5.308788566666667
805,1778413088750,1.2655311666666669,-1.5097527333333334,0.90554064,-2.5975092111111113,-1.3958454111111112,5.260972944444444
806,1778413088760,1.18459655,-1.47883635,1.1347918,-2.3473333,-1.6339400999999998,5.203960749999999
807,1778413088770,1.1671005333333335,-1.4671283,1.166185933333333,-2.0660041555555555,-1.8124431777777776,5.223100411111111
808,1778413088780,1.2655006777777775,-1.4601088777777778,0.902600101111111,-1.7527753222222222,-2.0479586777777774,5.241086466666666
809,1778413088790,1.37298256,-1.43725462,0.7498303319999999,-1.6069864500000002,-2.21638285,5.2054877
810,1778413088800,1.432319311111111,-1.4172846555555556,0.6778410311111112,-1.6524606666666666,-2.219878266666667,5.160929711111112
811,1778413088810,1.5272334333333335,-1.3568881333333334,0.61088929,-1.907862688888889,-2.021828077777778,5.128961977777778
812,1778413088820,1.6060815600000002,-1.31663777,0.57506405,-2.1089807499999997,-1.8749804,5.08979318
813,1778413088830,1.7452678222222222,-1.268000811111111,0.5369452555555555,-2.641532722222222,-1.4931736444444443,4.8499407111111115
814,1778413088840,1.7049706999999998,-1.249541088888889,0.5636778666666666,-3.1147696555555555,-1.1766190666666665,4.61076
815,1778413088850,1.6078559,-1.2282607200000002,0.632872314,-3.4117499799999997,-1.0201608,4.4775409999999995
816,1778413088860,1.4766207,-1.1475974,0.9798234566666666,-3.6733555,-1.0845847333333334,4.527956333333333
817,1778413088870,1.5842489666666666,-1.0022231,1.24615,-3.5764343666666667,-1.2236543000000002,4.623859133333333
818,1778413088880,2.0525100199999997,-0.61026732,1.43258368,-3.16643364,-1.25228268,4.61791364
819,1778413088890,2.167440177777778,-0.5165240444444444,1.4545023,-2.919493533333333,-1.2392648444444443,4.587887200000001
820,1778413088900,2.2620867111111114,-0.4063346944444445,1.3642225444444445,-2.7863289,-1.1112584133333334,4.235767533333334
821,1778413088910,2.2678661,-0.0443928351111111,0.7497015888888889,-2.8621248333333336,-0.83311928,3.4164178666666665
822,1778413088920,2.1590742,-0.0320140625,0.706108265,-3.14487075,-0.71369865,3.22848045
823,1778413088930,2.2122633,0.134235481,0.9071769433333334,-3.837062466666667,-0.294759256,3.1614909333333334
824,1778413088940,2.6154609222222223,0.3645605533333333,1.071905411111111,-4.371282311111112,0.1715123257777777,2.9595719333333332
825,1778413088950,2.80957861,0.43412897,1.03677699,-4.56008158,0.37081482,2.71992718
826,1778413088960,2.7325882666666663,0.4084588,0.7746488666666667,-5.277440333333334,0.7590286066666666,1.708412466666667
827,1778413088970,2.3565093333333333,0.2870797666666667,0.7958086400000001,-5.867773466666667,0.5949143133333333,1.298534
828,1778413088980,2.2703627777777777,0.2401732277777778,1.0694967044444443,-6.118992844444445,0.2782578911111111,1.2789190111111113
829,1778413088990,2.50405768,0.330787577,1.536489,-6.09686648,-0.651697659,1.26978348
830,1778413089000,2.761218033333334,0.4413976933333333,1.803967,-5.941558588888889,-1.0499700777777778,1.1481298555555557
831,1778413089010,3.0928025,0.5787228,2.095854,-5.337642922222222,-2.158386477777778,0.6416695888888889
832,1778413089020,2.7823697,0.41900616,2.5234156,-4.97246477,-3.1233002900000004,0.68929532
833,1778413089030,2.819544666666667,0.5554490766666667,3.062434833333333,-4.5704864,-3.715173,0.9230665666666664
834,1778413089040,3.4254879333333332,1.1844559277777778,4.439080100000001,-3.303826622222222,-4.225976955555556,1.513687988888889
835,1778413089050,4.0383183111111105,1.5813862444444444,5.136210833333333,-2.124908505555555,-4.330228322222222,1.7382761444444446
836,1778413089060,5.67669688,2.15939424,5.34372627,1.38269868,-4.039655160000001,0.960572536
837,1778413089070,5.501669411111111,2.1335795666666666,3.908226,3.5651847,-3.426038666666667,-0.4605534133333333
838,1778413089080,4.9495775,2.0490219666666665,2.7745419333333334,4.152030766666667,-2.8876786,-1.5153084666666667
839,1778413089090,4.399665140000001,1.96284622,1.97134058,3.33889121,-1.87292644,-2.11261515
840,1778413089100,4.113725633333334,1.8718368,1.5923083333333332,2.3891000333333334,-0.9230920433333332,-2.2713336
841,1778413089110,4.0499417,1.6541615333333333,1.4868754,-0.2584138599999999,1.93776029,-2.474542266666667
842,1778413089120,3.9111305599999993,1.31188138,1.69351952,-1.27132587,3.201336,-2.64409055
843,1778413089130,3.4618380555555555,0.7829589555555555,2.2022524,-1.7645850333333335,4.3144395666666675,-3.0447426999999996
844,1778413089140,2.9682321333333332,0.343871712,2.6845672,-1.5094545,4.590949800000001,-3.2084498
845,1778413089150,2.413755288888889,-0.075299112,3.0625230222222224,-0.4396403511111111,4.3259779555555555,-3.133790688888889
846,1778413089160,1.96909656,-0.473180072,3.12015772,2.018277611,3.62591298,-2.3878247999999997
847,1778413089170,1.9696372,-0.5258369388888888,2.7628949222222223,3.1424358666666667,3.3161795333333335,-1.935978588888889
848,1778413089180,2.2570117333333335,-0.28015863,1.8433291,4.727177311111111,2.576927177777778,-1.3667368333333334
849,1778413089190,2.60260308,0.059430302,1.12145568,5.24466594,2.0447196599999997,-1.34587984
850,1778413089200,2.7760495333333335,0.2606046455555555,0.7602204888888888,5.307617977777777,1.8569248111111112,-1.4310794666666669
851,1778413089210,2.751871177777778,0.583428358888889,7.11400000000004e-05,4.573854555555556,1.4893305,-2.1980999444444445
852,1778413089220,2.7163720099999997,0.7423542830000001,-0.180208698,3.9173024,1.41866219,-2.52957955
853,1778413089230,2.7228383555555555,0.8917830588888889,-0.4704881511111111,3.0870184666666667,1.3343109333333334,-2.898504088888889
854,1778413089240,2.566240488888889,0.7093638722222222,-0.2969515988888889,1.4906285222222224,1.2688145999999998,-3.6366537
855,1778413089250,2.3652356,0.530146772,0.0049941919999999,0.6665412548,1.4176848999999998,-4.00295844
856,1778413089260,1.722498833333333,0.4195773244444444,0.5619738511111111,-0.4470383924444445,2.6419991777777776,-4.096553888888889
857,1778413089270,1.5601181,0.3832405111111111,0.6468433088888889,-0.8020254844444444,3.163026511111111,-3.925313111111111
858,1778413089280,1.57535716,0.439293925,0.7963726510000001,-1.104747818,3.68559276,-3.72013624
859,1778413089290,1.7488689777777775,0.4659723344444444,0.9738982577777776,-1.4746362333333334,4.551448333333333,-3.5908401333333333
860,1778413089300,1.7955112333333334,0.4397817799999999,1.06059036,-1.4347275333333331,4.687259999999999,-3.709140899999999
861,1778413089310,1.93961923,0.243111752,1.28619094,-0.99186321,4.682251150000001,-4.05793467
862,1778413089320,1.9850006666666669,0.0716505244444444,1.344502577777778,-0.6349248,4.6848168333333335,-4.2739709999999995
863,1778413089330,1.9139074,-0.28788266,1.37992815,-0.164432435,4.7865227500000005,-4.419556200000001
864,1778413089340,1.8205634666666664,-0.57439328,1.3724785333333331,0.4581608933333332,5.0116198999999995,-4.4388998
865,1778413089350,1.8039805333333332,-0.7197337133333334,1.3214456444444442,0.6664598111111111,5.1189254222222225,-4.3778151111111105
866,1778413089360,1.87959449,-0.98815523,1.11155872,1.0456942,5.32254115,-4.18376925
867,1778413089370,1.9120662555555556,-1.0809811333333337,1.0850022666666668,1.2180549333333337,5.402969333333333,-4.065265
868,1778413089380,1.8852421333333331,-1.2906749,1.1574049333333332,1.5772330666666667,5.5866818,-3.8127813333333327
869,1778413089390,1.85664492,-1.41744248,1.20638748,1.82971655,5.70256485,-3.63431215
870,1778413089400,1.8569376444444443,-1.4699536888888889,1.1943041111111112,2.0628565444444447,5.755097666666667,-3.481362788888889
871,1778413089410,1.89315622,-1.57889395,1.0548176000000002,2.6985093200000003,5.65161978,-3.1441071000000003
872,1778413089420,1.9139633555555555,-1.6117641222222223,1.0116748466666667,2.942960222222222,5.522754811111111,-3.0541089666666665
873,1778413089430,1.908536233333333,-1.6429278777777778,0.9625900433333332,3.339400111111111,5.269872666666667,-2.957866711111111
874,1778413089440,1.77054535,-1.7137432,0.740287095,3.9970792,4.831420199999999,-2.81241715
875,1778413089450,1.6941537000000002,-1.7387259777777777,0.5759008322222222,4.224993111111112,4.645451111111111,-2.7367993777777775
876,1778413089460,1.6455126666666666,-1.6937673999999998,0.3207402733333333,4.598763444444445,4.188469222222222,-2.5767573555555554
877,1778413089470,1.53552258,-1.65914546,0.1302515092,4.7236819500000005,3.8806362,-2.5533416
878,1778413089480,1.448746477777778,-1.6184345222222225,-0.0309638682222222,4.767561233333333,3.5827125333333334,-2.5350840666666667
879,1778413089490,1.38005917,-1.53487923,-0.1253670708,4.66308579,2.80310935,-2.4527960799999997
880,1778413089500,1.366200988888889,-1.494599388888889,-0.1063781571111111,4.607383322222223,2.573312866666667,-2.417937022222222
881,1778413089510,1.3458204333333332,-1.3829262,-0.019228764,4.541344,2.2551971777777777,-2.309884888888889
882,1778413089520,1.37045806,-1.31913796,-0.071339534,4.56663298,1.9558412400000005,-2.18610012
883,1778413089530,1.4056443666666667,-1.2815991999999998,-0.1237640033333333,4.583085122222222,1.7783969333333336,-2.126562888888889
884,1778413089540,1.4557048333333331,-1.2249732777777778,-0.20020138,4.565234888888889,1.5718627888888888,-2.1138029444444446
885,1778413089550,1.51092954,-1.11671752,-0.35647811,4.482457999999999,1.3230035999999998,-2.16740818
886,1778413089560,1.3768349888888889,-0.8188519555555556,-0.564568838888889,4.148026222222222,1.0620767666666666,-2.4583207666666667
887,1778413089570,1.27386088,-0.6636179600000001,-0.486278378,3.9897489199999994,1.01012756,-2.62705556
888,1778413089580,1.149684288888889,-0.4069444611111111,-0.5359628511111112,3.7082161555555553,1.5793964888888887,-2.996553611111111
889,1778413089590,0.7854489333333334,-0.4785645222222222,-1.1219591222222225,3.2860528,2.443541733333334,-3.3835593
890,1778413089600,0.25119148,-0.5958762400000001,-1.71152062,2.75660859,3.05618335,-3.5787861
891,1778413089610,-0.7830131666666666,-0.6847147466666667,-2.5845613666666667,1.0834648666666666,3.6754933666666663,-3.4924937333333332
892,1778413089620,-1.0569113,-0.5883168566666667,-2.675440733333333,-0.08045368,3.390431333333334,-3.235530733333333
893,1778413089630,-0.960677982,-0.456441255,-2.3787485,-0.943789521,2.56377952,-3.1219946199999997
894,1778413089640,-0.6466129044444444,-0.4611786866666666,-1.9647420111111111,-1.2180803444444444,2.0565361555555555,-3.1900565888888885
895,1778413089650,-0.599894734,-0.505959423,-1.85290998,-1.351408,1.75316214,-3.35411656
896,1778413089660,-1.3392244222222225,-0.8667206066666666,-1.296295188888889,-1.8391083333333331,2.0238896333333334,-3.446476666666667
897,1778413089670,-1.7547602,-0.822199048888889,-1.0728878333333334,-2.0375658,2.5522045777777778,-3.1194018333333333
898,1778413089680,-2.14099684,-0.528024704,-0.733591572,-1.69299372,3.1542623999999995,-2.06846626
899,1778413089690,-2.0769573555555554,-0.3386342622222222,-0.708184908888889,-1.0343510577777777,3.147042733333333,-1.528407788888889
900,1778413089700,-1.9896385666666667,-0.3166953099999999,-0.7469033133333334,-0.6320487499999999,3.103333233333333,-1.3860125
901,1778413089710,-2.10569613,-0.366109767,-1.200740792,0.346884869,3.15806511,-1.23995891
902,1778413089720,-2.372631711111111,-0.3849682622222222,-1.6857724444444446,0.7776340133333333,3.0499858,-1.0791634666666663
903,1778413089730,-2.67989721,-0.421680088,-2.41017106,0.98467048,2.45859906,-0.636014136
904,1778413089740,-2.666937422222222,-0.3871872188888889,-2.7000253888888888,0.9135814333333332,1.4340148,0.0278020399999999
905,1778413089750,-2.5974076,-0.34986797,-2.7701921,0.8047149,0.890768,0.3598654
906,1778413089760,-1.62032311,-0.1046311044999999,-1.8223654,0.65719532,-0.3753427524,0.98005859
907,1778413089770,-1.2426198555555557,-0.0336537244444444,-1.399874977777778,0.7417297833333333,-0.5912238111111111,1.0876559444444445
908,1778413089780,-1.1352288333333334,0.0383152433333333,-1.3186846,1.118758311111111,-0.5742558111111111,1.1069994444444444
909,1778413089790,-1.23195604,0.079833928,-1.60921582,1.3850198800000002,-0.69616734,1.20674402
910,1778413089800,-1.2812028,0.0987794811111111,-1.8352290555555557,1.357871088888889,-0.8781183666666668,1.3212032333333332
911,1778413089810,-1.10091785,0.15468891,-1.9637427000000005,0.774539035,-1.34476492,1.6046499399999998
912,1778413089820,-0.8427117666666667,0.1914949066666666,-1.7967715666666666,0.3414890633333333,-1.5123814,1.6731870333333334
913,1778413089830,-0.6327402000000001,0.19710499,-1.389217266666667,-0.19366403,-1.653690833333333,1.6695219
914,1778413089840,-0.4731251959999999,0.20757308,-1.033560312,-0.514425012,-1.77040338,1.66732284
915,1778413089850,-0.34267244,0.22486067,-0.76120293,-0.5972559,-1.8153617,1.6707436
916,1778413089860,-0.2320291244444444,0.2658522255555555,-0.5668420011111112,-0.5817811,-1.803959211111111,1.6118308
917,1778413089870,-0.0573448087,0.336498295,-0.2417122669999999,-0.415773185,-1.80393885,1.41528731
918,1778413089880,-0.0279453994444444,0.3546040311111111,-0.1533659944444444,-0.099797172,-1.8489583,1.1875634333333334
919,1778413089890,-0.0870613144444444,0.3390204644444445,-0.2890954666666666,0.0921955142222222,-1.8409494555555557,1.0226347111111111
920,1778413089900,-0.145478002,0.329208228,-0.3998891999999999,0.0157445879999999,-1.84798098,0.99844516
921,1778413089910,-0.1929787366666666,0.3441088277777778,-0.3656683644444444,-0.2260389333333333,-1.8601572,1.0098068666666666
922,1778413089920,-0.15147835,0.388071436,-0.27209515,-0.367821662,-1.85915946,1.02379523
923,1778413089930,-0.07183346,0.44780728,-0.1610087144444444,-0.4408789933333333,-1.8463113,0.9688800666666668
924,1778413089940,-0.0693333133333333,0.4682488733333333,-0.1009713366666666,-0.4987737444444444,-1.7823081,0.8348330666666667
925,1778413089950,-0.07543123,0.47353375,-0.07982173,-0.50990474,-1.7658831,0.8045622
926,1778413089960,-0.1664561877777778,0.4973122,-0.0546441077777777,-0.5940659133333334,-1.6697764333333334,0.5895439333333334
927,1778413089970,-0.1931955555555555,0.4843202499999999,-0.0344125753333333,-0.621146788888889,-1.6539623,0.5417621122222223
928,1778413089980,-0.231129344,0.4689481,0.0773276831999999,-0.6730009299999999,-1.5535525799999998,0.426569906
929,1778413089990,-0.3256592466666667,0.46215094,0.1839030033333333,-0.66892865,-1.3916373000000002,0.2922649566666666
930,1778413090000,-0.3798663388888889,0.4587903055555555,0.2086131155555555,-0.6565081,-1.3425659,0.25479966
931,1778413090010,-0.601455815,0.442827663,0.1664456839999999,-0.511248609,-1.1652369400000002,0.184307889
932,1778413090020,-0.6870895333333333,0.4221994322222222,0.1195632072222222,-0.4526887133333333,-1.160533466666667,0.1912715533333333
933,1778413090030,-0.790832712,0.39910865,0.113305393,-0.425852158,-1.15014904,0.2466143
934,1778413090040,-0.8366748177777779,0.4035804688888889,0.1300922766666666,-0.4109474966666667,-1.1068467666666666,0.2821520355555555
935,1778413090050,-0.860538,0.40910926,0.14028257,-0.40117395,-1.0756257,0.3006132
936,1778413090060,-0.8957351819999999,0.424695526,0.1252817,-0.3297048,-1.04777103,0.428341362
937,1778413090070,-0.8852549222222222,0.4374848688888889,0.1187095022222222,-0.30140222,-1.0668702333333333,0.4918084
938,1778413090080,-0.8535491222222222,0.45626308,0.1602532455555555,-0.3050673044444444,-1.0571645444444444,0.5704040644444445
939,1778413090090,-0.842408932,0.470753088,0.188706126,-0.318465222,-0.983876424,0.631325876
940,1778413090100,-0.84123814,0.47328982,0.19299906,-0.33459159,-0.9066924755555557,0.6811710111111111
941,1778413090110,-0.786509323,0.511560318,0.180169052,-0.398241868,-0.7251215240000001,0.78550376
942,1778413090120,-0.7032727666666667,0.5645552866666667,0.1700708966666666,-0.4813985311111111,-0.5437134422222223,0.8300820333333333
943,1778413090130,-0.6747954666666667,0.6224922222222222,0.1125336699999999,-0.6090655822222222,-0.3091480944444444,0.8159646999999999
944,1778413090140,-0.647403646,0.60578226,0.1306204219999999,-0.69505254,-0.283662199,0.7892910200000001
945,1778413090150,-0.6277398988888889,0.5951464888888889,0.1530780311111111,-0.7214615188888889,-0.2979492422222222,0.7774813
946,1778413090160,-0.6816420533333334,0.6158489111111112,0.3113698011111111,-0.6903083333333334,-0.3275413933333333,0.7412377166666667
947,1778413090170,-0.77144745,0.6280244199999999,0.329318,-0.5602996650000001,-0.20516832,0.7166001750000001
948,1778413090180,-0.9453498555555556,0.6173293511111111,0.2136472866666666,-0.3472157644444444,-0.2137201922222222,0.8157610444444444
949,1778413090190,-1.00246702,0.573454192,0.0315933058399999,-0.0747447967,-0.553229112,1.086529282
950,1778413090200,-0.9727600111111112,0.5655784044444444,-0.0034758123999999,-0.0007211392222222,-0.7036197077777778,1.182812388888889
951,1778413090210,-0.6325335055555557,0.5767985477777778,-0.0988167433333333,0.0906344622222222,-1.12625814,1.2968372
952,1778413090220,-0.542287725,0.58482069,-0.101560805,0.096254258,-1.24421956,1.2838329199999998
953,1778413090230,-0.4263188933333333,0.5652260733333334,-0.0422958271111111,0.0347758732222222,-1.4918162888888888,1.194622111111111
954,1778413090240,-0.3764718177777778,0.5582338,0.0218000511111111,-0.0135489332222222,-1.5303675333333333,1.1648942
955,1778413090250,-0.33971494,0.5582338,0.08171208,-0.0529146459999999,-1.5215442,1.1503017
956,1778413090260,-0.3835454222222222,0.6121834244444444,0.2061604044444444,-0.18388199,-1.002799122222222,1.0799185777777778
957,1778413090270,-0.4734592111111111,0.6422529488888888,0.2208089444444444,-0.2196844266666666,-0.7949753166666667,1.1060492222222222
958,1778413090280,-0.49086399,0.65226976,0.0914230144,-0.239543746,-0.683583897,1.15366137
959,1778413090290,-0.4607789,0.6326486933333333,0.0138829246666666,-0.2690273133333333,-0.70748838,1.1488763999999998
960,1778413090300,-0.4124630999999999,0.5945774,-0.03884373,-0.3126011,-0.78608406,1.1154834
961,1778413090310,-0.4522621666666667,0.5770018444444445,0.0253741055555555,-0.3679845755555556,-0.8273501888888889,1.0626790666666668
962,1778413090320,-0.4386502288888889,0.5673637488888889,0.0420993384444444,-0.46999606,-0.8903353222222221,0.9852372444444444
963,1778413090330,-0.4458857480000001,0.565697648,0.198529867,-0.52316015,-0.90629883,0.99801751
964,1778413090340,-0.5231402444444444,0.5862028877777777,0.2964705422222222,-0.5188638566666667,-0.7805864333333334,0.985373
965,1778413090350,-0.5481417,0.59189427,0.31821978,-0.50746137,-0.71828,0.9798754
966,1778413090360,-0.5481417,0.59189427,0.31821978,-0.50746137,-0.71828,0.9798753999999998
967,1778413090370,-0.54716604,0.5759787144444444,0.2654490866666666,-0.4538425555555556,-0.7636863177777777,1.0365484444444444
968,1778413090380,-0.3609539599999999,0.475198468,0.050588316,-0.369532058,-1.01722864,1.27980136
969,1778413090390,-0.2587345888888889,0.4678423355555555,0.1139632933333333,-0.5379358955555555,-1.0487483777777775,1.303285088888889
970,1778413090400,-0.25065485,0.46792364,0.1219888299999999,-0.5667136,-1.046305,1.305457
971,1778413090410,-0.150722206,0.495653921,0.292285358,-0.686134208,-0.90012924,1.30142535
972,1778413090420,-0.1325653266666666,0.5167916444444445,0.3787246833333333,-0.7672072055555555,-0.6791858111111111,1.2653446555555556
973,1778413090430,-0.2725904244444444,0.5388796777777778,0.4013716577777778,-0.7027288888888888,-0.4453670555555555,1.2500734333333332
974,1778413090440,-0.3267873599999999,0.53176278,0.321774864,-0.60061555,-0.350488886,1.3435126700000002
975,1778413090450,-0.3389832,0.5250307,0.2716012,-0.5795413,-0.36276692,1.3818128
976,1778413090460,-0.21489059,0.5052581700000001,0.244511215,-0.620407004,-0.545837842,1.48351889
977,1778413090470,-0.04492132,0.49939906,0.2359690633333333,-0.6653314555555556,-0.6345260888888888,1.4990276333333332
978,1778413090480,0.0918956066666666,0.5301529,0.2781056766666666,-0.7000819,-0.6527157333333333,1.4194817666666666
979,1778413090490,0.115643947,0.498471169,0.267308293,-0.7360404199999999,-0.655118416,1.3280583199999998
980,1778413090500,0.09908099,0.4716637033333333,0.2668041866666666,-0.7665284666666667,-0.6496615311111111,1.2846881777777777
981,1778413090510,0.0293750228333333,0.4406151311111111,0.3048721244444444,-0.9335612555555556,-0.49321675,1.2556389777777777
982,1778413090520,-0.02161711445,0.43606203,0.3462702199999999,-1.02814758,-0.36569897,1.294706
983,1778413090530,-0.036590888,0.4054504844444444,0.3841552066666667,-1.1451859333333332,-0.18867544,1.4685531333333333
984,1778413090540,0.0116958052,0.385967652,0.387278696,-1.18794524,-0.12759072,1.5671439
985,1778413090550,0.0470759173333333,0.3752556533333333,0.3918318133333333,-1.2041666111111111,-0.1013242866666666,1.6136633222222223
986,1778413090560,0.020732916,0.3641980866666666,0.42063428,-1.1490546666666666,-0.1149665366666666,1.6198396666666666
987,1778413090570,-0.008207796,0.364002954,0.423347844,-1.0845898799999998,-0.170105682,1.64215594
988,1778413090580,-0.034991879,0.3599702066666667,0.3796156333333333,-0.9869764,-0.3029038799999999,1.7041365666666666
989,1778413090590,-0.055155657,0.3276478555555556,0.2803009133333333,-0.8995574088888889,-0.5207727444444444,1.8176184333333332
990,1778413090600,-0.04349034228,0.310847408,0.253106238,-0.895349363,-0.618162165,1.87684349
991,1778413090610,0.0584756351555555,0.2979035666666667,0.2188034133333333,-0.9144892333333332,-0.8111288133333334,1.9891986666666668
992,1778413090620,0.1252512133333333,0.2764287366666667,0.18391317,-0.947475,-0.9300403833333332,2.0421388333333335
993,1778413090630,0.178675058,0.176821284,0.0686442488,-1.18910582,-0.893837531,2.1139744499999997
994,1778413090640,0.1495073633333333,0.0947141983333333,-0.037508966,-1.5353815777777775,-0.7438677333333333,2.2296009333333333
995,1778413090650,0.13958131,0.084029295,-0.05372265,-1.64632502,-0.7024590700000001,2.2763375100000003
996,1778413090660,0.0999008211111111,-0.0299610961111111,-0.0866310688888888,-2.2580138222222224,-0.6253633666666666,2.6548100666666667
997,1778413090670,0.1498292055555555,-0.058045393,-0.0886196688888888,-2.435159555555556,-0.6466751444444444,2.787313022222222
998,1778413090680,0.291675568,-0.1054756739999999,-0.0695894248,-2.8178612899999997,-0.8439924019999999,3.01162974
999,1778413090690,0.38118078,-0.17961414,-0.0058133466666666,-3.0315586,-1.05017372,3.1395004666666666
1000,1778413090700,0.39069352,-0.20492049,0.018751094,-3.0828698,-1.1171633,3.1759477
