id,timestamp,acc_x,acc_y,acc_z,gyro_x,gyro_y,gyro_z
0,1778291944100,-0.02271553,0.18577614,0.8865263,-0.13746643,0.07798767,0.023498535
1,1778291944110,-0.0309861077777777,0.1888947844444444,0.9070000777777776,-0.1542714433333333,0.0218827988888888,0.0216064452222222
2,1778291944120,-0.0361518703333333,0.1948880388888888,0.9272704511111112,-0.17527771,-0.04824829,0.019241333
3,1778291944130,-0.00929234543125,0.2162388875,0.9869249725,-0.200176245,-0.12095832625,-0.007265090625
4,1778291944140,0.0005514870644444,0.2118776722222222,1.0085271333333334,-0.1917317777777777,-0.15768263,-0.0196482336666666
5,1778291944150,-0.0002620901499999,0.207131445,1.12338355,-0.10889625625,-0.1684265125,-0.057067872625
6,1778291944160,-0.0201529555,0.2223241249999999,1.2107561,-0.01548767,-0.1126937849999999,-0.0910263075
7,1778291944170,-0.033698436,0.23922545,1.2191757,0.03617859,-0.06954956,-0.110198975
8,1778291944180,0.0206459404444444,0.2100745788888889,1.1027612777777778,0.1852060988888889,0.1992594399999999,-0.1755303305555555
9,1778291944190,0.045011092,0.20518015,1.0568788,0.21728516,0.28678894,-0.19221497
10,1778291944200,0.0531050433333333,0.2147387966666666,0.90190224,0.1132490377777777,0.4492424799999999,-0.23648919
11,1778291944210,0.02613661648,0.2082172144444444,0.8813605177777778,-0.0186072466666666,0.4553934711111111,-0.2511647544444444
12,1778291944220,-0.0268649042233333,0.1981833033333333,0.9211009533333334,-0.1699422233333333,0.2958374066666667,-0.2385559066666666
13,1778291944230,-0.0516640222222222,0.1864959644444444,0.9894231222222224,-0.22184584,0.1472320584444444,-0.2189704011111111
14,1778291944240,-0.06542614,0.17442927,1.0544367,-0.2407836899999999,0.032714844,-0.20181274
15,1778291944250,-0.095395892,0.157124454,1.13263389,-0.1612167335,-0.1219635016,-0.165699764
16,1778291944260,-0.1040406022222222,0.1449510522222222,1.1776055333333335,-0.0427636036666666,-0.1907585977777778,-0.1223941355555555
17,1778291944270,-0.0776691133333333,0.1404774577777777,1.1614031444444446,0.0779147694444444,-0.1870303688888888,-0.0867055244444444
18,1778291944280,-0.0533041333333333,0.1435150466666666,1.1316821,0.1578064,-0.1741282166666666,-0.069366455
19,1778291944290,-0.03418684,0.15002298,1.1014185,0.19863892,-0.17021179,-0.065460205
20,1778291944300,-0.0144988730666666,0.1385794888888888,1.079236366666667,0.2187008322222222,-0.2015262177777778,-0.0856967494444444
21,1778291944310,0.0005926196,0.1265935,1.0632234,0.22579956,-0.2250824,-0.10380554
22,1778291944320,0.0148702760222222,0.11300715,1.0623153222222224,0.2088809522222222,-0.2480417877777777,-0.1366526277777777
23,1778291944330,0.0005926194999999,0.0888252799999999,1.0527903,0.168014525,-0.27568054,-0.16985321
24,1778291944340,-0.0211155085555555,0.0702434831111111,1.044038188888889,0.1393941233333333,-0.2816009488888889,-0.1645270444444444
25,1778291944350,-0.0375215144444444,0.0486981585555555,1.0521466,0.0420345725555555,-0.2492828333333333,-0.1310882611111111
26,1778291944360,-0.0396370749999999,0.0373899946666666,1.0750607,-0.0108744309333333,-0.2243703233333333,-0.1121521016666666
27,1778291944370,-0.0221462411111111,-0.0037605165555555,1.1081433333333337,-0.0741322844444444,-0.2148471444444444,-0.0785997177777777
28,1778291944380,-0.0270814544444444,-0.0253464561111111,1.1327122666666667,-0.0947282577777777,-0.1930711577777777,-0.0511406791111111
29,1778291944390,-0.042606395,-0.03802409,1.1425426,-0.09059143,-0.16436768,-0.031906128
30,1778291944400,-0.0454808323333333,-0.0414412037777777,1.1670023333333337,0.0069427482222222,0.0079752604444444,0.0850440124444444
31,1778291944410,-0.0416056284,-0.0389026012,1.1594558,0.091790772,0.147875978,0.1587860099999999
32,1778291944420,-0.0360984663333333,-0.037210082,1.1352611666666668,0.1799977666666666,0.2230428066666666,0.2104543066666666
33,1778291944430,-0.0032726293333333,-0.0300110243333333,1.0864911,0.3010864333333333,0.2287292466666666,0.25838725
34,1778291944440,0.01926247,-0.024723593,1.0488247,0.3451233,0.16055298,0.24986267
35,1778291944450,0.0337025836666666,-0.0161540258888888,0.9999855111111112,0.3447587788888889,-0.0440470377777777,0.2139468711111111
36,1778291944460,0.0577018629999999,-0.012886754,0.9235005,0.31689453,-0.27674866,0.1774292
37,1778291944470,0.0387468494333333,-0.0054834162566666,0.8989728666666666,0.2456919333333333,-0.4656626366666667,0.1358896933333333
38,1778291944480,0.0018125968666666,0.0072483134866666,0.8832718099999999,0.17662557,-0.55940247,0.1302083333333333
39,1778291944490,-0.005997746,0.021160098,0.88506263,0.15283203,-0.52815247,0.15719604
40,1778291944500,-0.03278989,0.0489829744444444,0.8537687055555555,0.1421813966666666,-0.4422200544444444,0.1914571088888889
41,1778291944510,-0.0734392053333333,0.0846564633333333,0.8234778666666666,0.1389872266666666,-0.2318267833333333,0.2805837
42,1778291944520,-0.0273932322,0.1408708166666666,0.92036884,0.2799479199999999,0.3736012966666667,0.5302174866666667
43,1778291944530,0.0613083920555555,0.2291514377777778,0.9679598666666666,0.5417056622222223,0.7309943466666666,0.6016455733333333
44,1778291944540,0.1610058833333333,0.31733718,0.9650985711111112,0.8524712533333333,1.0242394344444443,0.6140119777777778
45,1778291944550,0.25392428,0.3588133,0.92020607,1.0753632,1.1651001,0.58169556
46,1778291944560,0.23660992,0.3667181666666667,0.8692936466666666,1.2153167777777778,1.2246941444444444,0.5006222166666666
47,1778291944570,0.147466782,0.392664776,0.708510504,1.18837584,1.33106078,0.18530579
48,1778291944580,0.1091985846666666,0.40294815,0.6434853500000001,0.9704233666666666,1.3500925666666663,0.0025380466666666
49,1778291944590,0.05837951,0.3817960144444444,0.6231209344444444,0.5549706333333333,1.3150617666666666,-0.2317013244444444
50,1778291944600,0.0468546244444444,0.3104759977777778,0.6553227066666667,0.14874606,1.2110171666666667,-0.4221377944444444
51,1778291944610,0.0380961604444444,0.2698812888888888,0.6946016977777778,-0.11444092,1.0915357555555554,-0.5457628077777777
52,1778291944620,-0.0514469488888888,0.1653175404444444,0.8887631555555555,-0.4555528444444444,0.6450704044444444,-0.7382269988888889
53,1778291944630,-0.13128105,0.1196381326666666,1.0313334,-0.5250905388888889,0.3615926088888889,-0.8038601333333334
54,1778291944640,-0.2017587188888888,0.0950965255555555,1.1464468222222222,-0.3557722422222222,-0.0787879088888888,-0.7848069888888889
55,1778291944650,-0.2503804933333333,0.0568339326666666,1.2389856666666663,-0.06164042,-0.4993947333333333,-0.6916605666666666
56,1778291944660,-0.23467892,0.0288485979999999,1.2654248,0.16029358,-0.73161316,-0.5964966
57,1778291944670,-0.152554284,0.03006899,1.19005946,0.591461185,-1.00299838,-0.34402466
58,1778291944680,-0.1393753533333333,0.020713515,1.1353690777777778,0.7233462877777778,-1.0420888666666666,-0.2458411311111111
59,1778291944690,-0.1487718999999999,0.0079000393333333,1.0307641,0.7781473666666667,-0.9982910166666668,-0.1473032633333333
60,1778291944700,-0.1775567188888888,0.026692942,0.9750779,0.7774895333333334,-0.9175669388888889,-0.0723775255555555
61,1778291944710,-0.18916231,0.035802934,0.9610859,0.7637634,-0.87968445,-0.05532837
62,1778291944720,-0.2253103844444444,0.1462258164444444,0.9226734666666666,0.6441531722222221,-0.6939765111111111,0.0414326994444444
63,1778291944730,-0.229346906,0.222751241,0.9161546,0.6090316899999999,-0.57864839,0.103765872
64,1778291944740,-0.1856786644444444,0.2959689911111111,0.9224296222222222,0.6462300666666666,-0.4935353799999999,0.1589660666666666
65,1778291944750,-0.1062512177777777,0.3504205266666667,0.8838277888888889,0.7502678666666667,-0.4023895222222222,0.2265489355555555
66,1778291944760,-0.05798184,0.35747096,0.8412539,0.7919922,-0.394989,0.24667358
67,1778291944770,0.0075753005555555,0.3697415933333333,0.6989551777777777,0.7879706444444445,-0.3888380222222222,0.2509324777777778
68,1778291944780,0.0600210129999999,0.3795581,0.5851162,0.7829437,-0.3811493,0.2562561
69,1778291944790,0.0611193208888888,0.3788123533333333,0.5561274444444444,0.5134260275555556,-0.3237423422222222,0.2317606577777777
70,1778291944800,0.05286205,0.3735784888888889,0.5132407333333333,-0.1136728906666666,-0.20360311,0.1705118799999999
71,1778291944810,0.0377973435555555,0.3865545955555556,0.6802712888888889,-0.3817545466666666,-0.148203532,0.1383667
72,1778291944820,0.0311727254,0.397716512,0.88869826,-0.7156829699999999,-0.0424942015999999,0.0887451175
73,1778291944830,0.0378383064444444,0.3972929377777777,1.0269261333333333,-0.7449578277777777,0.0184580484444444,0.06338501
74,1778291944840,0.0314790082222222,0.4372243444444444,1.1753945888888888,-0.4694044322222223,0.0738508422222222,-0.0010070802222222
75,1778291944850,-0.0096042747777777,0.4869036499999999,1.238334811111111,-0.1301778133333333,0.058105468,-0.0287119546666666
76,1778291944860,-0.0496027288888888,0.5274707166666667,1.2223487333333332,0.2142673088888889,-0.0144483791111111,-0.0058610704444444
77,1778291944870,-0.0430948,0.56955725,1.067129,0.58213806,-0.12921143,0.044281006
78,1778291944880,-0.0416845422222222,0.58430965,0.9862106533333334,0.6285383622222223,-0.1500447633333333,0.0537482362222222
79,1778291944890,-0.0287219166666666,0.6708818444444444,0.6628888622222222,0.4705776666666666,-0.2859242788888889,0.13470968
80,1778291944900,-0.0073800061666666,0.7276386833333334,0.49846206,0.3302002,-0.34013367,0.1646576
81,1778291944910,0.0135764335,0.768439434,0.472385316,-0.076844788,-0.383012389,0.126834104
82,1778291944920,0.0108973570888888,0.7729653999999999,0.5314366755555555,-0.6570095511111111,-0.4163580944444444,0.0467580144444444
83,1778291944930,0.0060832947,0.7546609111111111,0.6052633677777778,-0.8934360133333333,-0.4169464,0.0111846924444444
84,1778291944940,0.0008767451666666,0.672223,0.8900239166666667,-1.1692301888888887,-0.3982984777777777,-0.0665266235555555
85,1778291944950,0.0017718098666666,0.6427461777777776,0.9942774444444444,-1.2213101222222222,-0.3949245844444444,-0.0967661517777777
86,1778291944960,0.0278863046666666,0.58074232,1.1354244333333332,-1.125671366666667,-0.4351738822222222,-0.1288333468888889
87,1778291944970,0.0585286628888888,0.5072813422222222,1.2645035222222225,-0.8691728266666666,-0.5250176422222222,-0.1740010577777778
88,1778291944980,0.06868477,0.48023188,1.3022777,-0.77182007,-0.54945374,-0.18849182
89,1778291944990,0.0974969011111111,0.4259702733333333,1.2369110444444449,-0.3705105265555555,-0.5552537666666667,-0.2672051311111111
90,1778291945000,0.119936254,0.380145096,1.1537931,0.0768798836,-0.5335815279999999,-0.358190924
91,1778291945010,0.1346335344444444,0.3826634288888889,1.001137811111111,0.2094184033333333,-0.3756985177777777,-0.3784671311111111
92,1778291945020,0.1343086233333333,0.3869474377777777,0.8704323888888889,0.2058647988888889,-0.1957872244444444,-0.3737335133333333
93,1778291945030,0.1026495266666666,0.3884389099999999,0.7503020277777778,0.0250040686666666,0.0547332766666666,-0.3228963266666667
94,1778291945040,0.0715861665555555,0.3763582022222222,0.6794571444444445,-0.1803588861111111,0.2328728588888888,-0.2704010066666666
95,1778291945050,0.0555050733333333,0.3616203133333333,0.6521906000000001,-0.3956061466666666,0.3931376155555555,-0.2247144922222222
96,1778291945060,0.0294723255,0.3427472266666667,0.6661018533333334,-0.6503855333333334,0.5410258,-0.1971995033333333
97,1778291945070,-0.0105935296666666,0.3177312166666666,0.7596159600000001,-0.9226192666666668,0.6579691644444444,-0.1689063166666667
98,1778291945080,-0.0229332908888888,0.2955753033333333,0.8906210222222223,-1.0799814777777776,0.6087866900000001,-0.1643473288888889
99,1778291945090,-0.0290343867777777,0.2839691811111111,0.95769595,-1.0770213,0.4890035,-0.1728617333333333
100,1778291945100,-0.039230071,0.2743289599999999,0.9931387333333332,-1.0282033533333332,0.27098592,-0.17801412
101,1778291945110,-0.0296225811999999,0.245205156,1.02656644,-0.927142334,-0.077005006,-0.161968994
102,1778291945120,-0.024139096,0.22779614,1.0532987777777778,-0.8443806944444444,-0.3137393522222222,-0.14179823
103,1778291945130,-0.0284778865555555,0.2253549733333333,1.0728238333333335,-0.7331186944444444,-0.51051838,-0.0994889966666666
104,1778291945140,-0.0232170696666666,0.2222088444444444,1.0734204555555555,-0.6638794,-0.5782165333333333,-0.0608469626666666
105,1778291945150,-0.0144173000888888,0.2170295988888889,1.0712779333333335,-0.6106211444444445,-0.5975070333333333,-0.0214911565555555
106,1778291945160,0.0078730786666666,0.2258706833333333,1.0786533555555555,-0.5374705066666666,-0.5432485,0.0485331216666666
107,1778291945170,0.0286588347777777,0.2362704766666666,1.0792771,-0.4482235333333333,-0.3864186688888888,0.1239318838888888
108,1778291945180,0.0458653694444444,0.2398766555555555,1.0676848555555556,-0.3730027888888889,-0.1717037635555555,0.1754777677777778
109,1778291945190,0.06648798,0.2347515033333333,1.0526075666666663,-0.3082529666666666,0.0598805746666666,0.20051066
110,1778291945200,0.08454862,0.2253152099999999,1.0360111,-0.2610321,0.2377777099999999,0.2008667
111,1778291945210,0.099521518,0.269012903,1.04888489,-0.1644638042,0.452540587,0.1268325814
112,1778291945220,0.1017141911111111,0.3054056244444444,1.0590336444444446,-0.0270843504444444,0.7318929044444444,0.0164608428888888
113,1778291945230,-0.0314743366666666,0.3223136855555555,1.0760097222222222,0.1992323133333333,0.7962782166666666,-0.1477796742222222
114,1778291945240,-0.2117653266666667,0.3810770422222223,1.1334582444444443,0.4698130222222221,0.6092681888888889,-0.1689690466666666
115,1778291945250,-0.28471094,0.4293459,1.160847,0.5938568,0.4748077399999999,-0.1277771
116,1778291945260,-0.46631714,0.5871159666666667,1.1242785777777775,1.0879024777777777,-0.1522844105555555,0.3732672777777778
117,1778291945270,-0.4813242499999999,0.64843642,1.046347378,1.29341122,-0.4389892599999999,0.759176632
118,1778291945280,-0.3051711,0.6253246466666667,0.82640672,1.3251597333333334,-0.6297047966666667,1.3930816766666667
119,1778291945290,-0.1162433086666666,0.5930413277777777,0.6665359577777777,1.1437666555555557,-0.6242607988888889,1.7780541333333335
120,1778291945300,0.024022093,0.5851769,0.57474303,1.0135651,-0.57928467,1.9063568
121,1778291945310,0.0796942908888888,0.5957526222222223,0.56866872,0.8488040777777779,-0.4645928299999999,1.8992529777777776
122,1778291945320,0.2459106933333333,0.64932289,0.58784028,0.0743560766666666,0.0652008066666666,1.7263234
123,1778291945330,0.4962588688888888,0.7613860755555556,0.7426544733333333,-0.5146196277777777,0.4507225955555555,1.0547366444444444
124,1778291945340,0.4940027319999999,0.78213096,0.83510396,-0.8064453200000001,0.631079104,0.3753478999999999
125,1778291945350,0.3169313688888889,0.7649251555555555,0.9226062222222224,-0.9111395833333334,0.4971160888888888,-0.1613922111111111
126,1778291945360,0.1498741733333333,0.6816604666666667,1.0121206333333337,-0.9078233611111112,0.3119964577777778,-0.4492475711111111
127,1778291945370,0.1061877928888888,0.6102054777777778,1.0377059333333334,-0.8639051888888889,0.2397308311111111,-0.611935091111111
128,1778291945380,0.0619319466666666,0.5350912555555555,1.0284314444444445,-0.8304138222222223,0.2324540888888889,-0.7069227666666666
129,1778291945390,0.0340686293333333,0.5001636899999999,1.0412985,-0.8336741088888888,0.256073,-0.6970367555555556
130,1778291945400,0.0100700400888888,0.4675960655555556,1.0953712333333334,-0.8104095488888889,0.3389248333333333,-0.5529361300000001
131,1778291945410,-0.0008306007266666,0.46929045,1.1482365333333333,-0.7315216066666667,0.3737793,-0.4189504033333333
132,1778291945420,-0.00026131258,0.48962823,1.1915978,-0.6370697,0.3730774,-0.32377625
133,1778291945430,0.0085643813333333,0.5405146822222222,1.2571001888888889,-0.2614440944444444,0.2368333588888888,-0.2087927922222222
134,1778291945440,0.023045281,0.56516465,1.2762859000000002,-0.0261332188888888,0.1348029233333333,-0.1848805744444444
135,1778291945450,0.0546101823333333,0.6042941566666666,1.2483005666666669,0.3586120633333334,-0.0686645499999999,-0.24512736
136,1778291945460,0.0806297966666666,0.6252555155555556,1.2050076888888888,0.5594109433333334,-0.1911078533333333,-0.3098754888888889
137,1778291945470,0.090771906,0.6300822,1.1834224,0.60769653,-0.2282714799999999,-0.3392334
138,1778291945480,0.1033950988888888,0.6376767,1.1383800888888889,0.6789567744444445,-0.2876366511111111,-0.4426845966666667
139,1778291945490,0.094310515,0.6410667,1.1287537,0.70144653,-0.29060364,-0.47079468
140,1778291945500,0.0389910526666666,0.6437092999999999,1.0743685666666667,0.7318047477777778,-0.3024919277777778,-0.4361080644444444
141,1778291945510,-0.032209576,0.634061316,0.997474672,0.7472534,-0.32095337,-0.3711853
142,1778291945520,-0.055052962,0.62922984,0.96694213,0.70144653,-0.36357117,-0.24069214
143,1778291945530,-0.0564635655555555,0.6279277688888888,0.9618721211111112,0.6443956366666668,-0.3945804188888889,-0.077348496
144,1778291945540,-0.05517584,0.62959534,0.9697497,0.6124878,-0.38327026,0.048538208
145,1778291945550,-0.0463216306666666,0.6324428133333333,0.9615464944444444,0.5969272222222223,-0.26556227,0.1768425854444444
146,1778291945560,-0.0337255695555555,0.6250935711111111,0.939595211111111,0.5648566333333334,-0.1363694944444444,0.2938995388888888
147,1778291945570,-0.026742544,0.61946636,0.9244773,0.53793335,-0.08073425,0.33029175
148,1778291945580,-0.0156521399555555,0.6089591000000001,0.912612771111111,0.4576789011111111,0.0134836836,0.3882954922222222
149,1778291945590,-0.00520509786,0.60256678,0.917960764,0.41179504,0.0590301512,0.413812256
150,1778291945600,0.0231272013333333,0.5935696222222222,0.9223618777777778,0.3628099244444444,0.1024305533333333,0.4198371033333333
151,1778291945610,0.034191508,0.5957931866666667,0.9276094166666664,0.3495534266666666,0.1154530833333333,0.4162292466666666
152,1778291945620,0.04444146,0.5968239333333334,0.9196638944444444,0.3956502222222222,0.105745105,0.4037441666666666
153,1778291945630,0.0635188355555555,0.5925796999999999,0.8887766333333333,0.4657287577777778,0.03602261,0.3862253777777777
154,1778291945640,0.074908055,0.5917657,0.8723703,0.49319458,-0.009902954,0.3777008
155,1778291945650,0.0655109938888888,0.6004982388888889,0.8284265888888889,0.5632561533333332,-0.1453060553333333,0.3455081511111111
156,1778291945660,0.052942759,0.6030747000000001,0.8082647000000001,0.6060994466666667,-0.2211761433333333,0.3317159033333333
157,1778291945670,0.0581769603333333,0.5886344,0.7427222555555555,0.5973476733333334,-0.2351481133333333,0.3291049555555555
158,1778291945680,0.081063935,0.5683502088888889,0.6699937222222222,0.5095825111111112,-0.2172173411111111,0.3204667866666666
159,1778291945690,0.1046560422222222,0.55460194,0.628815911111111,0.45111084,-0.20324707,0.3143158
160,1778291945700,0.1382817111111111,0.5309818555555554,0.5885317888888889,0.1820678711111111,-0.1640658866666666,0.2498067233333333
161,1778291945710,0.14190206,0.5230638,0.60738533,-0.0527648899999999,-0.13773346,0.17503357
162,1778291945720,0.13437688,0.5211926333333333,0.6515398933333333,-0.19290839,-0.1078406444444444,0.10824585
163,1778291945730,0.13043127,0.5205419666666667,0.6647595133333333,-0.2445170077777777,-0.0860646533333333,0.0760531966666666
164,1778291945740,0.12847869,0.5191597,0.66931486,-0.25517273,-0.07807922,0.06983948
165,1778291945750,0.1294541153333333,0.4841235711111111,0.7458410866666667,-0.4543100966666666,0.2528093133333333,-0.029412165
166,1778291945760,0.1528968977777777,0.4635823655555555,0.7626132977777778,-0.5237884466666666,0.3959689666666667,-0.0669335288888888
167,1778291945770,0.1893707444444444,0.4424167277777778,0.7441454511111112,-0.6198527,0.5688985099999999,-0.1526336666666666
168,1778291945780,0.229201004,0.41170078,0.712683712,-0.785993972,0.7675369209999999,-0.30327911
169,1778291945790,0.24867626,0.390541,0.69335407,-0.89112854,0.8018341,-0.4095459
170,1778291945800,0.2579234644444444,0.3798838488888889,0.73373203,-1.060039926666667,0.6240624333333334,-0.7052035911111111
171,1778291945810,0.2540865533333333,0.3866358,0.7665713333333333,-1.0990396999999998,0.5266520233333334,-0.8322652133333333
172,1778291945820,0.2165695444444444,0.3816197222222222,0.8325622833333334,-1.017066111111111,0.2896881088888888,-1.070003911111111
173,1778291945830,0.1299561782222222,0.3195206555555555,0.8604937188888889,-0.9235602622222222,0.0709516733333333,-1.2511020000000002
174,1778291945840,0.056603726,0.2578953,0.86334103,-0.88687134,-0.03439331,-1.320343
175,1778291945850,0.009012346,0.1885562133333333,0.8789064011111111,-0.9218461888888888,-0.0814446344444444,-1.3277384333333333
176,1778291945860,-0.0972745399999999,0.0635530895999999,0.953568814,-0.97666933,-0.1337860099999999,-1.32321472
177,1778291945870,-0.1251785799999999,-0.032654744,1.06399645,-0.9296620833333332,0.0492299433333333,-1.2029775333333332
178,1778291945880,-0.0917162227777777,-0.0548101444444444,1.0949379888888888,-0.8410068222222223,0.2992672444444444,-1.139889188888889
179,1778291945890,-0.089465335,-0.0086549426666666,1.0792091,-0.7216407,0.5152808444444444,-1.0887061
180,1778291945900,-0.1110910277777777,0.0073440586666666,1.0537454555555557,-0.5798424644444444,0.5886722222222223,-1.0025380333333334
181,1778291945910,-0.1243377833333333,0.0051462333333333,1.0176117222222223,-0.4504665777777778,0.5681389622222223,-0.907426622222222
182,1778291945920,-0.0842594828888889,0.0076957591111111,0.9133182422222222,-0.2078179288888889,0.0913662333333333,-0.6761508444444444
183,1778291945930,-0.0584298046666666,-0.0036931139999999,0.8435315333333333,-0.0941314716666666,-0.4658305,-0.4801991733333334
184,1778291945940,-0.0462423716,-0.0446138351999999,0.823266248,-0.0633117676,-0.82983096,-0.322189334
185,1778291945950,-0.0811817966666666,-0.1000960288888889,0.839775488888889,0.0074208579999999,-0.8015696333333334,-0.2044779433333333
186,1778291945960,-0.13290855,-0.113316335,0.8014721,0.05003357,-0.6879425,-0.14801025
187,1778291945970,-0.1317685944444444,-0.1292066283333333,0.7093269444444444,-0.3341759588888889,-0.4175974466666666,0.0011257597777777
188,1778291945980,-0.11590457,-0.14138203,0.7056798166666667,-0.7456054755555556,-0.1355963811111111,0.1093173561111111
189,1778291945990,-0.0592025066666666,-0.1059536138888888,0.8883698555555556,-1.185677444444445,0.2199740955555555,0.2233615466666667
190,1778291946000,-0.0022011088888888,-0.0472170427777777,1.0815005444444443,-1.2305331888888889,0.3225351977777777,0.2646687833333334
191,1778291946010,0.022679755,-0.008981065,1.1787841,-1.1419983,0.28678894,0.25946045
192,1778291946020,0.0313921951,-0.0346802245,1.1255188,-0.64015655,-0.0028076197999999,0.230697631
193,1778291946030,0.0473969505555555,-0.0821847078888888,1.0299507444444442,-0.3103281655555555,-0.2405242933333333,0.2183261455555555
194,1778291946040,0.0750027594444444,-0.1385349016666666,0.93059254,-0.276772391111111,-0.3974728044444444,0.1842397044444444
195,1778291946050,0.0464749268888888,-0.1739507055555555,0.8551243355555554,-0.4005788222222222,-0.4213850222222222,0.1518096911111111
196,1778291946060,-0.016980652,-0.15517145,0.86468333,-0.5337372,-0.36250305,0.14440918
197,1778291946070,-0.0452639358888888,-0.1419786222222222,0.9215620577777778,-0.6120927688888889,-0.3030819344444444,0.1624009888888888
198,1778291946080,-0.0671609617777777,-0.1303721611111111,0.9654515444444444,-0.71003723,-0.22880554,0.18489075
199,1778291946090,-0.0488160254444444,-0.0650466127777777,1.2217936444444446,-0.6828715033333332,0.1953481044444444,0.2976311611111111
200,1778291946100,0.0019585998,-0.029115511,1.25527288,-0.5125350949999999,0.371047975,0.32486267
201,1778291946110,0.040616997,-0.011177335,1.2330874,-0.33132935,0.45083618,0.30845642
202,1778291946120,0.0670023088888888,0.0233434052222222,1.0805920111111111,-0.0387980155555555,0.4062720422222222,0.2153032077777777
203,1778291946130,0.0655111666666666,0.0319124535555555,1.0107105888888888,0.0684933133333333,0.2981397877777778,0.1560075533333333
204,1778291946140,0.0881551522222222,0.0312621113333333,0.9128979444444444,0.1811167366666666,0.0325961666666666,0.0413733588888888
205,1778291946150,0.10073756,0.0347872393333333,0.8531306333333333,0.2105305966666666,-0.1187337233333333,-0.0247955313333333
206,1778291946160,0.069823344,0.0325090496666666,0.8134307866666667,0.1540764695555555,-0.2294040277777777,-0.0988922122222222
207,1778291946170,0.0046331142222222,0.0252420703333333,0.8080075111111111,0.0597991940999999,-0.2574005166666666,-0.1430409766666666
208,1778291946180,-0.010146083,0.023479247,0.8231937,-0.0027008057,-0.21336365,-0.14375305
209,1778291946190,-0.0417885492,0.0300682114,0.8712111480000001,-0.06267700188,-0.175442508,-0.1224456779999999
210,1778291946200,-0.0767607455555555,0.0186247428888888,0.902131738888889,-0.1768731,-0.14033678,-0.0607231988888888
211,1778291946210,-0.0824290846666666,-0.0241942273333333,0.9134134833333332,-0.2564188599999999,-0.15015666,0.0169270833333333
212,1778291946220,-0.0661988422222222,-0.047067892,0.9158812555555556,-0.2848290311111111,-0.1642964711111111,0.0810818155555555
213,1778291946230,-0.0446531705555555,-0.0541860664444444,0.9120980844444444,-0.3018714066666667,-0.1740587033333333,0.1332787433333333
214,1778291946240,-0.0168989055555555,-0.0472714814444444,0.8724112266666667,-0.3823496555555555,-0.1705186677777778,0.1552988677777777
215,1778291946250,-0.01673645,-0.053887945,0.8527236,-0.4367981,-0.18087769,0.16091919
216,1778291946260,-0.0335396253,-0.0734367665,0.84811131,-0.533303834,-0.223381042,0.198158262
217,1778291946270,-0.0470803346666666,-0.0749578266666666,0.8910821333333333,-0.7494507,-0.2263234433333333,0.2621256533333333
218,1778291946280,-0.07408989,-0.09806222,0.9255754,-0.8740845,-0.19792175,0.2781067
219,1778291946290,-0.1162574844444444,-0.1485275166666666,0.9451000488888888,-1.0219252111111112,-0.2603590166666666,0.3975863977777777
220,1778291946300,-0.15218814,-0.19971125,0.95864546,-1.1116486,-0.3475952,0.50019836
221,1778291946310,-0.0949434,-0.2128774633333333,1.0867617466666666,-1.0637664777777778,-0.6940375422222222,0.7380506577777778
222,1778291946320,-0.0206144864,-0.2015964388888889,1.1731846444444445,-1.0166575,-0.8551330577777778,0.8796183111111111
223,1778291946330,-0.0056322194,-0.1980034,1.1791497,-1.007782,-0.85040283,0.8831787
224,1778291946340,0.199523352,-0.188729284,1.23508834,-0.540554804,0.012475586,0.7273254400000001
225,1778291946350,0.22109844,-0.19092618,1.1862285,-0.42082214,0.20529175,0.6706543
226,1778291946360,0.1823477866666666,-0.24732978,1.0144121755555555,-0.3004998088888889,0.3379160544444444,0.4969533322222222
227,1778291946370,0.0769418626111111,-0.2663661888888888,0.9646789577777776,-0.3237575888888889,0.2997436488888889,0.4080641033333333
228,1778291946380,0.0038870247,-0.26023778,0.9782921,-0.3675537,0.23937988,0.39102173
229,1778291946390,-0.0004108061111111,-0.2478052144444444,1.1998690555555551,-0.4194556388888888,-0.4419233644444444,0.3395860455555555
230,1778291946400,0.034801755,-0.2418530933333333,1.3331514333333334,-0.3347066233333333,-0.6639709666666667,0.2958526633333333
231,1778291946410,0.0676409002222222,-0.2206062333333333,1.4087681444444444,0.0380147311111111,-0.7174089333333334,0.2166680222222222
232,1778291946420,0.0870295333333333,-0.21769101,1.3769182666666666,0.3406728133333334,-0.6352030466666667,0.1460062633333333
233,1778291946430,0.0995167147777777,-0.2294467955555555,1.2793489666666666,0.6036766888888888,-0.4679633222222221,0.0314229331111111
234,1778291946440,0.0367538235,-0.2487675033333333,1.1419317999999998,0.6606089333333334,-0.37439982,-0.0258636476666666
235,1778291946450,0.00549876338,-0.267145603,1.052302396,0.65372316,-0.297518921,-0.0503265381
236,1778291946460,0.0307066469444444,-0.2988805777777777,0.9636212533333331,0.49039882,-0.1989847788888888,-0.0445675322222222
237,1778291946470,0.0715861664444444,-0.3104599111111111,0.941560398888889,0.3396063866666667,-0.1305168991111111,-0.05166287
238,1778291946480,0.10590315,-0.3096065088888889,0.9442858555555556,0.1639014322222222,-0.0217352971111111,-0.0759260422222222
239,1778291946490,0.1378202638888889,-0.29338958,0.9519741777777776,-0.0021616616666666,0.1072896326666666,-0.09617615
240,1778291946500,0.15422575,-0.27976313,0.9533973999999998,-0.087387085,0.17227173,-0.1118011499999999
241,1778291946510,0.1725713866666666,-0.2269508433333333,0.9589703666666666,-0.1917300755555555,0.2216830755555555,-0.1398468011111111
242,1778291946520,0.1699440179999999,-0.188899756,0.98502744,-0.221188354,0.190698242,-0.155682372
243,1778291946530,0.135095494,-0.1605003711111111,1.0280924,-0.1734992122222222,0.0614742724444444,-0.1721021822222222
244,1778291946540,0.0961136011111111,-0.1599580377777777,1.0513592777777778,-0.1008860266666666,-0.0844726579999999,-0.1659444133333333
245,1778291946550,0.08662201,-0.16944876,1.054681,-0.05329895,-0.1739502,-0.14535522
246,1778291946560,0.1033544831111111,-0.1694624166666666,1.0800634888888887,-0.0648379855555555,-0.1656019444444444,-0.1254119866666666
247,1778291946570,0.1162082266666666,-0.1619780233333333,1.102381822222222,-0.0870886916666666,-0.1310933433333333,-0.1047583704444444
248,1778291946580,0.1247497944444444,-0.1437150044444444,1.142678277777778,-0.1978844555555555,0.0739169655555555,-0.0528445775555555
249,1778291946590,0.1402745666666666,-0.1187665699999999,1.2173858333333334,-0.2274729399999999,0.320165,-0.0347391763333333
250,1778291946600,0.14873508,-0.11233953,1.2428493,-0.1976471,0.4092865,-0.046813965
251,1778291946610,0.1391083355555555,-0.10398755,1.2310805666666669,-0.1278703505555555,0.4426642522222222,-0.0688883461111111
252,1778291946620,0.12591533,-0.10331024,1.1981866,-0.019210815,0.48332214,-0.10380554
253,1778291946630,0.1098347577777777,-0.1324201522222222,1.2291682555555556,0.0760091144444444,0.375434031111111,-0.1481374111111111
254,1778291946640,0.0956530028,-0.149033878,1.28077556,0.1910797129999999,0.246675113,-0.192170713
255,1778291946650,0.093091056,-0.14809424,1.3069144,0.30143738,0.15681458,-0.22311401
256,1778291946660,0.1150015608888889,-0.1483921911111111,1.2554731777777777,0.5322469133333334,0.0408782976666666,-0.30176799
257,1778291946670,0.12896709,-0.1495579,1.2122213,0.7685547,-0.051986694,-0.3892975
258,1778291946680,0.1023915017777777,-0.1641068977777778,1.073880648888889,0.8069000266666667,-0.1183827713333333,-0.4812622133333333
259,1778291946690,0.083816014,-0.17689307,0.97902316,0.80529785,-0.21336365,-0.59754944
260,1778291946700,0.048061123,-0.1592256066666666,0.8803700511111111,0.5721944222222223,-0.2552066388888889,-0.6425916877777778
261,1778291946710,0.0384884752222222,-0.1428329077777778,0.8351514066666668,0.3186594633333333,-0.2478078233333333,-0.6286265000000001
262,1778291946720,0.0593363124,-0.138965718,0.858483092,0.1054290779999999,-0.198986818,-0.56277465
263,1778291946730,0.1331695266666666,-0.1375995644444444,1.000961522222222,-0.1627858455555555,-0.1315765377777777,-0.4384765666666667
264,1778291946740,0.1774260555555555,-0.1688927822222222,1.1335120111111112,-0.2392493344444444,-0.0785505511111111,-0.3885294644444445
265,1778291946750,0.18379866,-0.2043080733333333,1.2452903666666666,-0.21131897,0.0030670166666666,-0.3795318633333333
266,1778291946760,0.1114626077777777,-0.1874140055555555,1.330547522222222,-0.02938673,0.1230943466666666,-0.3991156666666666
267,1778291946770,0.0654988974999999,-0.1736518866666666,1.3385880777777777,0.06388855,0.15576172,-0.4031372
268,1778291946780,-0.0459550680555555,-0.14713074,1.3239995444444446,0.3973134366666666,0.1772410066666666,-0.3253835066666666
269,1778291946790,-0.1134442725,-0.131284305,1.30130165,0.71674919375,0.2367801675,-0.18463134625
270,1778291946800,-0.1269586449999999,-0.10687879,1.22555205,0.9148903,0.3363189725,-0.059329985
271,1778291946810,-0.0621984464444444,-0.0796491866666666,1.109363833333333,1.1502702666666669,0.4695366833333333,0.077053494
272,1778291946820,-0.016369367,-0.07707322,1.040892,1.2532501,0.5062256,0.124694824
273,1778291946830,-0.0218153235,-0.07296979375,0.947876205,1.32136345,0.46827508,0.169239044
274,1778291946840,-0.0280844925,-0.068988859375,0.8192427375,1.378421775,0.3610878025,0.2466697749999999
275,1778291946850,0.0008366496666666,-0.0528439036666666,0.774598411111111,1.290715533333333,0.237070728,0.2720591266666666
276,1778291946860,0.03874685,-0.0286282456666666,0.7583959833333334,1.1041208666666664,0.0961049393333333,0.2781016066666666
277,1778291946870,0.0717080113333333,-0.0239367158888888,0.7745038555555556,0.9922638,0.04496765,0.27171326
278,1778291946880,0.1024585571111111,-0.0165605123333333,0.8390971666666667,0.781161848888889,-0.0662434883333333,0.1694420688888888
279,1778291946890,0.0926745061999999,-0.00656516718,0.902951164,0.71199341,-0.094107054,0.0991317734999999
280,1778291946900,0.0025032055555555,0.0127811574,0.9978430022222222,0.7438218877777777,-0.0164099811111111,0.0762295188888888
281,1778291946910,-0.0507278261111111,0.03766202,1.0572035222222222,0.8482191322222222,0.0991160055555555,0.09730021
282,1778291946920,-0.055174287,0.04715292,1.0588309,0.93048096,0.1781311,0.11299133
283,1778291946930,0.0145985934444444,0.0442504864444444,0.9401375244444444,1.067538802222222,0.3418256933333333,0.1002604155555555
284,1778291946940,0.0385840466666666,0.0444677286666666,0.8877462466666667,1.1160685222222222,0.4172244533333333,0.0833333333333333
285,1778291946950,0.0370657733333333,0.0546919277777777,0.8872713333333333,1.0622100666666667,0.44728088,0.07356771
286,1778291946960,0.0364964861111111,0.0539055716666666,0.9356632333333336,1.0516798333333337,0.4558054533333333,0.0865325922222222
287,1778291946970,0.0093784779999999,0.0686909875,0.9646253,1.0769577,0.39810943,0.089019775
288,1778291946980,-0.0622532278888888,0.1068514422222222,0.9488697222222222,1.1190355,0.2043473988888889,0.0718519433333333
289,1778291946990,-0.1025907644444444,0.1233252,0.9267281355555556,1.1360779,0.0710076211111111,0.0630883111111111
290,1778291947000,-0.1662081111111111,0.1185939122222222,0.8777539999999999,1.1286774,-0.3269331233333333,0.1173027877777777
291,1778291947010,-0.1781939244444444,0.1139296944444444,0.8515584444444444,1.1542443333333334,-0.6339670833333333,0.1947157122222222
292,1778291947020,-0.1322300444444444,0.1200987111111111,0.8148139222222223,1.2669813333333333,-0.9994151,0.2651435011111111
293,1778291947030,-0.0570058946666666,0.1090890177777777,0.7743001177777777,1.3789469333333333,-1.216015322222222,0.2807617188888889
294,1778291947040,-0.005753543,0.09315794,0.74094564,1.4455261,-1.3121796,0.27809143
295,1778291947050,0.1133224046999999,0.096610998,0.648753264,1.51019595,-1.12853396,0.2948211669999999
296,1778291947060,0.1887195366666666,0.1119091866666666,0.5766956,1.5025278999999998,-0.90188091,0.3148447666666666
297,1778291947070,0.2505479633333333,0.1510397066666666,0.4636157133333333,1.2466854777777778,-0.4109141022222222,0.30383979
298,1778291947080,0.2376949099999999,0.1854520899999999,0.41419394,0.8615333000000001,0.0604129333333333,0.274963381111111
299,1778291947090,0.17253163,0.22555943,0.39841148,0.6029053,0.2761383,0.25306702
300,1778291947100,0.0714778066666666,0.2581673277777778,0.4646863599999999,-0.1092258066666666,0.3860304,0.1209682877777777
301,1778291947110,0.0135006317777777,0.2763494622222222,0.5127654688888889,-0.4057278155555555,0.3236490844444444,0.0434366857777777
302,1778291947120,0.0737279977777777,0.3390855555555556,0.6115686,-0.6617974222222222,0.1390669111111111,-0.1074167905555555
303,1778291947130,0.200499554,0.369185832,0.7284505099999999,-0.73432007,-0.00979004,-0.28852234
304,1778291947140,0.2567303,0.36735573,0.7898795,-0.7148285,-0.06796265,-0.3946228
305,1778291947150,0.2527848388888889,0.3799929177777777,0.7871678833333333,-0.6066470444444445,-0.0267673083333333,-0.5646480777777777
306,1778291947160,0.2283524633333333,0.3780130244444444,0.7789783566666667,-0.5855187066666666,0.0161454946666666,-0.5947062
307,1778291947170,0.1270549476666666,0.3772399733333333,0.8029772533333334,-0.5962270066666666,0.10355632,-0.5274200666666666
308,1778291947180,-0.0027437823333333,0.399408,0.8931565499999999,-0.5871734666666666,0.2304992733333333,-0.3754476
309,1778291947190,-0.030648233,0.41153,0.96840733,-0.5641022,0.32034302,-0.283844
310,1778291947200,-0.034091959,0.4167908133333333,1.029204672222222,-0.3405100577777777,0.4920857777777778,-0.2346021844444444
311,1778291947210,-0.02083656755,0.44411224,1.11662365,-0.1161514259999999,0.6217559840000001,-0.21774444
312,1778291947220,0.0197368773333333,0.5116213355555556,0.9637563944444444,0.1640133344444444,0.5801984888888889,-0.3402947333333334
313,1778291947230,0.0300421339999999,0.5533283666666666,0.7732021833333333,0.0900963688888888,0.4801873,-0.4113786466666667
314,1778291947240,0.0298800231111111,0.5825065444444444,0.6938153511111111,-0.18876648,0.3651428111111111,-0.4094797755555555
315,1778291947250,0.033418976,0.6124705333333333,0.6625622266666666,-0.45685832,0.2629953966666666,-0.3665669733333333
316,1778291947260,0.046597634,0.6214184,0.6666302,-0.5545044,0.21968079,-0.33816528
317,1778291947270,0.0608341539999999,0.6515869000000001,0.8095398111111111,-0.5883009222222222,0.0349070235555555,-0.21151733
318,1778291947280,0.0611186246666666,0.6736068333333333,0.9802851,-0.5016021766666667,-0.0676015233333333,-0.12333679
319,1778291947290,0.0228625186999999,0.665228,1.08164975,-0.254531856,-0.095547484,-0.1062530519999999
320,1778291947300,0.0089312912222222,0.6509367666666667,1.0290688,-0.1549157,-0.0815107537777777,-0.1322716577777777
321,1778291947310,0.011575526,0.6382591,0.9776808,-0.1161498999999999,-0.044525146,-0.16186523
322,1778291947320,-0.0571413904444444,0.6160765666666665,0.8539714533333334,-0.2835150822222222,0.1862962504444444,-0.2058987055555555
323,1778291947330,-0.088285808,0.59534524,0.8011056033333334,-0.4944966533333333,0.3860321,-0.21832275
324,1778291947340,-0.1090307755555555,0.5802413111111111,0.8830008166666666,-0.7185567,0.5825653000000001,-0.2128194133333333
325,1778291947350,-0.1276468777777777,0.5664522555555556,1.0021826666666669,-0.9426201666666666,0.8150346555555555,-0.1893853044444444
326,1778291947360,-0.11521396,0.5611377,1.120821,-0.9811554,0.9190216,-0.14588928
327,1778291947370,-0.0892347888888888,0.5588328711111111,1.2236233555555556,-0.8470458888888889,0.9498528222222222,-0.0917968743333333
328,1778291947380,-0.072551729,0.552228959,1.28660926,-0.49890291,0.835446155,-0.0193252563532
329,1778291947390,-0.0739685716666666,0.5245693,1.2722989999999998,-0.1440853555555555,0.8104197166666666,0.0249159072915555
330,1778291947400,-0.0856016466666666,0.5172879666666667,1.1960313,0.0148824066666666,0.79420472,0.0172780356666666
331,1778291947410,-0.09812909,0.5333141,1.0652983,0.12780762,0.6031647,-0.037765503
332,1778291947420,-0.1489070433333333,0.5362564444444444,0.8999358166666666,0.3037448533333333,-0.1693284777777778,-0.1898023833333333
333,1778291947430,-0.1297754033333333,0.54897469,0.8495920233333334,0.4109802333333333,-0.5710550911111111,-0.2696973988888889
334,1778291947440,-0.076543847,0.5765666777777778,0.8653203955555555,0.5669843888888888,-0.9179229555555556,-0.36876762
335,1778291947450,-0.026865423,0.5975021,0.9241102,0.6417999,-0.8360138,-0.40899658
336,1778291947460,-0.026865423,0.5975021,0.9241102,0.6417999,-0.8360138,-0.40899658
337,1778291947470,-0.026865423,0.5975021,0.9241102,0.6417999,-0.8360138000000001,-0.40899658
338,1778291947480,-0.026865423,0.5975021,0.9241102,0.6417999,-0.8360138,-0.40899658
339,1778291947490,-0.0650602682222222,0.6340291777777778,0.9272017044444444,0.6339874,-0.7660030844444444,-0.3405829522222222
340,1778291947500,0.0820810133333333,0.9908676,0.7890395822222221,0.42288208,-0.5467987,1.098877
341,1778291947510,0.3457163733333333,0.8943299111111112,0.6601765333333334,0.2209506506666666,-0.4550035255555555,1.1307254222222225
342,1778291947520,0.36313894,0.8718228,0.6246522,0.112350464,-0.38754272,1.0706482
343,1778291947530,0.2882683911111111,0.826861111111111,0.6580341777777777,-0.0869767951111111,-0.3566385977777778,0.7838609577777778
344,1778291947540,0.13281056,0.7327096,0.7408243,-0.3470459,-0.3744812,0.39315034
345,1778291947550,0.04815345125,0.661871735,0.80275345,-0.48020553,-0.44359207,0.18328857125
346,1778291947560,-0.014905705,0.60897344,0.8655373,-0.5289459,-0.57502747,0.063446045
347,1778291947570,-0.03314897875,0.594848555,0.9315852,-0.5289459,-0.57502747,0.063446045
348,1778291947580,-0.0461447799999999,0.5388763314285715,1.2419600142857143,-0.5047498371428571,-0.4992348785714285,-0.2794189364285714
349,1778291947590,-0.047899334625,0.5353742487500001,1.29106595,-0.28166771,-0.20131111,-0.4214496625
350,1778291947600,-0.0537925423333333,0.5311592800000001,1.3068330333333331,-0.092361452,-0.015223185,-0.4647471166666667
351,1778291947610,0.0119407063333333,0.5310644066666668,1.3102771111111111,0.3234507213333333,0.138178507,-0.3944447833333333
352,1778291947620,0.0795451431111111,0.5805129777777778,1.2773024555555557,0.5996534555555555,0.2494455988888889,-0.3408864333333333
353,1778291947630,0.09896143,0.6209450533333334,1.2441648111111112,0.7751244477777778,0.3170928977777777,-0.3025343144444444
354,1778291947640,0.1170483322222222,0.6565907222222223,1.1044279666666668,0.97633868,0.3418799444444444,-0.2138248022222222
355,1778291947650,0.1054961406666666,0.6594109,1.046749266666667,1.0245717,0.3141276033333333,-0.1693216966666667
356,1778291947660,0.0559525193333333,0.6563197333333333,0.9364359333333334,0.9816690944444444,0.2055884422222222,-0.1252237944444444
357,1778291947670,0.0355602861555555,0.6537435922222223,0.8918544888888889,0.9258015944444444,0.0990583586666666,-0.1043938544444444
358,1778291947680,0.0068159034,0.64680153,0.8456464,0.8553771999999998,-0.028533936,-0.09529114
359,1778291947690,-0.0004655927333333,0.6380558533333333,0.8299049000000001,0.7969665533333333,-0.1806945806666666,-0.1046956399999999
360,1778291947700,-0.0165197261111111,0.6184221555555555,0.8020827,0.66617838,-0.50347901,-0.1257561577777778
361,1778291947710,-0.0310671644444444,0.5855420611111111,0.8066517044444445,0.5211842777777778,-0.5572086044444444,-0.13411119
362,1778291947720,-0.0482602177777777,0.5229010111111111,0.7898929777777778,0.2983042388888889,-0.5201568666666667,-0.1233384877777777
363,1778291947730,-0.05517584,0.4842589,0.7818255,0.1698761,-0.49086,-0.10913086
364,1778291947740,-0.05517584,0.4842589,0.7818255,0.1698761,-0.49086,-0.10913086
365,1778291947750,-0.0439084633333333,0.4821030688888889,0.7892421444444444,0.1008690744444444,-0.4261152611111111,-0.0812564433333333
366,1778291947760,0.049379056,0.477693716,0.8637068600000001,-0.443942258,0.142333984,0.150473022
367,1778291947770,0.0605085542222222,0.5427915333333333,0.9423203444444443,-0.3628828277777777,0.3785061333333333,0.1783091255555555
368,1778291947780,0.055382714,0.59091175,1.0056257,-0.18060303,0.49822998,0.15345764
369,1778291947790,-0.0253182854222222,0.6424076011111111,1.0411227444444444,0.2163967566666666,0.5848795711111111,0.0263383633333333
370,1778291947800,-0.1024131022222222,0.6726296311111111,1.0419094555555557,0.5431416866666666,0.6631232555555555,-0.0726708333333333
371,1778291947810,-0.1851759122222222,0.6284427655555556,0.8871095888888889,0.6709696511111111,0.7047763355555555,-0.1067623555555555
372,1778291947820,-0.2178660788888889,0.60003746,0.8097702277777779,0.6459333622222222,0.7040100044444445,-0.0877092153
373,1778291947830,-0.21161549,0.54783611,0.6965680999999999,0.41264004,0.6713426311111111,0.0218963617888888
374,1778291947840,-0.1863421388888889,0.5193893544444443,0.6241108666666667,0.0594431566666666,0.57050578,0.1378377266666667
375,1778291947850,-0.1465017915,0.5034667799999999,0.5882643849999999,-0.18379211,0.48812866,0.20565796
376,1778291947860,-0.0788899583333333,0.5011804133333333,0.6715526166666667,-0.7024078333333333,0.1433308933333333,0.3413035066666666
377,1778291947870,-0.05729071,0.4995943833333333,0.7530271799999999,-0.8334350566666666,-0.02373759,0.3951009099999999
378,1778291947880,-0.03402352,0.4881236033333332,0.8871769533333334,-0.8411780444444444,-0.2712402333333333,0.4709167477777777
379,1778291947890,-0.0022278966666666,0.46953428,0.9385641266666666,-0.8101654,-0.3550415,0.49435425
380,1778291947900,0.016700674,0.45863312,0.9555937,-0.7112206355555555,-0.3815578911111111,0.5090298144444444
381,1778291947910,0.0355875935555555,0.4339290722222222,0.9372352744444444,-0.6721564388888889,-0.3016035311111111,0.50837199
382,1778291947920,0.0518196868,0.376983689,0.901303828,-0.694691468,-0.0128829959999999,0.482740783
383,1778291947930,-3.1626222222223524e-05,0.3390316444444444,0.9395948577777776,-0.8016510033333334,0.2630004866666666,0.4384206133333333
384,1778291947940,-0.0468916088888888,0.3048093777777778,0.9858568888888888,-0.8215399844444444,0.4068705244444444,0.4212019188888888
385,1778291947950,-0.0594064431111111,0.2947080555555555,1.0162555777777778,-0.7959170866666666,0.4481184244444444,0.4199608733333333
386,1778291947960,-0.0116657402222222,0.3847375,1.0765382,-0.5672912777777778,0.4333750388888889,0.4175313322222222
387,1778291947970,0.0388277333333333,0.4125057633333333,1.0842937333333331,-0.3867289299999999,0.3872731466666666,0.40770976
388,1778291947980,0.1039643888888888,0.4240588188888889,1.0434007555555551,-0.0968594033333333,0.2690344866666667,0.3724348288888889
389,1778291947990,0.1409119488888889,0.3997747244444444,0.9411136555555556,0.0925852444444444,0.1305474188888888,0.3170437244444444
390,1778291948000,0.15141976,0.37577528,0.8705411,0.1544342,0.05508423,0.28182983
391,1778291948010,0.1030157433333333,0.3520611666666666,0.7640904566666666,0.0704447426666666,-0.0178883868666666,0.2035319
392,1778291948020,0.0569566381111111,0.3366720666666666,0.7386540922222222,-0.021881104,-0.0019073485999999,0.1694336
393,1778291948030,-0.0047096761111111,0.3096096222222222,0.7833987277777777,-0.2459360733333333,0.1507873533333333,0.15524292
394,1778291948040,-0.03772545,0.2897459,0.8195323,-0.42668152,0.31448364,0.1619873
395,1778291948050,-0.05177221,0.2918339611111111,0.8484799211111111,-0.4536098822222222,0.3745473188888888,0.1756591788888889
396,1778291948060,-0.0764489666666666,0.2827091,0.93350658,-0.3798692421111111,0.4732632022222222,0.1821695955555555
397,1778291948070,-0.1177757599999999,0.2632662,1.0870184,-0.027740479,0.671875,0.19128418
398,1778291948080,0.052901114,0.18200819,0.9888813222222222,0.1657935268888889,0.6099718,0.1331075022222222
399,1778291948090,0.1846109739999999,0.160199857,0.90335436,0.23203888,0.515972915,0.0317031849999999
400,1778291948100,0.2637670533333333,0.1807334266666666,0.8097299333333334,0.1304626466666666,0.2704467833333333,-0.2240041099999999
401,1778291948110,0.2408666,0.1752014466666666,0.7643896055555556,0.0154673266666666,0.1285298706666666,-0.3770429799999999
402,1778291948120,0.2054788,0.16869283,0.7343568,-0.08366394,0.027923584,-0.48356628
403,1778291948130,0.1019437022222222,0.1821034188888889,0.7697444277777777,-0.3125135611111111,-0.2507731111111111,-0.65105184
404,1778291948140,0.058786514,0.1902251955555555,0.8311385222222223,-0.4021759,-0.3968878888888889,-0.7304738333333334
405,1778291948150,-0.0029465059999999,0.1921228166666666,0.8959625666666666,-0.33826192,-0.4782613,-0.75628154
406,1778291948160,-0.0732356503999999,0.177039894,0.95598442,-0.1360748292,-0.578320296,-0.7358246
407,1778291948170,-0.0586053974444444,0.1573177733333333,0.934971622222222,-0.0145924887777777,-0.6073303244444443,-0.6997646777777777
408,1778291948180,-0.0706736475555555,0.0878423355555555,0.7990720777777778,0.0303276909444444,-0.6393585222222222,-0.6404639333333333
409,1778291948190,-0.1020353057777777,0.0588805391111111,0.7545182811111111,0.0026245117,-0.6490631,-0.6172638
410,1778291948200,-0.12644108,0.026773652,0.74302053,-0.1733245833333333,-0.6559753333333334,-0.49440511
411,1778291948210,-0.09552669,-0.0012389877777777,0.8773331388888889,-0.3766632077777777,-0.5193888311111111,-0.3426615388888889
412,1778291948220,-0.071012214,-0.0139439294444444,0.9914292777777778,-0.4449598488888888,-0.3637457955555556,-0.2808770088888889
413,1778291948230,-0.0808261583999999,0.0439064244,1.07015498,-0.452780148,-0.1183441119999999,-0.11615906
414,1778291948240,-0.0572500955555555,0.0698902288888888,1.0865721444444445,-0.3917049844444444,-0.1209259022222222,-0.0403594988888888
415,1778291948250,-0.0186753816666666,0.1237185455555555,1.1133506444444443,-0.1606021461111111,-0.1872083911111111,0.04515754
416,1778291948260,-0.0093740703333333,0.1614937699999999,1.1210248,0.0207366943333333,-0.2199351,0.0932718933333333
417,1778291948270,-0.011488421,0.16393477,1.1016628,0.093185425,-0.2181549,0.1071167
418,1778291948280,-0.0378607716666666,0.1363424288888889,0.8116419222222222,0.3421562999999999,-0.2971089666666666,0.2168511266666666
419,1778291948290,-0.026132815,0.13281679,0.7477802,0.3397827,-0.31723022,0.23815918
420,1778291948300,-0.0186473834444444,0.0979979214444444,0.6726769944444445,0.167448255111111,-0.2372741666666666,0.2634802922222222
421,1778291948310,-0.0005599556666666,0.0576876913333333,0.6600811111111111,-0.0508117684444444,-0.1669684522222222,0.2987569177777778
422,1778291948320,-0.0173199086666666,0.0449291708888888,0.7129874266666667,-0.1262122288888889,-0.1370188433333333,0.3229539655555555
423,1778291948330,-0.082510225,0.023844773,0.8133089699999999,-0.32867432,-0.210968015,0.41498566
424,1778291948340,-0.0952283883333333,0.0221503891111111,0.87378086,-0.3754899755555556,-0.2869279644444444,0.4350501211111111
425,1778291948350,-0.0213189255555555,0.0604406313333333,1.0064535622222222,-0.4293399333333333,-0.0732201499999999,0.4732852555555555
426,1778291948360,0.0524543526666666,0.0915713933333333,1.0311711133333334,-0.4441409644444444,0.09083557,0.4865400555555556
427,1778291948370,0.1198149266666666,0.1119911066666666,0.9658045733333334,-0.4492865777777777,0.1572316486666666,0.4749382844444444
428,1778291948380,0.1393801866666666,0.1178887866666666,0.8848993166666667,-0.4667968733333333,-0.0727488206666666,0.4103698733333333
429,1778291948390,0.1131023777777777,0.1354064066666666,0.8258913966666667,-0.4632466588888888,-0.3559400777777777,0.3201802577777777
430,1778291948400,0.0633147279999999,0.1138890788888888,0.7702869222222222,-0.49556478,-0.6046803666666667,0.25377909
431,1778291948410,0.0561033456,0.0763300272999999,0.74478954,-0.57048492,-0.69353942,0.2378814699999999
432,1778291948420,0.0894701794444444,0.0747041166666666,0.7117943800000001,-0.7585635555555555,-0.5856747088888888,0.1839989588888889
433,1778291948430,0.1221327,0.0827854511111111,0.7122005722222222,-1.033457422222222,-0.3986562055555555,0.0859968411111111
434,1778291948440,0.1245729999999999,0.08034429,0.7555885,-1.1414642,-0.3246765,0.03894043
435,1778291948450,0.1645313555555555,0.0412816843333333,0.9280564666666664,-1.2757585111111112,-0.1049448661111111,-0.0919681088888889
436,1778291948460,0.1715543066666666,0.0131879895,0.9847186,-1.3209737,-0.0026194256666666,-0.15795898
437,1778291948470,0.0737141722222222,-0.0487353135555555,1.0383293444444446,-1.3088921666666666,-0.0112592909999999,-0.22482978
438,1778291948480,0.0073307511111111,-0.0909843044444444,1.0715209,-1.2385813666666667,-0.066182454,-0.2577362066666666
439,1778291948490,-0.007095881,-0.13198619,1.1125227,-1.1707611,-0.12335205,-0.2460174599999999
440,1778291948500,-0.007095881,-0.13198619,1.1125227,-1.1707611,-0.1233520499999999,-0.2460174599999999
441,1778291948510,0.009947852,-0.1742757944444444,1.1900247444444445,-0.8346184611111112,-0.4654201888888888,-0.2279697044444444
442,1778291948520,0.0495121671111111,-0.2567399722222222,1.4726156777777777,-0.0247090666666666,-0.7818552666666667,-0.1797943133333333
443,1778291948530,0.1123301906666666,-0.22419946,1.5719201333333332,0.5981174066666667,-0.12210252,-0.1826290555555555
444,1778291948540,0.109076224,-0.22289808,1.4212558,0.75257874,0.20368958,-0.1986084
445,1778291948550,0.0984999826666666,-0.1612324622222222,1.1296883333333332,0.6107737222222221,0.4160376644444444,-0.1562432177777777
446,1778291948560,0.1083960607142857,-0.1480938057142857,1.0732823857142857,0.4277430914285714,0.4789886485714286,-0.1315765371428571
447,1778291948570,0.1017947333333333,-0.15350404,1.1204954333333337,0.0771942166666666,0.6313934266666666,-0.1274108913333333
448,1778291948580,0.0525073862857142,-0.1555723157142857,1.218565642857143,-0.3125392371428571,0.8722991857142857,-0.1108790808571428
449,1778291948590,0.026706768,-0.15041183,1.2424837,-0.40750122,0.9648285,-0.09262085
450,1778291948600,-0.0450771991249999,-0.175763625,1.2908219375,-0.2979164125,0.8982448625,-0.08896446125
451,1778291948610,-0.0738047333333333,-0.1918205466666666,1.3066707333333334,-0.141723631,0.8131968166666667,-0.0794881183333333
452,1778291948620,-0.0584024995555555,-0.17457426,1.2955255555555556,0.1004536913333333,0.6464843733333333,-0.0706075033333333
453,1778291948630,-0.0272062190499999,-0.138636585,1.2409585499999998,0.39693908,0.417752074,-0.0658859250999999
454,1778291948640,0.0054464317222222,-0.0922588946666666,1.1193160333333334,0.5591668044444444,0.2525160022222222,-0.0541534421111111
455,1778291948650,0.022516435,-0.0436507802222222,0.9693564555555556,0.5518273277777778,0.0111694317777777,-0.0524936253333333
456,1778291948660,0.0311532311111111,-0.0271504118888888,0.9006136444444444,0.4596252466666667,-0.1348927806666666,-0.0427296953333333
457,1778291948670,0.0183674055555555,-0.0059042472222222,0.8604112777777778,0.2302415655555555,-0.2334849044444444,-0.0131395125555555
458,1778291948680,0.0126192202222222,0.007275447,0.8597061444444445,0.0311448837777777,-0.2685190866666667,0.0209520127777777
459,1778291948690,0.0053517229999999,0.0216889443333333,0.8888034333333333,-0.123260496,-0.27266439,0.050842285
460,1778291948700,0.0007953439999999,0.0388541733333333,0.9416015533333332,-0.2553473533333333,-0.2231886099999999,0.0869411905555555
461,1778291948710,0.013162066,0.04617611,0.97609586,-0.30151367,-0.18353271,0.10765076
462,1778291948720,0.0526257101,0.0371591159,1.07314468,-0.3325561529999999,-0.088668823,0.124758912
463,1778291948730,0.0668128902222222,0.0278583066666666,1.1778357777777777,-0.3159467933333333,0.02426317,0.1287858733333333
464,1778291948740,0.0986487833333333,-0.0216312216666666,1.2700215222222222,-0.1414235388888889,0.1866455088888888,0.1629299577777777
465,1778291948750,0.1380642944444444,-0.0437323547777777,1.2745365444444443,0.0654754633333333,0.28571574,0.1626892066666666
466,1778291948760,0.15276209,-0.036681753,1.2561513,0.11767578,0.30116272,0.15345764
467,1778291948770,0.1102281088888888,0.04323358,1.1613751555555554,0.248882711111111,0.14534166,0.0986582455555555
468,1778291948780,0.1028792111111111,0.0530231233333333,1.1494166222222222,0.2620188288888889,0.0989447697777777,0.0816158744444444
469,1778291948790,0.1259298515555555,0.0444272881111111,1.205441677777778,0.2018347811111111,0.2567189522222222,-0.0033654111111111
470,1778291948800,0.1344992444444444,0.0435597027777777,1.2179155888888888,0.0975019648888889,0.5164082777777778,-0.1322106277777777
471,1778291948810,0.12738055,0.04471245,1.1994077,0.043655396,0.5983734,-0.18637085
472,1778291948820,0.0386649288,-0.021244868,1.1852524,-0.1114654519999999,0.63064878,-0.27574463
473,1778291948830,-0.019787622875,-0.0680122385,1.1813019875,-0.13639640375,0.6023635725,-0.26799011375
474,1778291948840,-0.0451557471111111,-0.0970454815555555,1.1331464,-0.0617133226666666,0.5173543311111112,-0.20784505
475,1778291948850,-0.0464296463333333,-0.1032692839999999,1.0681457666666665,0.0683135993333333,0.3739573133333333,-0.1434020946666666
476,1778291948860,-0.038944907,-0.1014795,1.0247855,0.18159485,0.2297821,-0.103271484
477,1778291948870,-0.024081820656,-0.0983064187999999,1.0026857699999998,0.219465635,0.1789703338,-0.0927246089999999
478,1778291948880,0.0219336662222222,-0.0863470475555555,0.9543875333333334,0.2846306622222222,0.0404069691111111,-0.0911966953333333
479,1778291948890,0.0212015763333333,-0.0520570272222222,1.0372858222222223,0.1543138299999999,-0.0917477055555555,-0.1743469211111111
480,1778291948900,-0.0229457338888888,-0.0264041503333333,1.1458639555555556,0.1434275277777777,-0.1677941188888888,-0.1513841377777777
481,1778291948910,-0.0761233633333333,-0.02073702,1.2511885,0.22296651,-0.2163798,-0.1128590866666666
482,1778291948920,-0.1401077866666666,-0.0425524737777777,1.3631298666666667,0.4576212577777778,-0.3258717844444445,-0.0116509322222222
483,1778291948930,-0.1344536183333333,-0.0549446013333333,1.397541733333333,0.6327412933333334,-0.3635711666666666,0.0748189306666666
484,1778291948940,-0.0443688716666666,-0.0955806128888889,1.2715269444444444,0.9098273555555556,-0.4070078555555556,0.1847703755555555
485,1778291948950,-0.0050214526666666,-0.1292201166666666,1.1243196333333332,1.0656484333333336,-0.4998609766666667,0.2335306822222222
486,1778291948960,0.0182131756,-0.0884953772,1.0085548599999998,1.08036196,-0.700825499,0.238038637
487,1778291948970,0.0605220338888888,-0.0082218415555555,0.927527988888889,1.0493723555555556,-0.9585164388888888,0.2257198733333333
488,1778291948980,0.08357181,0.011032679,0.8903091000000001,1.0311432,-0.94573975,0.2051239
489,1778291948990,0.1248450222222222,0.0059201470888888,0.7884146277777778,0.9500732422222222,-0.5843743222222222,0.0746934655555555
490,1778291949000,0.1318416977777777,0.0196964365555555,0.7421526277777778,0.8802388400000001,-0.3314310633333333,-0.0285186766666666
491,1778291949010,0.1318145666666667,0.0395059006666666,0.6933146666666666,0.8106384,-0.15744019,-0.12510681
492,1778291949020,0.1270141631111111,0.0558845988888888,0.654970488888889,0.5919019944444445,-0.2339630122222222,-0.2454274533333333
493,1778291949030,0.114201374,0.06850745,0.6799307,0.39730835,-0.47969055,-0.27903748
494,1778291949040,0.110967635,0.060881169,0.7731002699999999,0.2023651104,-0.634777842,-0.361502076
495,1778291949050,0.1093204313333333,0.0612679486666666,0.8190842933333333,0.0893859862222222,-0.6302371666666667,-0.4129180933333333
496,1778291949060,0.1063915513333333,0.08095453,0.8685875,0.003697713,-0.4196675483333333,-0.4122009266666666
497,1778291949070,0.0672610313333333,0.12252605,0.9389573333333332,-0.0447201197555555,-0.0570034438888888,-0.3807203511111111
498,1778291949080,0.020239282,0.14611885,0.969871,0.0058135986,0.14723206,-0.34509277
499,1778291949090,-0.0179158121111111,0.1474878,1.009707011111111,0.1805301276222222,0.2755957711111111,-0.34000143
500,1778291949100,-0.014540179,0.14184763,1.0177068,0.249562076,0.299987791,-0.353025822
501,1778291949110,0.0602099108888888,0.1041131888888888,0.9822914733333334,0.2607777933333333,0.1591288233333333,-0.4556986466666666
502,1778291949120,0.070298098,0.0831238466666666,0.97193298,0.1925421833333333,0.1527998199999999,-0.4919772644444444
503,1778291949130,-0.0084382173333333,0.1124789966666666,0.9659668433333332,0.0993957499999999,0.2811025,-0.4295959533333333
504,1778291949140,-0.0658053188888889,0.1459012566666666,0.9793223222222224,0.10406494,0.4220123244444445,-0.3267991777777778
505,1778291949150,-0.0966644,0.1567341466666666,0.9952945333333332,0.1618804933333333,0.5342814,-0.2458445133333333
506,1778291949160,-0.0911865115555555,0.1086550466666666,1.016391,0.3014373777777778,0.6683857999999999,-0.1672549755555555
507,1778291949170,-0.0733572873333333,0.0473971256666666,1.0349528666666667,0.42217,0.7507069666666667,-0.1125132233333333
508,1778291949180,-0.1094241322222222,0.0142996056111111,1.0183165444444444,0.5363837333333333,0.7368587888888888,-0.040898642
509,1778291949190,-0.1425617455555555,0.0458098936111111,0.9900601888888888,0.6356336777777778,0.6364848,0.0559268528888888
510,1778291949200,-0.1656121359999999,0.1036026619999999,0.964356034,0.6846130300000001,0.552780168,0.1384338372
511,1778291949210,-0.1744926866666666,0.2056944777777777,0.8712317088888889,0.6227925611111111,0.4242011177777777,0.3122456833333333
512,1778291949220,-0.1350775244444444,0.2453944622222222,0.8123596333333333,0.5058492033333333,0.2344648555555555,0.4526231555555556
513,1778291949230,-0.0974381422222222,0.2690957911111111,0.8140415711111111,0.4355434833333333,0.0365617506666666,0.5565456844444445
514,1778291949240,-0.0524901303333333,0.29031517,0.85435164,0.4095679355555555,-0.0968356668888888,0.63591512
515,1778291949250,0.001202349,0.30170405,0.8947016,0.39837646,-0.1308136,0.6951599
516,1778291949260,0.078080615,0.2711563966666667,0.9232152833333332,0.4400380488888888,-0.0580766475555555,0.7197129988888888
517,1778291949270,0.15508124,0.24007939,0.93277395,0.5283356,0.083847046,0.7553406
518,1778291949280,0.160596804,0.29977625,0.90568393,0.62442324,0.1002532956,0.6948303360000001
519,1778291949290,0.1571010588888889,0.3839521866666666,0.8477210333333334,0.8141835666666667,0.0467376699999999,0.5715738933333333
520,1778291949300,0.1159092399999999,0.36515945,0.7870735,0.9054413,-0.10951233,0.5065918
521,1778291949310,0.0545153013333333,0.3019211211111111,0.6951986377777778,1.0808614333333333,-0.3979559977777777,0.504113088888889
522,1778291949320,0.0380000688888888,0.2702075888888889,0.6400013488888888,1.2023044333333337,-0.5894063288888889,0.5261942500000001
523,1778291949330,0.0401835511111111,0.2681466377777777,0.6017119688888889,1.1529473555555554,-0.5388675266666667,0.5621134222222222
524,1778291949340,0.0189778260999999,0.3095957866666666,0.57388912,0.7998047,-0.19063314,0.56536865
525,1778291949350,0.0018120783,0.34978402,0.56436986,0.5086365,0.04763794,0.52630615
526,1778291949360,-0.0707135696666666,0.4349589466666667,0.6800535666666667,-0.0682762952777777,0.2872026222222222,0.3719601077777777
527,1778291949370,-0.107404135,0.453508,0.7964683,-0.35743713,0.37573242,0.29408264
528,1778291949380,-0.0703746583333333,0.4720698177777777,0.9550648777777776,-0.3130459255555555,0.3395775677777777,0.2788102822222222
529,1778291949390,0.0286724891111111,0.5103192888888889,1.0311434777777777,-0.0793965666666666,0.2221018466666666,0.2995215444444444
530,1778291949400,0.080521606,0.52452904,1.0405265,0.048431396,0.16481018,0.3153839
531,1778291949410,0.1009952402222222,0.5309826977777777,1.0191579666666666,0.1311696373333333,0.1591288233333333,0.30810546
532,1778291949420,0.1411972799999999,0.5892583222222222,0.7926187666666666,0.3326297466666666,0.1908569366666666,0.2656080466666666
533,1778291949430,0.0172612502,0.61116908,0.663481682,0.056687928,0.192082215,0.229357913
534,1778291949440,-0.0450060802222222,0.6399538333333333,0.6699793866666667,-0.1977081288888889,0.1801995166666666,0.2074941
535,1778291949450,-0.0749303461111111,0.6495943955555555,0.7184521833333334,-0.4613630511111111,0.1624484555555555,0.1826392277777777
536,1778291949460,-0.076122845,0.64297724,0.79687637,-0.6035105399999999,0.0199279773333333,0.1806284566666666
537,1778291949470,-0.0579813226666666,0.63785158,0.8456606011111112,-0.6149292,-0.0894453253333333,0.19134182
538,1778291949480,0.0074258046666666,0.6217850111111111,1.0133816333333334,-0.4533674488888889,-0.2980584,0.2150099011111111
539,1778291949490,0.0306390728888888,0.6139484022222221,1.0871412555555555,-0.3467220777777778,-0.3280029266666667,0.2190348322222222
540,1778291949500,0.0889411615,0.63575798,1.0565731,-0.224700926,-0.090859986,0.223135376
541,1778291949510,0.1504839033333333,0.6640885999999999,0.9520560533333337,-0.1536153133333333,0.28571574,0.1962534566666666
542,1778291949520,0.18278193,0.6803584,0.83832496,-0.21469116,0.4604187,0.14759827
543,1778291949530,0.1779001188888888,0.6581093444444445,0.7747886933333333,-0.4444291822222222,0.6029883388888888,0.0901353643333333
544,1778291949540,0.1597579033333333,0.6137726466666666,0.7388036111111111,-0.8815375444444444,0.8636847377777778,-0.0017717148888888
545,1778291949550,0.13781419625,0.5672993025,0.8718216000000001,-1.1426697124999998,0.99804496875,-0.0443553931249999
546,1778291949560,0.0916265288888888,0.5310094511111111,1.0721043444444445,-1.3116235,1.049802988888889,-0.1177792044444444
547,1778291949570,0.06478064,0.50890934,1.1596259,-1.2714386,0.9594879,-0.19648743
548,1778291949580,-0.01223502852,0.4716356911111111,1.3534075444444444,-0.7999911777777778,0.4666951511111111,-0.4028540722222222
549,1778291949590,-0.0151640799555555,0.4590532822222222,1.3904503444444445,-0.4385681133333333,0.17332967,-0.5050557466666666
550,1778291949600,-0.0176043799555555,0.4443423544444445,1.2493717333333334,0.1315884044444444,-0.0228017144444444,-0.61950854
551,1778291949610,-0.027637435,0.4369120566666666,1.05647118,0.47739156,0.0250752799999999,-0.6778005
552,1778291949620,-0.028938813,0.43495947,0.88750154,0.60557556,0.20794678,-0.6902313
553,1778291949630,-0.0393519117777777,0.4570196366666667,0.7049064222222223,0.4424675799999999,0.3992241766666666,-0.6499887955555556
554,1778291949640,-0.056151096,0.4925571000000001,0.4309931,0.14590454,0.68252563,-0.58210754
555,1778291949650,-0.0471456117,0.5039424,0.410492201,-0.48606108,0.538719175,-0.613800045
556,1778291949660,-0.0329663461111111,0.5627235222222223,0.4558326944444444,-1.3296627444444444,0.1811472577777777,-0.6866845011111111
557,1778291949670,-0.04150826,0.6029928,0.5723026,-1.5942078,-0.08605957,-0.73817444
558,1778291949680,-0.1057766333333333,0.6057047733333333,0.7053411111111111,-1.5953860777777775,-0.4837629533333333,-0.5683186844444444
559,1778291949690,-0.30370692,0.6900808933333332,1.0210836,-1.4761352333333333,-0.8203887933333333,-0.2792154933333333
560,1778291949700,-0.3605990988888889,0.8302918666666667,1.2758386333333336,-0.8223707444444445,-0.6324259433333334,0.46694608
561,1778291949710,-0.0106479633333333,0.7856973,1.1371455888888888,-0.2123226583333333,-0.2057291672222222,0.9980418222222222
562,1778291949720,0.3193179433333333,0.7102560555555556,0.9706984777777776,0.0987464083333333,0.0719536683333333,1.0444353155555557
563,1778291949730,0.484802515,0.67206095,0.81965438,0.2066345249999999,0.281196595,0.71379088
564,1778291949740,0.44514287,0.7009819,0.77328306,0.20503235,0.39012146,0.5044708
565,1778291949750,0.1385112266666666,0.7627826722222222,0.8758690055555555,0.082814534,0.6756591888888889,0.1637590188888888
566,1778291949760,-0.0770187733333333,0.8048282466666667,1.0071314,0.0154639351111111,0.6931762888888888,0.073150635
567,1778291949770,-0.2022196466666666,0.6583127766666667,1.1224894666666667,0.0059967039999999,0.0746205666666666,0.0693105066666666
568,1778291949780,-0.2642103466666666,0.43890561,1.3194434666666668,0.0760718453333333,-1.0185869,0.0133243144444444
569,1778291949790,-0.20856632,0.38505033,1.4152768,0.21195984,-1.4394836,-0.20872498
570,1778291949800,-0.1270777577777777,0.5251662488888889,1.5227975555555555,0.654754638888889,-0.9739040944444444,-0.5157063822222222
571,1778291949810,-0.0819410227777777,0.5791843333333334,1.5279228555555555,0.86390686,-0.63627625,-0.60661316
572,1778291949820,0.0317907838888888,0.5227248666666666,1.2850576555555555,1.035707288888889,0.2090148922222222,-0.4748111300000001
573,1778291949830,0.0854025519999999,0.525748475,1.01715765,1.02449037,0.693450935,-0.25480652
574,1778291949840,0.059898134,0.56992275,0.9358257,0.9662272133333334,0.7459191333333333,-0.1484273261111111
575,1778291949850,-0.0900354975555555,0.616497588888889,0.9089388277777776,0.8570302388888889,0.6339450555555556,-0.0238511826911111
576,1778291949860,-0.1442569966666666,0.6345577133333333,0.9034882466666668,0.8333536799999999,0.5254058866666667,0.0096486411039999
577,1778291949870,-0.1832105333333333,0.6617162177777778,0.8645331666666667,0.8461405444444444,0.3123491088888889,0.0702531605555555
578,1778291949880,-0.1847293244444444,0.6642657333333334,0.8168069888888889,0.8598124166666667,0.0827789323333333,0.15098063
579,1778291949890,-0.16988273,0.65558815,0.7995201,0.85165405,-0.040786743,0.2088623
580,1778291949900,-0.0922449,0.6184232222222222,0.7114280222222222,0.6578810055555555,-0.2104102225555555,0.3235507488888889
581,1778291949910,-0.0611544071111111,0.5968509355555555,0.6733821533333333,0.5744934144444445,-0.2726101311111111,0.3572235055555555
582,1778291949920,-0.0376514098,0.548299136,0.700529884,0.345758058,-0.410974116,0.39645691
583,1778291949930,-0.026742544,0.5045153,0.7570537,0.17733765,-0.4828796399999999,0.41978455
584,1778291949940,-0.027963558,0.4536293,0.8358845,0.0343526206666666,-0.3706698977777778,0.4642859544444444
585,1778291949950,-0.0184992724444444,0.4552023622222222,0.8531038333333334,-0.0092061362222222,-0.3207787422222222,0.4672444633333332
586,1778291949960,0.0048361832222222,0.4738597733333334,0.9232422688888888,-0.1159142383333333,-0.1435275568888888,0.440256751111111
587,1778291949970,-0.0347148238888888,0.5287722388888889,0.9719590766666668,-0.1507788777777777,0.0801205106666666,0.3345014777777778
588,1778291949980,-0.0339011598888888,0.5434700388888889,0.9672948277777778,-0.0742001022222222,0.214818316,0.2540724033333333
589,1778291949990,-0.0448431053333333,0.5617468766666667,0.8686289333333332,0.0186004639999999,0.4426625533333334,0.1737060566666667
590,1778291950000,-0.0525988351111111,0.5359313755555556,0.7834125177777778,0.0223286946666666,0.5364074733333334,0.1273702
591,1778291950010,-0.0570425157999999,0.4952421,0.7292801680000001,-0.0355194092,0.5680145400000001,0.071444702
592,1778291950020,-0.0477320633333333,0.44545397,0.7905706333333334,-0.2346988255555555,0.514982438888889,0.036643135
593,1778291950030,-0.0111363755555555,0.4219432755555556,0.8599646611111111,-0.4265018055555555,0.481191,0.0475328235555555
594,1778291950040,0.0049175847777777,0.4254011622222222,0.9207490777777778,-0.5662282444444444,0.4378712966666666,0.0939280182222222
595,1778291950050,0.0052426702444444,0.4340106355555556,1.0065079555555556,-0.6144646555555556,0.3879258866666666,0.1423339811111111
596,1778291950060,0.008279565,0.43764412,1.0579768,-0.6104431,0.3661499,0.15985107
597,1778291950070,-0.0308233066444444,0.502726191111111,1.1782692,-0.1701219266666666,0.4437933977777777,0.1378377277777777
598,1778291950080,-0.0723540355555555,0.5401614911111111,1.1911091333333337,0.1884646977777777,0.5078243555555555,0.1200188533333333
599,1778291950090,-0.08690303,0.5032548733333333,1.0143719333333334,0.4811147066666666,0.6134694333333334,0.1371205633333333
600,1778291950100,-0.071625315,0.42562362,0.7233991280000001,0.576600646,0.72173005,0.1341751125
601,1778291950110,-0.0343759127777777,0.3750157222222222,0.5741741033333334,0.4392666288888889,0.7568070933333334,0.0811987985555555
602,1778291950120,-0.0624697798888888,0.34030606,0.45664633,-0.0412360333333333,0.4597184955555555,-0.0872361902222222
603,1778291950130,-0.107890986,0.33745876,0.43013918,-0.25784302,0.24098206,-0.15493774
604,1778291950140,-0.147143872,0.33302474,0.5046982999999999,-0.6600867266666667,-0.281241521111111,-0.1979047988888888
605,1778291950150,-0.1556857933333333,0.3173242,0.7396442466666666,-1.2601250222222222,-0.9246063111111112,-0.2207505966666666
606,1778291950160,-0.1405543783333333,0.3138808166666667,0.8066787033333332,-1.3806152,-0.9792938,-0.21459961
607,1778291950170,-0.0679065338888888,0.3107481888888889,0.9443402977777776,-1.5743798444444446,-0.6428409177777777,-0.1760084355555555
608,1778291950180,-0.0412635386666666,0.3081310933333333,1.01591694,-1.6139119666666666,-0.4564209000000001,-0.1874287933333333
609,1778291950190,-0.0302811499999999,0.3086462833333334,1.1330513555555557,-1.5193447444444446,-0.3250427222222222,-0.26329888
610,1778291950200,-0.0329931322222222,0.3051479433333333,1.191896488888889,-1.334877888888889,-0.2671000155555555,-0.3476375988888889
611,1778291950210,-0.04248507,0.2898672,1.2723807,-1.0424042,-0.23519897,-0.43670654
612,1778291950220,-0.005192187,0.296652308,1.30805007,-0.03412781,-0.115893554,-0.286929324
613,1778291950230,0.0210660808888888,0.3021246955555555,1.2989022555555556,0.4325815844444444,-0.0367058662222222,-0.1861911355555555
614,1778291950240,0.0869071733333333,0.2333006377777778,1.1059878555555556,0.76217143,0.1978352893333333,-0.0299479166666666
615,1778291950250,0.1174148986666666,0.1404638116666666,0.9651124,0.8166758133333334,0.4724934999999999,-0.0116628
616,1778291950260,0.115787916,0.098648615,0.8906746,0.7360687,0.6234131,-0.06599426
617,1778291950270,-0.0171972024444444,0.1456700094444444,0.8369415166666667,0.4553120844444444,0.5180681066666667,-0.0950469973333333
618,1778291950280,-0.0695616866666666,0.1754444366666666,0.8404666444444444,0.2654554622222222,0.3378584077777777,-0.0759853785555555
619,1778291950290,-0.0320145248,0.341510044,0.96076796,0.130729677,-0.077545165,0.002456665
620,1778291950300,-0.0099838,0.3603462533333333,0.9801897111111112,0.1316443566666666,-0.35634528,0.0087009005555555
621,1778291950310,-0.0021876286222222,0.2770952088888889,0.9064985444444444,0.1886393244444444,-0.5135938844444445,0.0110100638888888
622,1778291950320,-0.0193257255111111,0.1984546355555555,0.7960220777777778,0.1789957666666666,-0.5922478577777778,0.0390658905555555
623,1778291950330,-0.044070058,0.15588073,0.72849905,0.13845825,-0.61177063,0.06451416
624,1778291950340,-0.0500360024444444,0.1600568944444444,0.7575690277777778,0.0271911611111111,-0.48299323,0.0514933266666666
625,1778291950350,-0.0378058117,0.1823609266666666,0.8083056533333334,-0.1395924899999999,-0.196314491,-0.0075734466666666
626,1778291950360,0.0200565194499999,0.242276425,0.8693807299999999,-0.19499207,0.055099487,-0.09315491
627,1778291950370,0.0178658661666666,0.30287027,0.9519610555555555,-0.2155812611111111,0.2065955296666666,-0.3088124566666667
628,1778291950380,0.0013236727,0.33074707,0.9922039,-0.19232178,0.19943237,-0.3983612
629,1778291950390,0.0052834572222222,0.3683595022222222,1.0905580222222222,0.1581556586666666,0.1298353422222222,-0.4000057577777778
630,1778291950400,0.008998693,0.3566856377777777,1.0846326888888889,0.3417934933333333,0.1097700344444444,-0.37982855
631,1778291950410,-0.062699986,0.2867350866666667,0.9305377666666668,0.5006357933333333,-0.0723876966666666,-0.3017730733333333
632,1778291950420,-0.1210706853333333,0.19305764,0.7002290800000001,0.3486616511111111,-0.2776319722222222,-0.2008107511111111
633,1778291950430,-0.080313176,0.15490392,0.61952704,0.15336609,-0.2527771,-0.19755554
634,1778291950440,-0.0505506083,0.1085214078,0.668289814,-0.538208016,-0.0481353758,-0.300772096
635,1778291950450,-0.0630261076666666,0.0982426466666666,0.7459084533333332,-0.7108052666666667,0.0366872143333333,-0.32673984
636,1778291950460,-0.0732760616666666,0.1261187533333333,0.8787299111111111,-0.7980957,0.209198,-0.3193461066666667
637,1778291950470,-0.0659945664444444,0.1694657077777777,0.9717698277777777,-0.7702229666666667,0.40307618,-0.2735392233333333
638,1778291950480,-0.056883704,0.20420334,1.028811,-0.6967163,0.43218994,-0.23803711
639,1778291950490,-0.056883704,0.20420334,1.028811,-0.6967163,0.43218994,-0.23803711
640,1778291950500,-0.024423394,0.2312943,1.0843337,-0.5550435333333333,0.3320515933333333,-0.2025248233333333
641,1778291950510,-0.0030436692,0.214210056,1.06905626,-0.4842071499999999,0.28198242,-0.18476868
642,1778291950520,0.003521498,0.11463378,1.012703,0.0048183863333333,-0.2704688088888889,-0.1699778266666666
643,1778291950530,-0.0509448922222222,0.0985131166666666,0.9427001833333334,0.1182742666666666,-0.1715257408888889,-0.1088392455555555
644,1778291950540,-0.0772796414285714,0.1174764471428571,0.8716563214285714,0.0542166599999999,0.0750122092857142,-0.0709381114285714
645,1778291950550,-0.07884952,0.15661334,0.7981777,-0.077804565,0.2793274,-0.06864929
646,1778291950560,-0.106092135,0.1497181125,0.7553453875,-0.29365158,0.462554935,-0.10047531
647,1778291950570,-0.14089998,0.13511941375,0.7009050875,-0.889200215,0.727010725,-0.160196305
648,1778291950580,-0.1378340225,0.149183625,0.753194465,-1.1433334375,0.40522766,-0.15453148125
649,1778291950590,-0.1236941749999999,0.1474604,0.858520745,-1.22003175,0.009544375,-0.15093994
650,1778291950600,-0.0927600911111111,0.1390134533333333,0.9561370611111112,-1.1770358777777776,-0.2803548077777777,-0.1624552377777778
651,1778291950610,-0.0023502572222222,0.1075702211111111,1.0717522777777777,-0.9477064266666666,-0.6191101,-0.2590365966666667
652,1778291950620,0.0169033987,0.0711107216666666,1.1113437,-0.7162509444444445,-0.68480768,-0.3498246977777778
653,1778291950630,-0.0001804301222222,0.0453766183333333,1.1213223222222222,-0.5117848688888889,-0.6001213922222222,-0.3889448411111111
654,1778291950640,-0.0236776502222222,0.0488747857777777,1.0769035111111112,-0.3547736311111111,-0.55963305,-0.3974032999999999
655,1778291950650,-0.05127015,0.049349193,1.0352784,-0.289363101,-0.5916320899999999,-0.3891342279999999
656,1778291950660,-0.1698008166666666,0.0313300323333333,0.9098743466666668,-0.2744632333333333,-0.911290488888889,-0.33704122
657,1778291950670,-0.1993861655555555,0.012537647,0.8400738333333333,-0.3075527733333333,-1.0844574,-0.3215365911111111
658,1778291950680,-0.175291492,0.0239261743333333,0.8227048333333333,-0.3948974633333333,-1.3979441666666668,-0.30514018
659,1778291950690,-0.0892211382222222,0.0388140785555555,0.8288336111111111,-0.5461629277777778,-1.814461611111111,-0.2472619
660,1778291950700,-0.050172016,0.0282388679999999,0.8407655,-0.6163025,-1.9609375,-0.2135315
661,1778291950710,0.0041858407111111,-0.0254817787777777,0.905901288888889,-0.72353957,-2.057637533333333,-0.1488460977777778
662,1778291950720,0.080277406,-0.068286575,0.9665766,-0.8313073044444445,-2.0776943111111112,-0.0738610142222222
663,1778291950730,0.11169946,-0.074449202,1.07493805,-0.8780822799999999,-1.89035795,-0.03057098405
664,1778291950740,0.10065667,-0.071825184,1.132902,-0.89219666,-1.7489471,-0.0010070801
665,1778291950750,0.07502937,-0.05803628,1.1828111,-0.8576371933333333,-1.5046437222222222,0.0936923555444444
666,1778291950760,0.1056459822222222,-0.0482749077777777,1.2161121666666663,-0.6400858466666667,-1.06503805,0.2299855566666666
667,1778291950770,0.142756,-0.053399537,1.201971,-0.50231934,-0.85624695,0.26478577
668,1778291950780,0.1557324555555555,-0.070077052,1.150230111111111,-0.4240773511111111,-0.6997765422222222,0.2711724122222222
669,1778291950790,0.1452101222222222,-0.1527852555555555,1.0481059333333334,-0.31518046,-0.1789194713333333,0.2773895333333333
670,1778291950800,0.1224308233333333,-0.1732182722222222,1.0347504222222224,-0.2963019488888889,0.0630713564444444,0.2590382933333333
671,1778291950810,0.13287123,-0.17616045,1.0418688,-0.26742554,0.27186584,0.19181824
672,1778291950820,0.1145404564444444,-0.1677543877777777,1.0521734333333337,-0.26742554,0.27186584,0.19181824
673,1778291950830,-0.0196381936666666,-0.1081504027777777,1.0876025333333332,-0.0954403366666666,0.5598449777777778,0.1233927377777777
674,1778291950840,0.012848905,-0.0884088583333333,1.0960633333333334,-0.043355306,0.5935770866666668,0.1896769166666666
675,1778291950850,0.1420638311111111,-0.1205432166666666,1.1092145,-0.0131174724444444,0.6132270044444444,0.2814144533333333
676,1778291950860,0.2160536599999999,-0.1595240733333333,1.1180139333333334,0.0065290664444444,0.5747646888888889,0.2971547466666667
677,1778291950870,0.2433069,-0.18628788,1.1192344,0.046310425,0.4865265,0.2743683
678,1778291950880,0.32980106,-0.18399455,1.1020777000000002,0.131581117,0.5656753569999999,0.1376388605
679,1778291950890,0.4458754999999999,-0.16871771,1.0559019,0.2064480266666666,0.6877407466666666,0.0059763584444444
680,1778291950900,0.20743086,-0.1271462006666666,0.9531127666666666,0.17307536,1.40725708,-0.16754659
681,1778291950910,-0.0546329955555555,-0.0871612282222222,0.933222388888889,0.0045810277777777,1.6886037333333332,-0.1894989
682,1778291950920,-0.1989795111111111,-0.0661449215555555,0.9602862333333332,-0.13242764,1.6978980333333336,-0.15925259
683,1778291950930,-0.2377434666666666,-0.0627689433333333,1.0938394888888887,-0.4605322888888889,1.2694379755555556,-0.0224253353333333
684,1778291950940,-0.1473479777777777,-0.0693724433333333,1.2537646666666666,-0.5992499466666668,0.919552272222222,0.0474124485555555
685,1778291950950,-0.0895474317777777,-0.0599356364444444,1.3936776666666666,-0.4666239388888888,0.6543612977777777,0.0407833524444444
686,1778291950960,-0.0870251783999999,-0.0567925562,1.46179412,-0.1697326652,0.3727539039999999,0.0353240967999999
687,1778291950970,-0.08446152,-0.06316298,1.4459063,0.031921387,0.26281738,0.05065918
688,1778291950980,-0.0961763377777777,-0.1052896138888888,1.1335252444444446,0.3758833133333333,0.1926201699999999,0.1306169284444444
689,1778291950990,-0.09959276,-0.118685685,1.0257608,0.4132843,0.18078613,0.16731262
690,1778291951000,-0.0061458568888888,-0.0880426361111111,0.9003971199999999,0.3361206055555555,-0.0673641611111111,0.2427079922222222
691,1778291951010,0.0391134126666666,-0.0730467133333333,0.8593139999999999,0.2506612133333333,-0.3012491833333333,0.2651418033333333
692,1778291951020,0.0575805379999999,-0.07646348,0.8529678,0.17892456,-0.47488403,0.25520325
693,1778291951030,0.0782022808888888,-0.0781991722222222,0.9115550888888888,-0.031762016,-0.7464090877777778,0.2585059255555555
694,1778291951040,0.09306523,-0.08656695,0.96240336,-0.152264402,-0.8128906199999999,0.2402771
695,1778291951050,0.0877073577777777,-0.1064409822222222,1.076538522222222,-0.2187703466666666,-0.6850992933333333,0.14955648
696,1778291951060,0.0543664983333333,-0.1101022966666666,1.1671920333333334,-0.196757,-0.5460815466666666,0.1081899
697,1778291951070,-0.0009806138888888,-0.0912826055555555,1.2331959444444445,-0.0734252914222222,-0.2950337733333333,0.0985972066666666
698,1778291951080,-0.0287490508888888,-0.0772218417777777,1.2424431777777778,0.0247616244555555,-0.1393941233333333,0.1177113844444444
699,1778291951090,-0.0588910774444444,-0.0858050642222222,1.2019150666666667,0.1300523577777778,-0.05996704,0.1606258844444444
700,1778291951100,-0.0297663035555555,-0.0624431672222222,1.0975138555555557,0.2427893744444444,-0.3158755844444444,0.1941172288888888
701,1778291951110,0.0086321288888888,-0.0347834352222222,1.0404046111111112,0.2790069577777778,-0.579642408888889,0.1863691522222222
702,1778291951120,0.052759477,-0.0161811595,1.02679825,0.28279114,-0.74588928,0.168801878
703,1778291951130,0.0840602143333333,-0.0184183896666666,1.0276729333333332,0.2746259911111111,-0.8460116755555556,0.14008416
704,1778291951140,0.1072185244444444,-0.0327772747777777,1.0279039444444444,0.24604797,-0.88661194,0.09327698
705,1778291951150,0.1290884166666666,-0.057264268,1.0746947,0.124598185,-0.8287353433333333,-0.0194651279999999
706,1778291951160,0.1355154566666666,-0.0826058853333333,1.1488472666666665,0.0178375247777777,-0.6162719722222223,-0.1345231777777777
707,1778291951170,0.0953272433333333,-0.115633932,1.1942420666666669,-0.0451982279999999,-0.3801422111111111,-0.2173784055555555
708,1778291951180,0.0705146468888889,-0.1325684399999999,1.241358677777778,-0.0705295144444444,-0.2131296766666666,-0.2596910288888889
709,1778291951190,0.0716124367777777,-0.14130046,1.2913358888888888,-0.0534244128888888,-0.1363067603333333,-0.2692752444444444
710,1778291951200,0.1323835166666666,-0.1329759555555555,1.3138567111111112,0.133834836,0.064325968,-0.28134665
711,1778291951210,0.1692766333333333,-0.1170587033333333,1.2832003666666667,0.3084259,0.1580624055555555,-0.3036075166666666
712,1778291951220,0.1899128944444444,-0.1319320877777777,1.1347730111111112,0.4924214888888889,0.1733313711111111,-0.316864
713,1778291951230,0.2026718659999999,-0.165250656,0.96965198,0.6138229500000001,0.190109255,-0.31233215
714,1778291951240,0.20633273,-0.17896646,0.9143483,0.6289978,0.20954895,-0.3078003
715,1778291951250,0.1252646483333333,-0.1863430066666666,0.8623911555555556,0.5384606277777778,0.1873592833333333,-0.2972666377777778
716,1778291951260,0.0604539393777777,-0.1863163911111111,0.8449274577777778,0.4707031233333333,0.1314934658888888,-0.2874993111111111
717,1778291951270,-0.0322473890222222,-0.1562158488888889,0.8976304933333333,0.2692464211111111,-0.1883375372222222,-0.2148335688888888
718,1778291951280,-0.0589040377777777,-0.1289353013333333,0.9484219111111112,0.0885620104444444,-0.4071265322222222,-0.1207970495555555
719,1778291951290,-0.05102595,-0.096475676,1.0134355,-0.020812988,-0.39924622,-0.032974243
720,1778291951300,0.0050525622222222,-0.074334618,1.0420853666666663,-0.0198669432222222,-0.1619279644444444,0.0515458842222222
721,1778291951310,0.06319254,-0.07219227,1.0406479,-0.011230469,0.16108704,0.14601135
722,1778291951320,0.1123842866666666,-0.0916621277777777,1.0038228022222222,0.0001373291111111,0.4449768155555555,0.1507466633333333
723,1778291951330,0.14714923,-0.0946452711111111,0.9889086055555556,0.0297919376666666,0.7324744444444443,0.1376071533333333
724,1778291951340,0.17021248,-0.08525012,0.98378277,0.06335449,0.8513794,0.12683105
725,1778291951350,0.20242756,-0.07011784,0.98020319,0.1304626433333333,1.0420532,0.0991312633333333
726,1778291951360,0.1994717222222222,-0.0635551266666666,0.9950907333333334,0.1754387733333333,1.1224178444444446,0.0805477547777777
727,1778291951370,0.0715315527777777,-0.0690330116666666,1.0992896222222222,0.2940436555555555,0.8165164666666667,0.0397118463333333
728,1778291951380,0.0181909501777777,-0.0741852927777777,1.1523312444444445,0.3405626111111111,0.6355404333333333,0.0425499812222222
729,1778291951390,0.02072675478,-0.089153942,1.19750374,0.487857048,0.51922303,0.0714416496
730,1778291951400,0.0506516083333333,-0.0843540183333333,1.148683788888889,0.6250966333333333,0.5557624111111111,0.0791303822222222
731,1778291951410,0.0537025011111111,-0.0744974188888888,1.1009568111111112,0.6832750111111111,0.6260698166666666,0.0640377451111111
732,1778291951420,0.0522782438888888,-0.0841106755555555,0.9642176555555556,0.6267021888888888,0.6703423555555555,0.0370534263333333
733,1778291951430,0.0819448261111111,-0.07125728,0.8974004822222221,0.4731801355555556,0.5850609733333333,0.0046166316666666
734,1778291951440,0.1097403955555555,-0.0383771766666666,0.9038408322222222,0.3616214355555555,0.4371609111111111,-0.0419040266666666
735,1778291951450,0.0806157955555555,-0.0111502011111111,0.951025027777778,0.3883175311111111,0.2174767333333333,-0.0983632411111111
736,1778291951460,0.04732869,0.009934545,0.9808539,0.43832397,0.04496765,-0.13417053
737,1778291951470,-0.0234971335999999,0.0321674232,0.95072486,0.534197997,-0.400367743,-0.15637665
738,1778291951480,-0.0529790516666666,-0.0087363426666666,0.8782275166666667,0.5217692,-0.9054328,-0.1298489055555555
739,1778291951490,-0.0013739649999999,-0.0331970671111111,0.8780111500000001,0.4167276933333333,-1.0897843888888887,-0.1212683811111111
740,1778291951500,0.0337839833333333,-0.0050354526666666,0.9433508666666668,0.3607432066666666,-1.0771179166666665,-0.14482117
741,1778291951510,0.04403428,0.027017854,1.0135568,0.3493805,-0.99261475,-0.16825867
742,1778291951520,0.0540137602222222,0.1254680604444444,1.0572577444444446,0.5099962,-0.7651740277777778,-0.1511518633333333
743,1778291951530,0.07173497,0.16161561,1.0537057,0.58799744,-0.6858063,-0.1400299
744,1778291951540,0.0937408777777777,0.1828080288888889,0.9948875444444444,0.6875406933333333,-0.7167561888888889,-0.16375732
745,1778291951550,0.0808733015555555,0.2144004144444444,0.8156683588888889,0.8639509400000001,-0.9880523666666668,-0.2666151266666666
746,1778291951560,0.043668754,0.20908429,0.75937283,0.86442566,-1.1007233,-0.28649902
747,1778291951570,-0.090044741,0.1650931699999999,0.52283475,0.4568977325,-1.631832125,-0.1525421125
748,1778291951580,-0.07942833125,0.1655049724999999,0.50951832,0.2445793074999999,-1.7756462125,-0.08529281625
749,1778291951590,-0.027535812,0.17040147,0.6167817099999999,0.00102997,-1.69594575,-0.0207138065
750,1778291951600,0.0354923673333333,0.1917158133333333,0.7647006866666666,-0.1280517566666666,-1.4226125333333333,0.0163879396666666
751,1778291951610,0.1101468833333333,0.2698144,0.9344017555555556,-0.0694580090222222,-0.7862972844444445,0.0010036894444444
752,1778291951620,0.1306754746666666,0.3418113666666666,1.0114829,0.0617523181333333,-0.2375081399999999,-0.03314209
753,1778291951630,0.116276324,0.377606,1.0285667,0.18745422,0.11260986,-0.05053711
754,1778291951640,0.1054971801111111,0.3582166777777777,0.983484272222222,0.2680613177777777,0.3577456966666666,-0.0334930422222222
755,1778291951650,0.0822033752222222,0.3241299088888889,0.9005863388888888,0.2874721911111111,0.4501325822222222,-0.0204145643333333
756,1778291951660,0.0238330211777777,0.2596586422222222,0.7372439988888888,0.2227240586666666,0.3627777111111111,0.0017106798888888
757,1778291951670,-0.0008582528,0.2629939922222222,0.7443087666666667,0.0858374697777777,0.14345466,0.042260064
758,1778291951680,0.00854865428,0.265168808,0.7722835320000001,0.069746397,0.1071838367,0.0528472902
759,1778291951690,0.0711257596666666,0.2345477466666666,0.8684251933333332,0.0122121176666666,0.2679697656666666,0.1790313666666666
760,1778291951700,0.082840756,0.22494814,0.8960439599999999,0.0074157714999999,0.38479614,0.2131195
761,1778291951710,0.0646572353333333,0.2539906333333334,1.0653792,-0.0176086426666666,1.4450836466666666,0.3748575833333333
762,1778291951720,0.0519122005555555,0.2655423177777777,1.1504872555555556,-0.0375552705555555,2.1621823,0.4369964555555555
763,1778291951730,0.04391296,0.26594934,1.1936712,-0.04850769,2.6042633,0.4565276999999999
764,1778291951740,0.0307332626666666,0.2830341966666666,1.1554770666666667,-0.0169101290555555,3.470913377777778,0.39693536
765,1778291951750,0.0374857391111111,0.30998862,1.0815003666666667,0.0406188958333333,3.7410211111111114,0.3209465866666666
766,1778291951760,0.0691994433333333,0.3645626811111111,0.9755664444444444,0.1758524555555555,3.544718488888889,0.1957193977777777
767,1778291951770,0.0941473644444444,0.3950427566666666,0.9137390666666668,0.2886539,3.2607048888888888,0.1043395977777777
768,1778291951780,0.09699519,0.39969316,0.89238405,0.3270111,3.1262512,0.06930542
769,1778291951790,0.1268517066666666,0.4143365133333333,0.6852606299999999,0.41098531,1.2378251777777778,-0.1768934444444444
770,1778291951800,0.18928934,0.4120588333333333,0.5487921833333333,0.2740987133333333,0.1830902,-0.2767384799999999
771,1778291951810,0.0880054806666666,0.4012795111111111,0.6440145477777778,-0.17556763,-0.5008680444444445,-0.2598724333333334
772,1778291951820,-0.01934739728,0.418802872,0.77494303,-0.55120849,-0.96948852,-0.196377564
773,1778291951830,-0.046145003,0.45021358,0.8817667,-0.7404022,-1.1721039,-0.1362915
774,1778291951840,-0.0278946002222222,0.4635417311111111,0.9281512111111112,-0.7867990966666666,-1.2279120666666663,-0.1335703504444444
775,1778291951850,0.0002270926666666,0.4847472777777777,1.0360108777777777,-0.969668922222222,-1.4656372222222225,-0.1377207466666666
776,1778291951860,-0.0566132344444444,0.3998697844444444,1.043441055555555,-1.041336066666667,-1.6816559,-0.2183227566666666
777,1778291951870,-0.0322613888888888,0.3697557444444444,1.0432650888888888,-1.0347595133333334,-1.7558695333333334,-0.2389170333333333
778,1778291951880,-0.01673645,0.3671115,1.0512652,-0.98114014,-1.7579956,-0.25880432
779,1778291951890,-0.0302676704444444,0.3582175577777777,1.126624133333333,-0.8393486911111112,-1.6622416222222225,-0.2370215533333333
780,1778291951900,-0.047364462,0.36076692,1.249561,-0.6189575,-1.4506683,-0.18104553
781,1778291951910,-0.0397725686666666,0.3536077644444445,1.3145352222222222,-0.36968994,-1.1023254,-0.07611084
782,1778291951920,0.0600066708888888,0.3906911777777778,1.2776139333333332,-0.0454847545555555,-0.5239495122222223,0.0027787952222222
783,1778291951930,0.0935299919999999,0.429371114,1.14969352,0.208229065,0.156013485,0.0269622799999999
784,1778291951940,0.0905277,0.42117056,1.0793314,0.2503645122222222,0.3649597111111111,0.0187666148888888
785,1778291951950,0.0809420918888888,0.4069751566666666,1.0443636955555555,0.2295888238888889,0.4424370666666666,0.0057339135555555
786,1778291951960,-0.0122478168888888,0.3457566466666666,0.9424691266666668,-0.0239393433333333,0.7623613277777778,-0.0479363338888888
787,1778291951970,-0.0349184124444444,0.3496072022222222,0.980433411111111,-0.1375732388888889,0.9114973277777776,-0.0403611916666666
788,1778291951980,-0.0291292681111111,0.3582583422222222,1.026085877777778,-0.1683468277777778,1.0821787555555558,-0.0494130444444444
789,1778291951990,-0.0045195674444444,0.3686304933333333,1.0806729222222222,-0.094902888,1.203798088888889,-0.0948113327777777
790,1778291952000,0.0154070203,0.379326489,1.11404775,-0.0029129027,1.25026092,-0.139869688
791,1778291952010,0.0631533066666666,0.3930903333333333,1.1151803111111112,0.2956356466666666,1.243503122222222,-0.2299279099999999
792,1778291952020,0.0897956116666666,0.4033131566666667,1.0817719,0.4461313866666667,1.1775156333333334,-0.2692820233333333
793,1778291952030,0.1374269166666666,0.4487219366666666,1.0083653666666668,0.4895748533333333,1.0351240200000005,-0.3129492944444444
794,1778291952040,0.1581724066666666,0.5064279466666667,0.95278819,0.4082607722222222,0.8840959277777779,-0.4087049755555555
795,1778291952050,0.15508124,0.56662834,0.90129197,0.3413849,0.7752075,-0.48623657
796,1778291952060,0.055184976875,0.6986327775,0.78158163375,0.2720108075,0.22047043125,-0.80881692125
797,1778291952070,-0.1025221566666666,0.7944561066666667,0.6323002,0.2323761,-0.4034559455555555,-1.1350454
798,1778291952080,-0.4395658649999999,0.7488783,0.42318329,0.0396499649999999,-1.315383915,-1.2020874
799,1778291952090,-0.66206445,0.6548957999999999,0.3004360288888889,-0.2850545222222222,-1.8873748888888888,-0.8754696155555555
800,1778291952100,-0.66165745,0.6215413,0.29725084,-0.48420715,-1.967865,-0.56773376
801,1778291952110,-0.394207135,0.57335278,0.504174307,-0.826690675,-1.85840605,-0.01379393
802,1778291952120,-0.0793501922222222,0.535186488888889,0.7494474033333334,-1.182310311111111,-1.630582988888889,0.5536414444444444
803,1778291952130,0.3757617911111111,0.4377796311111111,1.0257742666666667,-1.1272057222222225,-0.5354885555555556,0.4448767744444444
804,1778291952140,0.5399179366666667,0.2709121966666666,1.2269040999999998,-0.8645019666666667,0.3522898333333333,0.2601725266666667
805,1778291952150,0.42757115,0.15221925,1.3597525,-0.5917969,0.4257965,0.28076172
806,1778291952160,0.1661310299999999,0.2542346811111111,1.4038864999999998,-0.0875057706666666,0.2928738066666667,0.4245147744444444
807,1778291952170,0.0167136366666666,0.33980349,1.3898670777777775,0.29912482,0.1734449622222222,0.5279100244444445
808,1778291952180,-0.0157188508,0.3373631833333333,1.2651268555555557,0.5486365444444445,0.1201883977777777,0.5503912999999999
809,1778291952190,-0.0113530986222222,0.314760671111111,1.1628934888888889,0.6397790000000001,0.1465301544444444,0.5021582677777778
810,1778291952200,-0.0601781113333333,0.3687384933333333,1.0822193,0.6094767333333333,0.3048960333333333,0.3528493266666667
811,1778291952210,-0.0761810622857142,0.4358133914285714,1.0658555857142855,0.4816938228571428,0.4436798,0.2094682985714285
812,1778291952220,-0.0594455,0.45192146,1.0857989,0.40316772,0.4881134,0.15133667
813,1778291952230,-0.0700022175,0.45881668,1.1425418,0.410095215,0.598373425,0.095672605
814,1778291952240,-0.07921504,0.4742528,1.1535239,0.4559021,0.64045715,0.0852813699999999
815,1778291952250,-0.06652349225,0.50173960125,1.0589523125,0.62640762375,0.73553084375,0.13102149875
816,1778291952260,-0.06261858,0.51147115,1.0083104,0.69984436,0.7874603,0.16038513
817,1778291952270,-0.045748950125,0.52567186625,0.9238519875,0.7626953,0.90037537,0.23176575
818,1778291952280,-0.0040101258571428,0.5507647285714286,0.796660742857143,0.6809779714285715,0.9699249371428572,0.2631814171428571
819,1778291952290,0.0056227141111111,0.5671437111111111,0.7271020888888889,0.4859687,0.9303283888888888,0.2364366333333333
820,1778291952300,-0.008369953,0.5663846577777778,0.7301396888888889,0.3330383266666666,0.8558146333333334,0.2065480533333333
821,1778291952310,-0.0293185128888888,0.5594156388888889,0.7660026,0.1372646751111111,0.7344902955555556,0.1661868666666666
822,1778291952320,-0.040165924,0.5552799,0.7893911,0.055892944,0.68626404,0.1454773
823,1778291952330,-0.0512568433333333,0.557883011111111,0.7980144222222223,-0.0311652282222222,0.5851186088888889,0.0981326643333333
824,1778291952340,-0.0626460616666666,0.5600113888888889,0.8110581055555556,-0.1092868366666666,0.4327884333333333,0.0352766250666666
825,1778291952350,-0.07726142,0.547103,0.8219727,-0.12628174,0.32673645,-0.0074005127
826,1778291952360,-0.1200271633333333,0.5176004433333333,0.8770889311111111,-0.1329006577777777,-0.1031680677777777,-0.1283620169666667
827,1778291952370,-0.13071074,0.5019535,0.91654456,-0.13212585,-0.21124268,-0.15068054
828,1778291952380,-0.08938394,0.4936551,1.13391864,0.1079728855555555,-0.6063283222222222,-0.1116841633333333
829,1778291952390,-0.0734659922222222,0.5017767044444444,1.2024578333333331,0.21568298,-0.6421356,-0.088897705
830,1778291952400,-0.0691674733333333,0.5111865266666666,1.1859028333333332,0.4576772,-0.58869934,-0.0652821859999999
831,1778291952410,-0.0611139633333333,0.5196061133333333,1.0825449233333333,0.6822713333333333,-0.5015207933333333,-0.0695444753333333
832,1778291952420,-0.05005069,0.52440614,0.98500377,0.7366028,-0.4834137,-0.09794617
833,1778291952430,-0.0815606324444444,0.4998923622222222,0.8765879177777777,0.620134151111111,-0.6504194555555556,-0.0970018188888888
834,1778291952440,-0.12082596,0.4733988599999999,0.7651077,0.44152832,-0.8668976,-0.08303833
835,1778291952450,-0.1051394288888888,0.4419696311111111,0.7897578333333334,0.1539001472222222,-0.9331241355555556,0.0201246472222222
836,1778291952460,-0.1037020344444444,0.4195574088888888,0.8489409711111111,-0.1230180527777777,-0.8968471977777779,0.1443515361111111
837,1778291952470,-0.1349005433333333,0.4187700033333333,0.9522588133333332,-0.3352406822222222,-0.6763458333333333,0.2938995333333333
838,1778291952480,-0.1220065333333333,0.4515559133333333,1.036052,-0.4030659977777777,-0.4721052555555556,0.3810780777777778
839,1778291952490,-0.0955673,0.4618062,1.0807966,-0.40431213,-0.2181549,0.4469451999999999
840,1778291952500,-0.0781032555555555,0.4475691733333333,1.0845379555555554,-0.3244137233333333,0.0236629928888888,0.4597252755555556
841,1778291952510,-0.0705378044444444,0.4266475911111111,1.0629256222222223,-0.17645264,0.3561520022222222,0.46007452
842,1778291952520,-0.06941219,0.4005470866666666,1.0053410333333332,-0.1115366633333333,0.5159962966666667,0.4597218866666666
843,1778291952530,-0.039718476,0.3409973666666667,0.9407071666666664,-0.1129608133333333,0.6974436433333334,0.4710896866666666
844,1778291952540,-0.019542448,0.2907227,0.9150809,-0.15769958,0.78266907,0.47250366
845,1778291952550,0.0086596096666666,0.2682826555555555,0.9652349111111111,-0.2679528122222222,0.932452728888889,0.4664137088888889
846,1778291952560,0.0690501234444444,0.25670298,1.0582752888888889,-0.3710445811111111,1.1115366555555557,0.4075893844444444
847,1778291952570,0.0977876779999999,0.31000151,1.17109725,-0.33426667,1.21596525,0.190483095
848,1778291952580,0.08316532,0.35787796,1.2124644666666666,-0.251352955,1.21223955,0.0395711283333333
849,1778291952590,0.06990578,0.37968096,1.216858,-0.09111023,1.1603088,-0.1224517799999999
850,1778291952600,0.1195403975,0.311558485,1.07002642,0.133930205,0.937126155,-0.4131279
851,1778291952610,0.14478467125,0.272021745,0.960871465,0.250181195,0.72000694,-0.6104660025
852,1778291952620,0.096674962625,0.2430242125,0.7788061625,0.2110290554999999,0.2597465575,-0.7893028375
853,1778291952630,0.028937926,0.1890372171428571,0.5768879428571428,-0.0926339271428571,-0.5833958071428571,-0.9201049757142856
854,1778291952640,-0.01917692,0.12732612,0.4791944,-0.4533081,-1.1023254,-0.89157104
855,1778291952650,-0.01917692,0.12732612,0.4791944,-0.4533081,-1.1023254,-0.89157104
856,1778291952660,-0.0980884842222222,0.1331285622222222,0.6724343488888889,-0.87568665,-1.4986115,-0.8095398
857,1778291952670,-0.1257079433333333,0.14030101,0.8750549566666667,-1.4561360444444444,-1.7431420111111111,-0.3801829
858,1778291952680,-0.12090788,0.1512429566666666,0.9599463,-1.4354858,-1.5341186333333334,-0.2026977566666666
859,1778291952690,-0.0938580533333333,0.1579136777777777,1.0033210666666668,-1.2656911111111109,-0.9449615333333332,0.0049794522222222
860,1778291952700,-0.0401113093333333,0.1413175666666666,0.9588481555555556,-1.144719466666667,-0.4286651511111111,0.1084272611111111
861,1778291952710,0.004496754,0.1258609,0.91227335,-1.0855408,-0.10258484,0.1539917
862,1778291952720,-0.0228373695555555,0.0560060976444444,0.9110269233333332,-1.0059984177777777,0.22600132,0.1558837888888889
863,1778291952730,-0.08169699,-0.0001546790444444,0.9599063777777778,-0.9318457688888888,0.3238949311111111,0.1494344033333333
864,1778291952740,-0.1130441322222222,-0.0030284258888888,1.0832901555555556,-0.5845760755555556,0.2237565777777777,0.20317247
865,1778291952750,-0.1028209688888888,0.02253026,1.1754761666666669,-0.1070963533333333,0.1316019699999999,0.2899932866666666
866,1778291952760,-0.0594455,0.044833772,1.1818359,0.18798828,0.15148926,0.35533142
867,1778291952770,-0.0145661015555555,-0.0029746777777777,1.0746943222222225,0.4436475888888889,0.3792215933333333,0.4861263622222222
868,1778291952780,0.022923958,-0.04705493,0.9775595,0.6288825,0.6279601933333334,0.6034257599999999
869,1778291952790,0.0435735272222222,-0.0874322166666666,0.8356536222222223,0.4772593111111111,0.8659939166666667,0.6421864833333334
870,1778291952800,0.0573358166666666,-0.1094925616666666,0.7217059666666666,0.175374339,1.0283915,0.65502421
871,1778291952810,0.07930059,-0.108191185,0.6978695,-0.059692383,0.9797363,0.63868713
872,1778291952820,0.1086830466666666,-0.067270882,0.75617245,-0.3254208073333333,0.6635928622222222,0.5241088955555555
873,1778291952830,0.1116660222222222,-0.015557258,0.8702018455555556,-0.5075192077777778,0.2558881977777777,0.3933207255555555
874,1778291952840,0.1087915866666666,0.0372681533333333,1.0302346666666666,-0.3810526533333333,-0.2866923,0.2436574266666666
875,1778291952850,0.1118013433333333,0.0580948726666666,1.1883033666666667,-0.0369618733333333,-0.7376556400000001,0.0613148993333333
876,1778291952860,0.10919755,0.040685438,1.2405317,0.23432922,-0.91804504,-0.056930542
877,1778291952870,0.0319136628888888,-0.0415765270888888,1.1435860999999998,0.6671193577777778,-1.0806087599999998,-0.2496863457777778
878,1778291952880,-0.0041172286,-0.096647084,1.06092938,0.7899673700000001,-1.1232635199999998,-0.3303878759999999
879,1778291952890,-0.0224723636666666,-0.1596464333333333,0.8508125266666666,0.5729014133333333,-1.1596730333333332,-0.4074045799999999
880,1778291952900,-0.0445188855555555,-0.1685405677777777,0.7605113888888889,0.2848680288888889,-1.1931067333333334,-0.4338005888888889
881,1778291952910,-0.06322987,-0.16115054,0.7308182,0.05909729,-1.2147064,-0.4414978
882,1778291952920,-0.0870519988888888,-0.0698865983877777,0.8933865833333334,-0.3017493344444444,-1.2823605,-0.3955705444444444
883,1778291952930,-0.0483279624444444,0.00829321791,1.0719550333333332,-0.3173726366666666,-1.2881605111111112,-0.3756256133333334
884,1778291952940,0.0271001183333333,0.0713957133333333,1.1989602222222222,-0.0231221522222222,-1.1617431777777776,-0.3465118355555556
885,1778291952950,0.074637058,0.1038551611111111,1.2233789444444445,0.25551012,-1.0320214555555554,-0.3272230377777778
886,1778291952960,0.0276554077777777,0.0577957075555555,1.0504648111111112,0.513777,-0.8026377222222222,-0.2734781933333333
887,1778291952970,-0.0273930591111111,0.0281972178888888,0.85341598,0.4792734888888889,-0.6252695755555555,-0.1673702666666666
888,1778291952980,-0.041629583,0.018231219,0.74277633,0.3697306322222222,-0.4893239355555555,-0.0745730952222222
889,1778291952990,-0.0160178392222222,-0.0050631042777777,0.5246029722222222,-0.1604156488888889,-0.19129096,0.1254136802222222
890,1778291953000,-0.0016321670222222,-0.013252627,0.4463688888888888,-0.5233205177777778,-0.0216776511111111,0.2198689744444444
891,1778291953010,-0.0012790830666666,-0.0115034573333333,0.5002653,-1.0860748333333332,0.2986806333333333,0.33242798
892,1778291953020,-0.0184852716666666,-0.019068561,0.6425505433333334,-1.5059662,0.6654815833333333,0.42208354
893,1778291953030,-0.017101975,-0.034362607,0.77987343,-1.708725,0.91474915,0.46931458
894,1778291953040,-0.0419553604444444,-0.0466335816666666,1.0711552155555557,-1.6192406777777777,1.1818406777777777,0.5234663111111111
895,1778291953050,-0.0426468366666666,-0.0664973133333333,1.1907838666666666,-1.4322917,1.2362874,0.5596822
896,1778291953060,-0.0036784242222222,-0.09347991,1.2688554444444444,-1.1254934,1.1750335666666667,0.5918172333333334
897,1778291953070,0.0502990436666666,-0.1021301866666666,1.2564354333333334,-0.7483876733333333,1.0022837333333332,0.5657247000000001
898,1778291953080,0.099679865,-0.12661684,1.1879363,-0.45863342,0.8108978,0.5156555
899,1778291953090,0.1793511672222222,-0.0967331844444444,1.0196993977777775,-0.3350643533333333,0.5812767866666666,0.3738505044444444
900,1778291953100,0.18794752,-0.0743480966666666,0.8667572566666667,-0.3894568555555555,0.40107049,0.1868930406666666
901,1778291953110,0.0862025644444444,-0.1100895022222222,0.7614603944444444,-0.7535976888888888,0.1621517644444444,-0.071968925
902,1778291953120,0.02695097,-0.14479983,0.7643751,-0.9082667166666668,0.0898920723333333,-0.1536178566666666
903,1778291953130,0.02695097,-0.14479983,0.7643751,-0.9566498,0.074798584,-0.18157959
904,1778291953140,-0.2056973349999999,-0.34895265,1.009165125,-1.1185683875,-0.0042419433124999,-0.2745208725
905,1778291953150,-0.24163482,-0.3644502,1.0831143,-1.0951385,-0.033340454,-0.26519775
906,1778291953160,-0.1919938259999999,-0.291086682,1.30833024,-0.7303894059999999,0.092587278,-0.144290158
907,1778291953170,-0.1348293225,-0.22693929,1.465978775,-0.498987215,0.1885185225,-0.07491493
908,1778291953180,-0.09471181,-0.20154199,1.4784864,-0.28553772,0.2947693,-0.02178955
909,1778291953190,0.0004702588666666,-0.2040649066666666,1.2078682333333337,0.2966410333333333,0.5451151333333333,0.040547689
910,1778291953200,-0.0015092875444444,-0.2129460766666666,1.1215668111111112,0.3590799977777777,0.5411512444444444,0.047712538
911,1778291953210,-0.0469450115555555,-0.2247139577777777,1.0059516222222222,0.3697950555555556,0.3384501111111111,0.0935770688888888
912,1778291953220,-0.0774247406666666,-0.2257440033333333,0.9716208333333332,0.3520406,0.0357309999999999,0.1619923933333333
913,1778291953230,-0.0677032933333333,-0.21943932,0.9984272,0.3467102,-0.186203,0.21418762
914,1778291953240,-0.0299555456666666,-0.2236700966666666,1.0309678666666668,0.3772498222222222,-0.413581,0.2631869844444444
915,1778291953250,0.011208443,-0.23522177,1.0379632,0.39997864,-0.54733276,0.2866211
916,1778291953260,0.0535664879999999,-0.2312766755555555,1.0461396555555558,0.3184814522222222,-0.479265,0.2447238455555555
917,1778291953270,0.0365905029999999,-0.2102067933333333,1.0405264666666667,0.1302795406666667,-0.27870178,0.1852467866666666
918,1778291953280,-0.0107327922999999,-0.178113142,1.03488838,-0.1437438952,-0.088406372,0.1465362579999999
919,1778291953290,-0.0113672707222222,-0.1826958633333333,1.0912771222222224,-0.2285393588888888,-0.0535176607222222,0.1320393906666666
920,1778291953300,-0.013807571,-0.19117038,1.1615116111111112,-0.3371955011111111,0.0054287380555555,0.0770060224444444
921,1778291953310,-0.0228373723333333,-0.1569207933333333,1.2474865666666668,-0.2278340633333333,0.0659179686666666,0.0343322756666666
922,1778291953320,-0.020193829,-0.1257494155555555,1.2593506888888888,-0.0963948551111111,0.1374053955555555,0.027052138
923,1778291953330,0.0225166076666666,-0.1036484622222222,1.1914215222222222,0.0940653486666666,0.2475433366666666,0.0501352949999999
924,1778291953340,0.0836941724444444,-0.092963854,1.0857313,0.1484612377777777,0.2598622644444444,0.0575273293333333
925,1778291953350,0.1110283,-0.08732351,1.0358897,0.15603638,0.24897766,0.05491638
926,1778291953360,0.1110283,-0.08732351,1.0358897,0.1252610955555555,0.21014574,0.0241546626666666
927,1778291953370,0.0136486058,-0.156806842,1.002893404,0.0047561637999999,0.0664855964,0.00543060312
928,1778291953380,-0.027637953,-0.16485246,1.0301133666666666,-0.0671522344444444,-0.1170230453333333,0.049835205
929,1778291953390,-0.0227160475111111,-0.1447445266666666,1.044675,-0.1034274633333333,-0.2634379077777777,0.0885416666666666
930,1778291953400,-0.0039644505777777,-0.1267383304444444,1.054098166666667,-0.1120656355555555,-0.3045688199999999,0.0983039011111111
931,1778291953410,0.0081584138888888,-0.117668264,1.0884018333333332,-0.1197645411111111,-0.2892337344444444,0.1124555811111111
932,1778291953420,0.011494124,-0.1069297333333333,1.1169567666666669,-0.0971628833333333,-0.2330729166666666,0.1286112466666666
933,1778291953430,0.0344211925555555,-0.0982652833333333,1.1025849222222222,0.0042249894444444,-0.1237674288888889,0.1800910088888888
934,1778291953440,0.0424892193333333,-0.1057496766666666,1.0825449,0.0669623478888888,-0.07807922,0.2121683755555555
935,1778291953450,0.035737608,-0.11843993,1.0745717,0.100097656,-0.07807922,0.23495483
936,1778291953460,0.0290665319999999,-0.1239178144444444,1.039916011111111,0.0645887585555555,-0.1337059844444444,0.2512919077777777
937,1778291953470,0.0204428701111111,-0.1319312255555555,0.99658275,-0.0124087864444444,-0.2486300977777777,0.2769215888888888
938,1778291953480,0.0165373533333333,-0.1463853366666666,1.0133541333333334,-0.0969153522222222,-0.3868882888888889,0.2601131888888889
939,1778291953490,0.0229239574999999,-0.15114522,1.07280245,-0.139694216,-0.4183227560000001,0.196929932
940,1778291953500,0.0271951734444444,-0.1690288055555555,1.1098788888888889,-0.0870937757777777,-0.3085242377777777,0.13180542
941,1778291953510,0.0218391297777777,-0.1964578088888889,1.1039404333333334,-0.023417155052,-0.1859063011111111,0.0418463813333333
942,1778291953520,0.0223947651111111,-0.1984508277777777,1.0731896333333333,-0.0004594591039999,-0.13323805,-0.0315399173333333
943,1778291953530,0.0279269177777777,-0.26435984,1.020595011111111,-0.0410512287777777,-0.1654849577777777,-0.1283060755555555
944,1778291953540,0.05831211,-0.3012809533333333,1.0318217333333335,-0.07265218,-0.16506958,-0.13824972
945,1778291953550,0.1342676588888889,-0.3222972688888889,1.0999406444444444,-0.0165439166666666,-0.1273125577777777,-0.1207360177777777
946,1778291953560,0.1978305588888888,-0.3143516066666666,1.1463106555555551,0.1114112027777777,-0.0749969498444444,-0.1202629944444444
947,1778291953570,0.25136092,-0.2931865,1.1671915,0.2982483,0.0066070557,-0.15174866
948,1778291953580,0.22705022,-0.28341026,1.0959948666666666,0.4005127,0.0737202971333333,-0.2140655533333333
949,1778291953590,0.1692088866666666,-0.2881291,1.030207688888889,0.6074676477777778,0.2148725744444444,-0.3423088911111111
950,1778291953600,0.0997878811111111,-0.3020531511111111,1.0101008,0.6252187122222223,0.3308800566666666,-0.3843248111111111
951,1778291953610,-0.008316895,-0.3365053,1.0018429,0.6194153,0.542984,-0.4303131
952,1778291953620,-0.026009934,-0.34407246,1.0023313,0.6107910139999999,0.56167448,-0.4288711559999999
953,1778291953630,-0.0629393915,-0.32158791,1.0348976125,0.5381221825,0.441648475,-0.286828995
954,1778291953640,-0.0580768927777777,-0.2924672111111111,1.0510206777777775,0.52780152,0.3591630733333333,-0.2394460033333333
955,1778291953650,0.07094092,-0.2629232449999999,1.010019025,0.51242829375,0.0062809012499999,-0.1984138475
956,1778291953660,0.1866445833333333,-0.2564959366666666,0.9711319333333334,0.48430888,-0.1817626933333333,-0.22062683
957,1778291953670,0.20462331,-0.26267827,0.9634035,0.4516449,-0.29858398,-0.26145935
958,1778291953680,0.0753005402222222,-0.2582449122222222,1.0363767555555556,0.4837748155555556,-0.3912048222222222,-0.1938154411111111
959,1778291953690,0.030855106,-0.2615801,1.0754257,0.5278015,-0.394989,-0.15333557
960,1778291953700,-0.0351487903333333,-0.2334465011111111,1.1081703222222223,0.8260226788888888,-0.2968122688888888,-0.0449812138888888
961,1778291953710,-0.0450468685,-0.2091084,1.0593791,1.0790787,-0.2045745849999999,0.018966675
962,1778291953720,-0.0307695569999999,-0.20361695,1.0056257,1.1616364,-0.17074585,0.0288238529999999
963,1778291953730,-0.0125461149333333,-0.17912978,0.8876648466666667,1.1315782666666665,-0.18921407,0.0004136830346666
964,1778291953740,-0.0062414305333333,-0.1492328133333333,0.77336498,1.025410988888889,-0.2556169277777778,-0.0444505483333333
965,1778291953750,-0.0273666173333333,-0.1192409755555555,0.7315224511111111,0.7630530333333333,-0.3533291255555555,-0.0726759183333333
966,1778291953760,-0.027189816,-0.0936555011111111,0.7042284066666666,0.5334252111111111,-0.3817376011111111,-0.0551588272222222
967,1778291953770,-0.020275056,-0.09074079,0.70409274,0.39730835,-0.38912964,-0.030303955
968,1778291953780,0.0463042808,-0.0832237044,0.7857554440000001,0.260531615,-0.407186891,-0.0286544801
969,1778291953790,0.08796435,-0.068897866,0.84711164,0.18159485,-0.42907715,-0.042556763
970,1778291953800,0.1128588644444444,-0.024587406,0.8917191833333332,0.2817331966666667,-0.5211656344444444,-0.1441056998888888
971,1778291953810,0.1060249866666666,0.0091200163333333,0.8778620066666667,0.3685557066666666,-0.61904908,-0.2366078699999999
972,1778291953820,0.0437230216666666,0.0360343487777777,0.8185290111111111,0.3781382244444444,-0.7272339000000001,-0.2910546188888889
973,1778291953830,0.0039279849999999,0.035600211,0.7862595333333333,0.3283030177777777,-0.7941741888888889,-0.29295349
974,1778291953840,-0.024790475,0.026163923,0.7612036,0.22846985,-0.8658447,-0.2726593
975,1778291953850,-0.0464033783333333,0.0099746392222222,0.7807812844444445,0.0479024246666666,-0.94662475,-0.2474416066666666
976,1778291953860,-0.0561250018522222,-0.015624834,0.812494618888889,-0.1593577088888889,-1.0520867333333332,-0.20707363
977,1778291953870,0.1071504303688888,0.0055534104444444,0.890797011111111,-0.21617296,-1.0911492444444444,-0.1796145955555555
978,1778291953880,0.209066554,0.057329494,0.95395926,-0.1585510259999999,-1.08869326,-0.2608215399999999
979,1778291953890,0.2121092544444444,0.0881674222222222,0.9814238777777778,-0.099043107,-1.0672946888888888,-0.3076172
980,1778291953900,0.100859225,0.1385921111111111,1.0112253777777778,0.1540154338888889,-0.9120008488888888,-0.3755628888888889
981,1778291953910,0.0050256013333333,0.1549443666666666,1.0077410466666668,0.3481241866666666,-0.7548777266666666,-0.3671010333333333
982,1778291953920,-0.1036071588888888,0.1731135355555555,0.9619937444444444,0.4756028933333333,-0.5215810155555556,-0.2421145911111111
983,1778291953930,-0.1574354755555555,0.1805027077777777,0.919758588888889,0.5321824777777777,-0.2457936622222222,-0.0622660318888888
984,1778291953940,-0.15109,0.17296405,0.91715586,0.52301025,-0.11856079,0.014968872
985,1778291953950,-0.0121933746666666,0.1789299922222222,0.8511515844444444,0.3159400066666666,0.0786980546666666,0.1102566182222222
986,1778291953960,0.0825825577777777,0.2135590911111111,0.8105703611111111,0.1307644296666666,0.1854604133333333,0.1547597233333333
987,1778291953970,0.2218034033333333,0.2055321933333333,0.8349350111111111,-0.178175185,0.32820808,0.1592627633333333
988,1778291953980,0.29885543,0.1880962199999999,0.8676600999999999,-0.370224,0.45455933,0.15187073
989,1778291953990,0.30932567,0.1862661,0.8739568,-0.370224,0.45455933,0.15187073
990,1778291954000,0.2182917588888888,0.16524945,0.9835115888888888,-0.3366648333333333,0.6065368666666666,0.141927085
991,1778291954010,0.0709214786666666,0.1398126066666666,1.183381,-0.1935577333333333,0.95647686,0.11990865
992,1778291954020,0.0610104382222222,0.2022239688888888,1.2612081222222224,0.2595367333333333,1.2064565,0.0840403233333333
993,1778291954030,0.0887240902222222,0.2572185155555555,1.2372364777777778,0.4599236222222223,1.3231031333333334,0.0597161189999999
994,1778291954040,0.1330884722222222,0.3177714777777777,1.0622202777777778,0.6494801666666667,1.4998253333333331,0.0265757244444444
995,1778291954050,0.1539556266666666,0.3095409977777777,0.9116093444444444,0.60735066,1.556757588888889,0.0221930608888888
996,1778291954060,0.16826041,0.29035562,0.8206304,0.53100586,1.5576477,0.021896362
997,1778291954070,0.1035712075555555,0.2692309444444444,0.6976258000000001,0.1805267249999999,1.3380228666666667,0.0577646886666666
998,1778291954080,0.0469149422,0.27646902,0.688619964,-0.134371947,1.08605344,0.116921994
999,1778291954090,-0.0162065644444444,0.2848512777777778,0.8639505377777777,-0.3943108355555555,0.8166317333333333,0.2192687977777777
1000,1778291954100,-0.05546456625,0.2986843675,1.0132984125,-0.52894591,0.6337890475,0.29207802
