id,timestamp,acc_x,acc_y,acc_z,gyro_x,gyro_y,gyro_z
0,1778412848170,-0.2574496842857143,-0.1386143642857142,1.4453499,-0.0656551717142857,1.4286626285714286,0.2245190871428571
1,1778412848180,-0.25480145,-0.13122717,1.3837087,-0.022983128,1.4362546,0.2114295
2,1778412848190,-0.2708796233333334,-0.1233981222222222,1.327143911111111,-0.0267839551111111,1.4019114666666666,0.1639191688888889
3,1778412848200,-0.30917116,-0.1381923466666667,1.306688688888889,-0.1026732422222222,1.4013006111111113,0.13127278
4,1778412848210,-0.333763371,-0.161643582,1.36476251,-0.239971339,1.4994162,0.145946683
5,1778412848220,-0.34606694,-0.1761891466666666,1.4827287999999998,-0.3737536922222222,1.843146722222222,0.2095969655555555
6,1778412848230,-0.35486826,-0.17586392,1.5240524,-0.43599224,2.0764225,0.2438044099999999
7,1778412848240,-0.360575914,-0.17957145,1.51804594,-0.4107031639999999,2.26431914,0.28350948
8,1778412848250,-0.36072227,-0.17318083,1.4976789,-0.3190489333333333,2.4514827111111113,0.3375355244444444
9,1778412848260,-0.3579036655555556,-0.1744817277777778,1.4931257444444443,-0.300995,2.4643106,0.34276167
10,1778412848270,-0.346276294,-0.168887907,1.48799533,-0.1929590216,2.59924671,0.360048649
11,1778412848280,-0.34486768,-0.16098501,1.4727993,-0.022983128,2.833873,0.3806342
12,1778412848290,-0.38329675,-0.170497759,1.37971463,0.00212269441,2.987066,0.402624703
13,1778412848300,-0.4185339088888888,-0.1781404777777777,1.2882933333333333,-0.0039111189444444,3.2415203333333333,0.4639809166666667
14,1778412848310,-0.4070867666666666,-0.1709042766666667,1.2647791,-0.014431266,3.344007,0.49486265
15,1778412848320,-0.3836992099999999,-0.148081804,1.21730273,0.0066429639,3.49885674,0.518502413
16,1778412848330,-0.37243026,-0.13049541,1.1535734,0.03749075,3.5889568,0.51990736
17,1778412848340,-0.3894569977777777,-0.1231575904444444,1.0555257111111112,0.0244593403333333,3.6218067777777776,0.50524704
18,1778412848350,-0.437592612,-0.1163665439999999,0.94121954,-0.0902984942,3.66213618,0.51098902
19,1778412848360,-0.45473182,-0.1035527866666666,0.9265953888888888,-0.1769420866666666,3.68262,0.5256086466666666
20,1778412848370,-0.44563577,-0.08363292,0.9500555,-0.21608722,3.711126,0.53212434
21,1778412848380,-0.4392939233333333,-0.0727278156666666,0.9445978333333334,-0.2197523,3.7465552,0.5133916733333334
22,1778412848390,-0.4488439144444444,-0.0533025692222222,0.926446322222222,-0.2071705422222222,3.848295233333334,0.5032787466666666
23,1778412848400,-0.4932299999999999,-0.0541860888,0.89200936,-0.1164427576,4.01202942,0.511233332
24,1778412848410,-0.4846658555555556,-0.0346293913333333,0.7932847666666666,0.0290746304444444,4.041594377777778,0.5254728622222222
25,1778412848420,-0.4469265133333333,-0.0041533584444444,0.6855820333333332,0.0792998511111111,4.0371148888888895,0.5065366111111111
26,1778412848430,-0.42075628,0.0149703859999999,0.61643845,0.0761573846,4.03866243,0.4786751999999999
27,1778412848440,-0.3926279066666666,0.0555452472222222,0.5513025033333334,-0.012191492,4.076616633333334,0.3794124933333333
28,1778412848450,-0.507986965,0.014131922,0.49807783,-0.11961916,4.11330811,0.283692736
29,1778412848460,-0.568397,-0.0178872226666666,0.4918071333333332,-0.18433164,4.174487644444444,0.26613426
30,1778412848470,-0.5381445355555556,-0.0041804597777777,0.4293306044444444,-0.19531842,4.2419524,0.30794337
31,1778412848480,-0.49298608,0.018873053,0.38093686,-0.188171502,4.27658764,0.326085543
32,1778412848490,-0.4896525599999999,0.0253503942222222,0.30414038,-0.2080783377777778,4.324892111111111,0.30427829
33,1778412848500,-0.5192342222222223,0.0055389412888888,0.1598941544444444,-0.2963118233333334,4.409731866666667,0.2735323133333333
34,1778412848510,-0.52500622,0.00599425244,0.07830335,-0.370631557,4.4381564099999995,0.286258293
35,1778412848520,-0.5065912166666666,0.0288533101111111,0.015363362,-0.4343632933333333,4.395071455555556,0.3035995611111111
36,1778412848530,-0.4944496,0.06378421,0.007774844,-0.4329379999999999,4.328082,0.29694813
37,1778412848540,-0.4555109999999999,0.1018555344444444,-0.0784496984444444,-0.3885497577777778,4.073901366666667,0.2019274388888888
38,1778412848550,-0.4989315433333334,0.0814275149999999,-0.0404495146666666,-0.3563784766666666,3.952818,0.1155264933333333
39,1778412848560,-0.528872338,0.0471368966,-0.0929078644,-0.355054975,4.0211311,0.10239327
40,1778412848570,-0.534265611111111,0.0450940942222222,-0.1824056299999999,-0.3772151533333333,4.096774377777778,0.1155943577777777
41,1778412848580,-0.532775,0.055003207,-0.24504478,-0.39384377,4.1295567,0.1350736
42,1778412848590,-0.51082251,0.0723944704,-0.340254606,-0.480034329,4.07983354,0.143442204
43,1778412848600,-0.5075398044444445,0.0896935822222222,-0.3940338233333333,-0.5410579777777778,4.0295134,0.1393495277777777
44,1778412848610,-0.50298667,0.09500554,-0.41831708,-0.5581617,3.9786773,0.12652174
45,1778412848620,-0.50298667,0.09500554,-0.41831708,-0.5581617,3.9786773,0.12652174
46,1778412848630,-0.47667079,0.0927865762222222,-0.4639837022222222,-0.5565327488888889,3.891801122222222,0.0982870199999999
47,1778412848640,-0.47205804,0.1099149471999999,-0.581344906,-0.4108253139999999,3.4849294,-0.0427440364
48,1778412848650,-0.5152028166666667,0.1048740083333333,-0.6629350333333333,-0.3372385966666666,3.1589202666666667,-0.1380514833333333
49,1778412848660,-0.5119065488888889,0.1126793466666666,-0.7158344266666666,-0.3430755811111111,3.1008219777777777,-0.1480286566666666
50,1778412848670,-0.5221829120000001,0.1016156888,-0.7737951519999999,-0.446376634,2.8884218,-0.1997470459999999
51,1778412848680,-0.5120116,0.093785964,-0.8017236,-0.52945185,2.842425,-0.20463383
52,1778412848690,-0.506889348,0.0911516622,-0.81134001,-0.52945185,2.842425,-0.20463383
53,1778412848700,-0.5139324211111111,0.0661962757777777,-0.8273958111111112,-0.6637025166666667,2.742653388888889,-0.2221447833333333
54,1778412848710,-0.5141831122222222,0.0618599817777777,-0.8472547777777777,-0.7062582,2.7074277999999996,-0.2160363177777777
55,1778412848720,-0.571234528,0.059491276,-0.871124008,-0.58748234,2.47017464,-0.1422052456
56,1778412848730,-0.58110094,0.05256404,-0.88834447,-0.48424917,2.3085444,-0.076355904
57,1778412848740,-0.5649516755555556,0.0571171534444444,-0.9092366466666668,-0.4158342811111111,2.2510569777777776,-0.0216596249888888
58,1778412848750,-0.480884777,0.0847427450999999,-1.013589614,-0.239765182,2.05834147,0.0855949723299999
59,1778412848760,-0.4315969866666667,0.1137363108888888,-1.127897811111111,-0.1167821172222222,1.8635762444444444,0.0952327788888889
60,1778412848770,-0.43205772,0.1098878455555555,-1.2568618777777778,0.0531691661111111,1.435983088888889,0.0512517828888888
61,1778412848780,-0.4502701800000001,0.1004022,-1.350841,0.11018158,1.1613734,0.037948888
62,1778412848790,-0.45027018,0.1004022,-1.350841,0.11018158,1.1613734,0.037948888
63,1778412848800,-0.4502701800000001,0.1004022,-1.350841,0.11018158,1.1613734,0.037948888
64,1778412848810,-0.4720736022222223,0.0617685102222222,-1.3161235333333332,-0.0599054488888888,0.5054591511111111,-0.0107152788888888
65,1778412848820,-0.5144574777777778,0.0276269495555555,-1.2493580777777775,-0.1889554166666666,0.164037945,-0.046424392
66,1778412848830,-0.5349702,0.021556135,-1.1965941,-0.22402823,0.033672955,-0.05619795
67,1778412848840,-0.5633255333333334,0.0078968019777777,-1.145229388888889,-0.2286435188888888,-0.2015711005555555,-0.0743876255555555
68,1778412848850,-0.5789599444444444,-0.0022121886888888,-1.0522362000000005,-0.2094357677777777,-0.5578307977777778,-0.0958351511111111
69,1778412848860,-0.5902966700000001,-0.002494048,-0.999872362,-0.170846345,-0.8288433850000001,-0.11667183
70,1778412848870,-0.5884185,0.005701552,-0.95255554,-0.15126105,-0.9919396,-0.13072132
71,1778412848880,-0.610371,0.011799469,-0.8829782999999999,-0.16995297,-1.07000587,-0.143915608
72,1778412848890,-0.63133766,0.0148348767777777,-0.8517942611111111,-0.1995688855555555,-1.1270046666666669,-0.1497254522222222
73,1778412848900,-0.68555826,0.0149703859999999,-0.7582759,-0.2392994199999999,-1.1929083,-0.1447708
74,1778412848910,-0.7214872299999999,0.00531128566,-0.687424245,-0.231648557,-1.18997625,-0.1043327072
75,1778412848920,-0.7294632933333333,0.0066772186666666,-0.6486964,-0.15105744,-1.1835420666666667,-0.0209469706666666
76,1778412848930,-0.7289754,0.009604218,-0.64186674,-0.08101362,-1.1855782,0.01901262
77,1778412848940,-0.723487334,0.0264161749,-0.669368372,0.095643411,-1.25020584,0.0880383616
78,1778412848950,-0.6922761844444444,0.0645972655555555,-0.7443185444444445,0.2713773866666666,-1.3684929777777777,0.1561139033333333
79,1778412848960,-0.6816251,0.07110171,-0.7614469,0.29038152,-1.390212,0.16317257
80,1778412848970,-0.621008796,0.130257592,-0.82296876,0.319641105,-1.53846465,0.155781313
81,1778412848980,-0.57914966,0.17068069,-0.8690751,0.27511033,-1.6559305,0.11858072
82,1778412848990,-0.5732834760000001,0.191462386,-0.857269524,0.1627144356,-1.7617293,0.04161396792
83,1778412849000,-0.5805318866666667,0.2061299066666666,-0.8102708399999999,0.090023614,-1.8104749,-0.0023670332
84,1778412849010,-0.59207726,0.20580468,-0.7570564,0.090023614,-1.8104749,-0.0023670332
85,1778412849020,-0.6266707460000001,0.190389152,-0.67909144,-0.0861447373999999,-1.87143743,-0.1820859303199999
86,1778412849030,-0.6660145,0.16287535,-0.6311344,-0.098117344,-1.9271468,-0.24006297
87,1778412849040,-0.6701610666666666,0.1434230033333333,-0.5859894666666666,-0.0022821935555555,-2.0615331777777777,-0.2711483077777777
88,1778412849050,-0.679186,0.12845263,-0.5508553,0.074752435,-2.1611013,-0.29259583
89,1778412849060,-0.6765638755555555,0.1068253433333333,-0.5384087922222222,0.1866732255555555,-2.311709111111111,-0.3045413
90,1778412849070,-0.69003008,0.1031665866666666,-0.5120420666666666,0.3313761566666666,-2.4930797333333334,-0.3238169133333333
91,1778412849080,-0.68580216,0.1004022,-0.52082306,0.4064425,-2.5881598,-0.33046836
92,1778412849090,-0.6966836044444444,0.0819221224444444,-0.5088609733333334,0.43698486,-2.7168450333333336,-0.33963107
93,1778412849100,-0.730884098,0.0509968792,-0.461075668,0.4286773399999999,-2.7644503800000004,-0.318373588
94,1778412849110,-0.7565143166666667,0.0247812564444444,-0.3877326422222222,0.41071843,-2.7626585,-0.26144262
95,1778412849120,-0.77575665,0.003668913,-0.3252628666666666,0.41194013,-2.7561429,-0.21990502
96,1778412849130,-0.78632635,-0.010640865,-0.28166276,0.4620296,-2.6816194,-0.11728267
97,1778412849140,-0.7745099633333333,0.0021512093911111,-0.2828552488888889,0.5491092777777777,-2.6436111444444443,-0.0459492875555555
98,1778412849150,-0.7769728222222222,0.0036418118488888,-0.2961080733333333,0.6065288777777778,-2.641439188888889,-0.0100365593333333
99,1778412849160,-0.70544968,0.0405450512,-0.341641892,0.69745016,-2.7240123,0.0267092968999999
100,1778412849170,-0.6684536333333333,0.0525640433333333,-0.40522691,0.7499422533333333,-2.9080401333333334,0.0017052819999999
101,1778412849180,-0.6702152555555556,0.0584180435555555,-0.4132490711111111,0.7284947422222222,-2.992065577777778,-0.0099771716666666
102,1778412849190,-0.6549406600000001,0.0664672912,-0.3848883159999999,0.65359134,-3.14451954,-0.0367730047999999
103,1778412849200,-0.6623557,0.051832296,-0.31654286,0.5841991,-3.2417665,-0.056808796
104,1778412849210,-0.67201477,0.0414871776,-0.278345528,0.51896059,-3.24494282,-0.042988376
105,1778412849220,-0.7179415888888889,0.0005420371111111,-0.1198003553333333,0.3930038533333333,-3.1507501,0.051591142
106,1778412849230,-0.7287315,-0.018476687,-0.086163566,0.36979166,-3.0688965,0.1228566539999999
107,1778412849240,-0.612663792,0.0292699986,-0.1099942196,0.318969162,-3.04091982,0.1683036876
108,1778412849250,-0.55662464,0.0529163644444444,-0.1178219135555555,0.2586174499999999,-3.0709328666666664,0.1694846599999999
109,1778412849260,-0.5374906666666667,0.0528621644444444,-0.0838226389777777,0.2356767555555555,-3.1743696,0.1164767025555555
110,1778412849270,-0.52589652,0.063198812,0.03525205616,0.33393493,-3.4625875799999997,0.0248538485
111,1778412849280,-0.5349702,0.06305246,0.07976075,0.46691638,-3.6485906,-0.012827792
112,1778412849290,-0.482546448,0.0784466499999999,0.059756537,0.694273736,-4.03244704,-0.0801431604
113,1778412849300,-0.40709692,0.1116223599999999,-0.02856874,0.80838,-4.3602276,-0.16065283
114,1778412849310,-0.3427910055555556,0.1209996088888888,-0.1521193111111111,0.5326164033333334,-4.591060000000001,-0.2892701133333333
115,1778412849320,-0.319713779,0.0947585780999999,0.009192612,-0.1329585435,-4.7779863,-0.488128051
116,1778412849330,-0.32825086,0.061101127,0.28184572,-0.47081053,-4.6937504,-0.5467083
117,1778412849340,-0.3619655666666667,0.0104206625111111,0.5848376266666667,-0.6311240100000001,-4.336879888888889,-0.5438576666666667
118,1778412849350,-0.402517378,-0.0380388049,0.8293197400000001,-0.671168435,-3.79635464,-0.4894108359999999
119,1778412849360,-0.3042792666666667,-0.0326509571111111,0.7688286933333334,-0.5705143555555555,-3.633319388888889,-0.4988585944444444
120,1778412849370,-0.321085804,-0.0762544504,0.841445446,-0.486387115,-3.6064422,-0.5873296499999999
121,1778412849380,-0.3903276599999999,-0.1027397333333333,0.9470369466666668,-0.3488192366666667,-3.5968723333333332,-0.5951688333333334
122,1778412849390,-0.42651879,-0.0982679253333333,1.016258433333333,-0.0542042033333333,-3.6384099333333335,-0.535441528888889
123,1778412849400,-0.37267417,-0.074364096,0.9744471,0.35818556,-3.790918,-0.44897273
124,1778412849410,-0.3726470811111111,-0.1010865205555555,1.0287558,0.6588581288888888,-4.0265016,-0.3984760344444444
125,1778412849420,-0.3706381588888889,-0.1291945244444444,1.1643328222222222,0.7405759188888889,-3.959512066666667,-0.3408527744444444
126,1778412849430,-0.341016839,-0.13830075,1.17455936,0.663059435,-3.27377471,-0.13271420242
127,1778412849440,-0.3537502999999999,-0.1295942811111111,1.1479666355555556,0.5755793133333333,-2.8221142777777777,0.0297363844666666
128,1778412849450,-0.32310116,-0.1112900325,0.978148588,0.5468151779999999,-2.53709296,0.141182075
129,1778412849460,-0.2038025399999999,-0.0443792842222222,0.8211793422222222,0.57870144,-2.5887706,0.1906607
130,1778412849470,-0.036302931,0.019035664,0.6200971666666667,0.4921647133333333,-3.1468815333333335,0.0446427483333333
131,1778412849480,0.018537667,0.04033772,0.6279025,0.29710084,-3.5484117999999993,-0.124001995
132,1778412849490,0.0116233073333333,0.0344024141111111,0.651874088888889,0.2592961811111111,-3.5605608777777777,-0.1410378455555555
133,1778412849500,-0.0547491308888888,-0.0631913547777777,0.9909453777777778,-0.35922061,-3.5969401666666667,-0.3332510944444444
134,1778412849510,-0.0189340286666666,-0.0603083953333333,1.3641886555555556,-0.38717535,-3.3664471,-0.41965206
135,1778412849520,-0.123805998,-0.138300751,1.6050113,-0.113144182,-2.9919909999999996,-0.466504044
136,1778412849530,-0.1220498099999999,-0.17122951,1.5430778,0.2299076299999999,-2.959555,-0.387888
137,1778412849540,-0.11642752,-0.2118965139999999,1.32376628,0.605639767,-3.04666173,-0.246171437
138,1778412849550,-0.0708476292222222,-0.2226993077777777,1.1936231444444445,0.94643146,-3.1660213,-0.08979455
139,1778412849560,0.0315973754444444,-0.1728183455555555,1.014872922222222,1.1260205333333333,-3.4487757777777777,0.0811154257777777
140,1778412849570,0.22270203,-0.073382326,0.92598086,1.11655239,-3.89183002,0.1622563
141,1778412849580,0.33839373,-0.0269223015,1.0047232333333334,1.0374477,-4.094509,0.13873868
142,1778412849590,0.45244511,0.0475942403333333,1.1914922666666667,0.9788063666666668,-4.294867,0.12448558
143,1778412849600,0.57546043,0.13186745,1.3219674,0.8816817,-4.555088,0.0055739814
144,1778412849610,0.6015391366666667,0.2198671566666666,1.5764909777777776,0.8466597888888888,-4.528482222222221,-0.1014260947777777
145,1778412849620,0.514261729,0.221265952,1.6183199600000002,0.61339756,-4.15974752,-0.640167914
146,1778412849630,0.3975401322222222,0.1807083755555555,1.4713256888888888,0.24273542,-3.844469,-1.0158389666666665
147,1778412849640,0.2926085233333333,0.13683725,1.3661468,-0.3257852066666666,-3.662029333333334,-1.4546308666666663
148,1778412849650,0.1377824254,0.036983864,1.40627718,-0.889668486,-3.5598345,-1.82936533
149,1778412849660,-0.203548472,-0.27072718,2.0305249666666665,-1.7615307666666666,-2.935706566666666,-2.092355433333333
150,1778412849670,-0.6117091655555557,-0.6426120222222222,2.9340262333333333,-2.260117833333333,-1.8801794411111112,-1.9764981555555556
151,1778412849680,-0.9777278,-0.853034555,3.29998518,-1.848943077,-0.580281969,-1.40171122
152,1778412849690,-1.1061350222222224,-0.8957331444444444,3.0301868666666665,-0.4041263722222222,0.3287885333333333,-0.2561146711111111
153,1778412849700,-1.0721053,-0.8745937,2.8152862,0.2824405,0.4692834,0.22547899
154,1778412849710,-0.8126998499999999,-0.7130294,2.2112875,1.3214917,0.44057357,0.94994384
155,1778412849720,-0.4628691333333333,-0.4789710611111111,1.7363648777777778,1.6041103222222222,0.42618473,1.2260468
156,1778412849730,-0.101545557,-0.174680922,1.1824776199999998,1.87027682,0.519372876,1.60159566
157,1778412849740,0.2320121811111111,0.096719734,0.8168464555555556,1.4564889055555554,0.7079210733333334,1.495498311111111
158,1778412849750,0.40682253,0.2543746,0.6911074,0.91894335,0.90176326,1.2419288
159,1778412849760,0.390309357,0.279446189,0.66982874,0.262343625,0.952158196,0.7792120220000001
160,1778412849770,0.3108074355555555,0.2563699755555556,0.7274510111111111,-0.2123118466666666,0.7473546733333333,0.3208390466666666
161,1778412849780,0.2590733822222222,0.2251249144444444,0.8249566822222223,-0.3033705133333333,0.5592137022222221,0.1323502371111111
162,1778412849790,0.158619012,0.165985292,0.951207936,-0.2764389319999999,0.1903552879999999,-0.1402505328
163,1778412849800,0.0482955,0.08963938,1.017407,-0.20997874,-0.09704836,-0.30298024
164,1778412849810,-0.042581749,0.0088602754999999,1.12231859,-0.186949796,-0.21139896,-0.3366990239999999
165,1778412849820,-0.11595188,-0.076315425,1.2316878,-0.13782242,-0.32000762,-0.3090887
166,1778412849830,-0.1547617377777778,-0.1068863227777777,1.3288478888888888,-0.0726653711111111,-0.2868861177777778,-0.2146110022222222
167,1778412849840,-0.174211384,-0.1180739669999999,1.3874651,-0.0058794039999999,-0.2248376099999999,-0.139761854
168,1778412849850,-0.19403571,-0.1285136,1.4601157,0.16515782,-0.0023670332,0.05688515
169,1778412849860,-0.1359022433333333,-0.0674666733333333,1.468788277777778,0.2824405133333333,0.2547657296444444,0.18719923
170,1778412849870,-0.117659302,-0.0349654542,1.46059134,0.34181486,0.47869045,0.25553267
171,1778412849880,-0.1227815499999999,-0.025306353,1.4525238,0.35940725,0.59267455,0.28228778
172,1778412849890,-0.0489865956666666,0.0048817215222222,1.3149446333333334,0.3640225399999999,0.8499769833333333,0.3228073255555555
173,1778412849900,0.012683666,0.025946636,1.2136074,0.264725936,1.06937974,0.2793557359999999
174,1778412849910,0.021789889,0.0406731059999999,1.1807498,0.0874444826666666,1.2001282111111111,0.1856381866666666
175,1778412849920,0.0123330377,0.0409444628,1.17136408,-0.1167176403999999,1.32740168,0.086083654
176,1778412849930,-0.0293309786666666,0.020143452,1.1916582999999998,-0.2866061411111111,1.4321823222222223,0.0122169458888888
177,1778412849940,-0.0958965133333333,-0.027098464,1.251068911111111,-0.4427115477777777,1.5327685,-0.0247732501111111
178,1778412849950,-0.12692814,-0.080462016,1.3358706,-0.50257456,1.5883555,-0.015271181
179,1778412849960,-0.1004360704444444,-0.1036069911111111,1.4693573444444443,-0.4173274444444444,1.6874485666666663,0.027420255
180,1778412849970,-0.0501282625555555,-0.0859094877777777,1.4796154666666663,-0.3364919988888888,1.7854556555555554,0.0400529156666666
181,1778412849980,-0.061527982,-0.08631601,1.4381328,-0.363179245,1.98650586,0.046256408
182,1778412849990,-0.0991792271111111,-0.1019605588888888,1.452476366666667,-0.4594080466666667,2.2301525333333334,0.08966729
183,1778412850000,-0.140151473,-0.144377335,1.50470663,-0.51845664,2.4044476,0.13201937
184,1778412850010,-0.1703893466666666,-0.21570702,1.5462758888888888,-0.5162168533333333,2.761818633333333,0.3116084633333333
185,1778412850020,-0.1527019966666666,-0.2203685433333333,1.5234730333333333,-0.4653129,2.9182465,0.43133453
186,1778412850030,-0.122190065,-0.193986926,1.47401284,-0.36146885,2.980553,0.5211291
187,1778412850040,-0.0990911533333333,-0.1637493933333333,1.4003967666666668,-0.3197955088888889,3.0074301666666665,0.5778700055555556
188,1778412850050,-0.07713865,-0.14391084,1.3663907,-0.32909396,3.0184255,0.6078694
189,1778412850060,-0.0686747391,-0.1304984699999999,1.4136404,-0.407404568,3.13485288,0.61238967
190,1778412850070,-0.0954324,-0.14098383,1.4539872,-0.48791423,3.3403418,0.63047075
191,1778412850080,-0.125806122,-0.14698419,1.4844585,-0.4785072119999999,3.5018498,0.6761621019999999
192,1778412850090,-0.1487180266666666,-0.1399980166666666,1.4250424666666666,-0.3673058466666667,3.745265844444445,0.763635438888889
193,1778412850100,-0.16058864,-0.12631835,1.337822,-0.29061058,3.7764869,0.7941778
194,1778412850110,-0.172464333,-0.115464056,1.2487832600000002,-0.1791385919999999,3.707583300000001,0.823254135
195,1778412850120,-0.1918404633333333,-0.0921666255555555,1.1228364888888889,-0.0901763311111111,3.6308336888888895,0.8464392055555555
196,1778412850130,-0.17232713,-0.07262619,1.085734,-0.07062922,3.5651336,0.84426725
197,1778412850140,-0.215634533,-0.038453463,1.1278615200000002,-0.01461452158,3.4366724599999996,0.717577535
198,1778412850150,-0.2552893,-0.043600105,1.1172298,0.0014507623,3.447851,0.6756734
199,1778412850160,-0.317545966,-0.0558508206999999,1.08409682,-0.01901262111,3.53697358,0.6685265300000001
200,1778412850170,-0.3683649977777777,-0.0735476533333333,1.042530411111111,-0.035200074,3.6659234,0.6903338
201,1778412850180,-0.3712919888888888,-0.0685338133333333,1.0319199222222222,0.004708613,3.676307866666667,0.7335003333333333
202,1778412850190,-0.37315592,-0.0577960616,1.03200536,0.100774526,3.67093248,0.779273134
203,1778412850200,-0.3302022,-0.017013188,0.929292,0.18042901,3.6445439999999993,0.80272967
204,1778412850210,-0.3226678733333333,0.0088995699444444,0.9314838911111112,0.2307220988888888,3.6016487333333336,0.7455136388888889
205,1778412850220,-0.33849534,0.0032623855,0.8414515,0.29099235,3.707461,0.7068266
206,1778412850230,-0.4141196933333333,-0.006548485,0.6934314155555555,0.2900421477777777,3.7361708888888887,0.7032294
207,1778412850240,-0.4432406244444444,0.0195302730888888,0.5512347533333333,0.2571921366666666,3.727483311111111,0.7430023333333333
208,1778412850250,-0.36218575,0.09183463,0.4255736,0.20303036,3.6286619,0.7605812
209,1778412850260,-0.35621658,0.1257119411111111,0.4906620888888889,0.1686192977777777,3.615766244444444,0.732278611111111
210,1778412850270,-0.3596110966666666,0.1656397455555555,0.5683563199999999,-0.1182074288888889,3.510157555555556,0.4906545888888889
211,1778412850280,-0.36633235,0.17214419,0.54298896,-0.15859123,3.5016055,0.437443
212,1778412850290,-0.5232181777777778,0.116900452,0.70269342,-0.2520423733333333,3.4547738444444445,0.3303411166666666
213,1778412850300,-0.575247,0.09866429,0.7799541,-0.2765611,3.4466293,0.3067217
214,1778412850310,-0.5644469022222222,0.0903711255555555,0.8520788711111111,-0.1771457083333333,3.5975086,0.37065704
215,1778412850320,-0.5438664444444445,0.0684118511111111,1.0072809877777775,-0.0493853055555555,3.783206155555556,0.4230541577777778
216,1778412850330,-0.5984770050000001,0.0226933974999999,0.9664039599999998,0.235588519,4.18227278,0.517341819
217,1778412850340,-0.64345898,-0.0181717923333333,0.6879940666666666,0.4886353933333333,4.4762464444444445,0.6797457455555556
218,1778412850350,-0.59524816,-0.011128698,0.532714,0.59458345,4.560815,0.77524155
219,1778412850360,-0.508386381,0.0324561622999999,0.3792873735,0.6639146100000001,4.57229874,0.8214215899999999
220,1778412850370,-0.3311778666666666,0.1404960006666666,0.082789385,0.6524781911111112,4.498304677777778,0.7647892666666666
221,1778412850380,-0.3155671955555555,0.1965087499999999,0.0139642283333333,0.6224788233333334,4.377153133333334,0.5673498533333333
222,1778412850390,-0.3732534879999999,0.1802788059999999,-0.143916932,0.58542074,4.262354520000001,0.4521033339999999
223,1778412850400,-0.4444162,0.14967337,-0.18769388,0.5023455,4.202247,0.38857523
224,1778412850410,-0.4819336019999999,0.127964787,-0.271506691,0.323000752,4.329059320000001,0.4362213
225,1778412850420,-0.4732017288888888,0.1238182,-0.3367100255555555,0.2153830477777777,4.405659611111111,0.4874646
226,1778412850430,-0.4603012499999999,0.11869595,-0.31925642,0.1496830266666666,4.441767411111112,0.5666711222222223
227,1778412850440,-0.414310754,0.136020129,-0.372232086,0.200464796,4.385501639999999,0.59076566
228,1778412850450,-0.336544,0.16726585,-0.4812781,0.28549474,4.236455,0.5785487
229,1778412850460,-0.3231828011111111,0.1750711933333333,-0.6478663666666667,0.3295436144444444,3.981256444444445,0.4996815433333333
230,1778412850470,-0.309316824,0.169509894,-0.7603308999999999,0.240902876,3.8811861,0.4412302439999999
231,1778412850480,-0.2970667955555555,0.1735534788888889,-0.7835585555555556,-0.0338002166666666,3.949153,0.4048644733333333
232,1778412850490,-0.3578765799999999,0.16848543,-0.7511210433333333,-0.2504982733333333,4.043902222222222,0.4153167511111111
233,1778412850500,-0.35608786,0.18604743,-0.74510443,-0.3645231,4.042816,0.4630986
234,1778412850510,-0.3671589577777778,0.2162524533333333,-0.6915342422222222,-0.2657440177777778,3.778794466666666,0.4864465266666666
235,1778412850520,-0.322128552,0.255871641,-0.7511139290000001,-0.12621632,3.5541384000000003,0.48631078
236,1778412850530,-0.3228948533333333,0.28562642,-0.8836389666666666,0.0106134702222222,3.2717912888888887,0.41898182
237,1778412850540,-0.36438102,0.28806558,-1.0421035,0.1944106215555555,2.6847669666666665,0.2862243488888888
238,1778412850550,-0.391797268,0.287285065,-1.08659992,0.15538427,2.2847214,0.19310409
239,1778412850560,-0.3925229,0.2823742,-1.083101833333333,0.038305214,1.9632800444444445,0.1077890906666666
240,1778412850570,-0.40978,0.2734306,-1.0396643,-0.030924143,1.7887135,0.053220067
241,1778412850580,-0.403047904,0.258380924,-1.0110651000000002,-0.0762490062,1.67680628,0.0099568102
242,1778412850590,-0.4246589088888888,0.2401461211111111,-0.9990758777777776,-0.1168499855555555,1.4883802888888888,-0.0364472207777777
243,1778412850600,-0.4562969466666666,0.2295764033333333,-1.0131586666666663,-0.106669198,1.4032688999999998,-0.0213542028666666
244,1778412850610,-0.449507948,0.234714918,-1.03733492,-0.0844343603999999,1.25935322,0.01485885964
245,1778412850620,-0.4250383322222222,0.2506616388888888,-1.0687751333333333,-0.0691360322222222,1.1760336111111112,0.0264785318333333
246,1778412850630,-0.4043223666666666,0.2726785033333334,-1.1089061666666666,-0.06696413,1.0929585,0.0080173705
247,1778412850640,-0.39024228,0.294309844,-1.18542278,-0.0615275894,0.8309660799999999,-0.0851521085
248,1778412850650,-0.400999,0.2987979,-1.2265959,-0.08406785,0.6336013,-0.15882029
249,1778412850660,-0.419731804,0.292407288,-1.2053203199999998,-0.132752376,0.401845867,-0.215567997
250,1778412850670,-0.4568084977777777,0.28091068,-1.1285313444444445,-0.1697900833333333,0.2182167022222222,-0.25139758
251,1778412850680,-0.4831481133333333,0.26415158,-1.0536691333333337,-0.16286715,0.0972010699999999,-0.2712161733333333
252,1778412850690,-0.51809423,0.235471048,-1.03552681,-0.111555978,-0.0406060739999999,-0.259243576
253,1778412850700,-0.5476539,0.21754318,-1.0679891,-0.07490514,-0.1336992,-0.2339544999999999
254,1778412850710,-0.5609337933333334,0.2168385288888888,-1.0389156333333334,-0.0079155608888888,-0.3227903555555555,-0.1932313488888889
255,1778412850720,-0.57019788,0.225055796,-1.0235658,0.0870915508,-0.56678992,-0.149779748
256,1778412850730,-0.5655038444444445,0.2385200111111111,-1.0108686,0.1190727966666666,-0.7307684844444444,-0.1366940422222222
257,1778412850740,-0.5578984,0.24339835,-1.0023146,0.13095038,-0.84106034,-0.12888877
258,1778412850750,-0.55692273,0.25193545,-0.97670335,0.09429955,-0.9247464,-0.14293826
259,1778412850760,-0.55893166,0.2522606699999999,-0.9695179633333332,0.0930099833333333,-0.9455152,-0.1503362988888889
260,1778412850770,-0.5750031,0.25486243,-0.91203487,0.08269345,-1.1116656,-0.20952061
261,1778412850780,-0.5966574533333333,0.2340956355555555,-0.8956044044444444,0.0906344633333333,-1.1618908555555558,-0.21338931
262,1778412850790,-0.6255615222222223,0.2016852077777778,-0.8783710144444444,0.0786890033333333,-1.2275908333333332,-0.1627568544444444
263,1778412850800,-0.640891,0.19409668,-0.87688047,0.06681142,-1.238111,-0.12949961
264,1778412850810,-0.6183761666666666,0.2071902655555555,-0.867313478888889,0.0818789866666666,-1.2882005333333333,-0.08959093
265,1778412850820,-0.5854101666666667,0.2264596933333333,-0.8776460333333334,0.202691,-1.496092211111111,-0.0283704608888888
266,1778412850830,-0.5844670799999999,0.2249094679999999,-0.90408323,0.236810204,-1.5913028400000002,-0.0101935128999999
267,1778412850840,-0.5715882,0.22022626,-0.9376461499999998,0.26045,-1.7738241,0.041003123
268,1778412850850,-0.5480045,0.230470767,-0.924840525,0.21982865,-1.88585343,0.0649483359
269,1778412850860,-0.4913599466666666,0.2716215433333333,-0.8667985166666666,0.1949535933333333,-2.094586666666667,0.0355564011111111
270,1778412850870,-0.4480749,0.31245726,-0.81001675,0.22502086,-2.2991526,-0.04459185
271,1778412850880,-0.4609110399999999,0.306700836,-0.8151451099999999,0.2485384809999999,-2.43612758,-0.120092573
272,1778412850890,-0.5069808,0.2793557499999999,-0.8204442000000001,0.2254280966666666,-2.6649229333333335,-0.2313753633333333
273,1778412850900,-0.5513939666666666,0.2438861933333333,-0.7813057333333334,0.1720807666666666,-2.777726,-0.25757392
274,1778412850910,-0.5609229960000001,0.232568453,-0.74695209,0.13400462,-2.8460595599999996,-0.25765538
275,1778412850920,-0.55302006,0.21851885,-0.6472329,0.10712734,-2.9174066,-0.2547233
276,1778412850930,-0.5745829733333333,0.1984905733333333,-0.6031009111111111,0.0980325044444444,-2.9607767555555555,-0.2139322822222222
277,1778412850940,-0.5641182899999999,0.204911344,-0.55838322,0.123498046,-3.0337730499999997,-0.185636475
278,1778412850950,-0.5584675777777778,0.2213645444444444,-0.5224221,0.2092745766666666,-3.1660214666666664,-0.1871228755555555
279,1778412850960,-0.54948327,0.21756758,-0.53727224,0.304553174,-3.35061948,-0.189362646
280,1778412850970,-0.5516920555555556,0.2145823166666666,-0.5475421333333332,0.3505160488888889,-3.498050711111111,-0.1914666711111111
281,1778412850980,-0.5466782,0.2036094333333333,-0.5236586233333334,0.3609683066666667,-3.647097533333333,-0.184408
282,1778412850990,-0.551410192,0.1840961,-0.479277976,0.33448471,-3.75206812,-0.159431142
283,1778412851000,-0.5426942733333333,0.1731198533333333,-0.4411843099999999,0.20730629,-3.7520275,-0.1115814333333333
284,1778412851010,-0.4969327933333333,0.18509888,-0.3952940722222222,0.0871729963333333,-3.7259646,-0.0952921733333333
285,1778412851020,-0.4625666199999999,0.199633604,-0.366649426,0.0155002489999999,-3.7267792,-0.09773556
286,1778412851030,-0.4294288644444444,0.2192065511111111,-0.2769504311111111,-0.0077119461111111,-3.858789944444444,-0.19424943
287,1778412851040,-0.415292546,0.225446072,-0.206201044,0.041216919,-3.99542975,-0.270177744
288,1778412851050,-0.4297608388888889,0.2086469844444444,-0.1429182333333333,0.1676012088888888,-4.1830141111111105,-0.3527303455555555
289,1778412851060,-0.4426376,0.1989038766666666,-0.1566961399999999,0.2197947166666666,-4.290319444444445,-0.3723453466666666
290,1778412851070,-0.38206496,0.225299737,-0.193157615,0.199670702,-4.3853335,-0.3990665249999999
291,1778412851080,-0.3645199144444444,0.2233395977777778,-0.1571670191111111,0.0847296088888888,-4.487894911111111,-0.4700809055555555
292,1778412851090,-0.4246047266666666,0.1557983877777777,-0.0071786017777777,-0.05780142,-4.5178266,-0.5204419
293,1778412851100,-0.4141217360000001,0.125568296,0.1303490679999999,-0.223173042,-4.4509996,-0.478415578
294,1778412851110,-0.4258514177777777,0.0724025964444444,0.3235012511111111,-0.2814478766666666,-4.303826,-0.4241316233333333
295,1778412851120,-0.43222034,0.049637042,0.40118194,-0.29244313,-4.13849,-0.36345413
296,1778412851130,-0.4234850739999999,0.0494419088,0.389077574,-0.297940744,-4.0838804,-0.3301018639999999
297,1778412851140,-0.3303275377777778,0.0489323944444444,0.2960267466666667,-0.4210604155555555,-4.1392368444444445,-0.2953785755555556
298,1778412851150,-0.27943704,0.0532957899999999,0.35163638,-0.487059064,-4.257727470000001,-0.3382261319999999
299,1778412851160,-0.1308511244444444,0.0800453211111111,0.5322803333333334,-0.5082758311111112,-4.563707811111112,-0.5122972266666667
300,1778412851170,-0.09079798,0.04988096,0.5392997,-0.5978668,-4.7792687,-0.70125264
301,1778412851180,-0.147715932,0.0007195554,0.77574038,-0.72449542,-4.8529981499999995,-0.8397928020000001
302,1778412851190,-0.2733492877777778,-0.0952359033333333,1.1552231777777775,-0.7856004555555556,-4.748115666666667,-0.9144383588888888
303,1778412851200,-0.44709927,-0.18610841,1.527711,-0.6259657,-4.406041,-0.80692923
304,1778412851210,-0.579680144,-0.2326904,1.68331164,-0.070865917,-3.93214594,-0.481836294
305,1778412851220,-0.6328418,-0.24470939,1.648023,0.38139775,-3.6681378,-0.21685077
306,1778412851230,-0.5111070488888889,-0.1810810211111111,1.4101601722222223,0.9936024444444445,-3.6199486333333337,0.1552315533333333
307,1778412851240,-0.2021367952,-0.043176298372,0.935646025,1.24727372,-3.82549198,0.261518974
308,1778412851250,-0.0779652475555555,0.0168200865911111,0.8174528666666666,1.187784022222222,-3.9745116777777776,0.2107507897777777
309,1778412851260,0.0421772597777777,0.0808041708888888,0.7727280577777778,0.9331285888888888,-4.076862444444444,0.0697638464444444
310,1778412851270,0.063448824,0.09085896,0.82949966,0.5872533,-4.139101,-0.11606098
311,1778412851280,0.0274236886666666,0.0697737153333333,1.0230949177777775,0.1984829444444444,-3.995891377777778,-0.26727962
312,1778412851290,-0.0338373398,0.0580765584,1.29683786,-0.1235285919999999,-3.78493176,-0.379091818
313,1778412851300,-0.0310079066666666,0.0687980522222222,1.4077549111111112,-0.17997088,-3.675468,-0.40132666
314,1778412851310,-0.0435865538888888,0.0660607622222222,1.4999317666666667,-0.1570980297777778,-3.4299752333333333,-0.4628864766666666
315,1778412851320,-0.081773065,0.0511005399999999,1.5569811,-0.066353284,-3.2527616000000004,-0.48806697
316,1778412851330,-0.1214671133333333,0.0070837468888888,1.5292525,0.0980324978888888,-2.9764552,-0.4307151911111111
317,1778412851340,-0.1317251644444444,-0.0007825659111111,1.4477911,0.2338442,-2.7558714,-0.3700377
318,1778412851350,-0.126171996,-0.0198914052,1.31073804,0.3032093,-2.6779544,-0.3310792
319,1778412851360,-0.1473934244444444,-0.0332743002222222,1.238693488888889,0.4293832066666667,-2.618023466666666,-0.27046959
320,1778412851370,-0.1764737,-0.06384519,1.0449694,0.52006006,-2.6614616,-0.21074231
321,1778412851380,-0.173757086,-0.0735134352,1.006387909,0.52006006,-2.6614616,-0.21074231
322,1778412851390,-0.0810989066666666,-0.0552843904444444,0.90812547,0.5292906666666667,-2.9453697555555554,-0.0257573886666666
323,1778412851400,0.0455209508888888,0.0073784793333333,0.9235803066666668,0.4907394222222222,-3.2175361555555555,0.1250964306666666
324,1778412851410,0.270338944,0.130251506,1.06728792,0.37687748,-3.50821792,0.136906144
325,1778412851420,0.37752202,0.2014142,1.1333283,0.3343625,-3.5771215,0.08192989
326,1778412851430,0.460642732,0.2396328779999999,1.27678179,0.201442148,-3.5631942199999997,-0.146343742
327,1778412851440,0.5110054333333333,0.2646190899999999,1.4294431333333335,0.1103173186666666,-3.5106749444444443,-0.3612143577777778
328,1778412851450,0.5036879,0.25778943,1.4603596,0.068033114,-3.4427352,-0.51799846
329,1778412851460,0.3702563749999999,0.182184403,1.37891583,-0.282127456,-3.1580192499999997,-0.97894386
330,1778412851470,0.28038222,0.11967161,1.3192843,-0.5746546,-3.0053685,-1.2192512
331,1778412851480,0.1357802778888889,-0.0110270668888888,1.4198863333333334,-1.0860016,-2.7515275,-1.4418710444444445
332,1778412851490,-0.0520396211,-0.169845275,1.6587828300000005,-1.63887266,-2.25851618,-1.57378684
333,1778412851500,-0.2465455477777778,-0.3206826722222222,1.977642611111111,-1.8630672111111113,-1.850994466666667,-1.5346518666666666
334,1778412851510,-0.4147159266666666,-0.4127239644444445,2.2368853222222222,-1.7673677888888888,-1.204175031111111,-1.2236628444444444
335,1778412851520,-0.50688934,-0.47237512,2.4572775,-1.5483451,-0.86732674,-0.9846858
336,1778412851530,-0.4866340955555555,-0.4469806966666667,2.384468333333333,-0.6008276811111111,-0.3377900538888889,-0.3477502622222223
337,1778412851540,-0.434019236,-0.4104081,2.18077348,0.24652268,0.0008093728,0.179421112
338,1778412851550,-0.2621799266666667,-0.2740505399999999,1.7639444222222225,0.4962370400000001,0.047722444,0.32993388
339,1778412851560,-0.13229431,-0.17683959,1.4601157,0.9919734488888888,0.1324265915555555,0.6616918
340,1778412851570,-0.01100674,-0.046039272,1.203363,1.1064734,0.13996038,0.77463067
341,1778412851580,0.148768846,0.0690589066666666,0.9680239666666668,0.8360038688888889,0.2045320366666666,0.7234552633333333
342,1778412851590,0.25696623,0.14455111,0.8697459,0.50784314,0.2970245,0.6261948
343,1778412851600,0.28773022,0.17336378,0.872185,0.156178371,0.423958525,0.4598611059999999
344,1778412851610,0.2796200011111111,0.1817619711111111,0.9981138555555557,-0.2044302266666667,0.4534013866666667,0.1633761886666666
345,1778412851620,0.20693281,0.14552678,1.1015887,-0.2582357,0.3605526,0.024510246
346,1778412851630,0.1507506677777778,0.1070286008888889,1.1713353222222225,-0.1435406221111111,0.1634610321111111,-0.0950037142222222
347,1778412851640,0.07634210575,0.05680209575,1.2624555625,-0.04947862975,0.0243575348375,-0.17790925375
348,1778412851650,0.0408286004,0.0352642535999999,1.30053015,-0.021150587,0.0019088977,-0.19180603
349,1778412851660,-0.0284129044444444,-0.0330845887777777,1.4113390666666668,0.0800464411111111,0.1276925277777777,-0.1389338102222222
350,1778412851670,-0.07396773,-0.057747275,1.467921,0.1584385,0.27075803,-0.045813546
351,1778412851680,-0.0762849384,-0.0692327045,1.43389765,0.200098295,0.458349236,0.0561368648
352,1778412851690,-0.105920814,-0.0802181,1.4410597,0.21585815,0.6140542,0.14118208
353,1778412851700,-0.0815718318,-0.071187082,1.45454224,0.253058753,0.836708014,0.253333633
354,1778412851710,-0.0336096847777777,-0.0273796453644444,1.3973038111111111,0.3079603577777777,1.0552894777777777,0.3538926633333333
355,1778412851720,-0.0149094069999999,-0.00039636457,1.3663907,0.35024455,1.1351069,0.39285114
356,1778412851730,0.0248825487999999,0.021617115329,1.32835196,0.340776418,1.23565234,0.388697382
357,1778412851740,0.06369274,0.04768571,1.288307,0.30137676,1.3317997,0.37696913
358,1778412851750,0.0909572088888888,0.0599289688888888,1.281619511111111,0.2158581428888889,1.4141962666666668,0.3359744844444444
359,1778412851760,0.080071748,0.0308737526,1.33344368,-0.1147323844,1.76208056,0.204710188
360,1778412851770,0.04463675,0.017409554,1.3495604,-0.17813833,1.866902,0.18821731
361,1778412851780,0.003418221,-0.0066060758888888,1.3736811111111111,-0.2529925733333333,2.0667848222222225,0.2058640055555555
362,1778412851790,-0.046618573,-0.036282603,1.3807818,-0.2948865,2.2181392,0.2370850899999999
363,1778412851800,-0.0406561655555555,-0.0497793264444444,1.4273224666666666,-0.2819229755555555,2.2927304444444445,0.2829665055555555
364,1778412851810,-0.0281784723999999,-0.0584058454,1.491215,-0.2410097899999999,2.4083571,0.347648434
365,1778412851820,-0.03295924,-0.06335735,1.5074354,-0.19409671,2.4924095,0.38918605
366,1778412851830,-0.032417203,-0.0633031477777777,1.5094985444444446,-0.1769845033333333,2.516504022222222,0.3977379133333333
367,1778412851840,-0.0171686848,-0.0594303021,1.51933563,-0.0384375631,2.75562352,0.468901624
368,1778412851850,0.008293167,-0.051405437,1.5037768,-0.0389330295555555,2.8837674333333334,0.4791163333333333
369,1778412851860,0.0065315463333333,-0.0728430111111111,1.4529336666666666,-0.0811493611111111,3.061524033333333,0.5127129777777778
370,1778412851870,0.035367917,-0.07043094,1.462067,-0.14087665,3.2059555000000004,0.5382328
371,1778412851880,0.0477839501111111,-0.0673684303333333,1.4382953,-0.1938846244444444,3.398711811111111,0.5801097844444444
372,1778412851890,0.0794626306666666,-0.0412422421111111,1.3974798444444447,-0.2397745233333333,3.5007911333333332,0.5930054277777778
373,1778412851900,0.0393193672,-0.0237879736,1.39967916,-0.265626943,3.58877344,0.5809920839999999
374,1778412851910,0.011616531,-0.0093501386666666,1.3488083333333334,-0.2954973666666667,3.699587888888889,0.5707434366666667
375,1778412851920,-0.009055407,-0.01603752,1.377123,-0.3541387,3.763659,0.53273517
376,1778412851930,-0.0642110654,-0.0489723682,1.40812482,-0.352794828,3.921746310000001,0.5336514290000001
377,1778412851940,-0.12522073,-0.07460801,1.4325225,-0.3043206988888889,4.022386955555556,0.5503139777777778
378,1778412851950,-0.1529459199999999,-0.0876169,1.3898168666666666,-0.1659722923333333,4.044852266666666,0.6223260766666666
379,1778412851960,-0.126781792,-0.0804284689999999,1.31555234,-0.0608556569999999,4.0159388,0.68056023
380,1778412851970,-0.1242992655555555,-0.0693197611111111,1.3300979444444443,-0.0092730007333333,4.045259866666666,0.7245411811111111
381,1778412851980,-0.157987875,-0.0376485395,1.28700503,0.0512348138899999,4.16889515,0.7555111649999999
382,1778412851990,-0.2139284755555555,-0.0178499578888888,1.222764488888889,0.1277604011111111,4.327403222222221,0.7888159222222222
383,1778412852000,-0.1965697377777777,0.040080255,1.1162405777777775,0.17859647,4.367787,0.8106707
384,1778412852010,-0.176647503,0.084468347,1.016848931,0.275354665,4.3461019499999995,0.7454932700000001
385,1778412852020,-0.20671937,0.09061504,0.91587657,0.33314082,4.3372445,0.6707866
386,1778412852030,-0.2268967077777777,0.0972414444444444,0.882907161111111,0.2780288133333333,4.33188261111111,0.5928696511111111
387,1778412852040,-0.325476306,0.0957433912,0.7615505,0.26106083,4.339688,0.57793784
388,1778412852050,-0.3301920277777778,0.1492261844444444,0.6571352111111112,0.1352263166666666,4.264146666666666,0.5431195533333333
389,1778412852060,-0.3391661166666667,0.1827037466666666,0.6833732333333333,0.0556125533333333,4.128131333333333,0.4402936133333333
390,1778412852070,-0.40295035,0.15260036,0.7567515,0.0381016,4.080078,0.36658472
391,1778412852080,-0.40295035,0.15260036,0.7567515,0.0381016,4.080078,0.36658472
392,1778412852090,-0.489955435,0.120110665,0.792774925,0.284028707,4.203346829999999,0.469145979
393,1778412852100,-0.4129035,0.1639357244444444,0.6054554,0.5190420133333333,4.2488752666666665,0.5622594333333333
394,1778412852110,-0.3363271977777777,0.2189253866666666,0.4844049644444444,0.5896287888888889,4.193491666666667,0.5006317555555556
395,1778412852120,-0.33727577,0.22461677,0.47219217,0.5567109,4.186365,0.4246152
396,1778412852130,-0.4237239044444444,0.1871653988888889,0.42212491,0.45442794,4.4032838666666665,0.3574219944444444
397,1778412852140,-0.4471060333333333,0.1603752055555555,0.3005256611111111,0.33741677,4.547987,0.35009184
398,1778412852150,-0.43960491,0.164613264,0.315865982,0.3091956,4.6346048,0.36072058
399,1778412852160,-0.4087501555555555,0.1809218055555555,0.2691315588888889,0.3958544644444444,4.638052833333333,0.36801002
400,1778412852170,-0.4161218,0.15552737,0.23961763,0.46569467,4.544933,0.32810134
401,1778412852180,-0.4215455711111111,0.1446866288888889,0.2120686008,0.4989519211111111,4.553756244444445,0.3310877044444444
402,1778412852190,-0.41758534,0.10235353,0.0031404272,0.7222505,4.671378,0.42400435
403,1778412852200,-0.388662901,0.1131834309999999,-0.0951884822799999,0.709789246,4.64792146,0.438298186
404,1778412852210,-0.3237790466666666,0.13536358,-0.1694712733333333,0.7259155977777778,4.613075944444444,0.4444338155555555
405,1778412852220,-0.2961893611111111,0.1434399411111111,-0.2583314666666667,0.7770231688888889,4.5134401111111115,0.3965841044444444
406,1778412852230,-0.274528218,0.160515462,-0.44565408,0.819375222,4.32282852,0.3274904859999999
407,1778412852240,-0.24919137,0.17897385,-0.5876868,0.8150993,4.1252804,0.25052375
408,1778412852250,-0.2619563366666667,0.1879005255555555,-0.6570302577777778,0.6870250222222223,3.882366866666666,0.1500732911111111
409,1778412852260,-0.2527525579999999,0.213683206,-0.7105109919999999,0.4525004040000001,3.5780224699999996,0.0028022617999999
410,1778412852270,-0.28163227,0.19336495,-0.6677524,0.2936393711111111,3.5147726777777777,-0.0786635491111111
411,1778412852280,-0.332403534,0.186437706,-0.62987212,0.1061499776,3.4488283799999997,-0.1108076899999999
412,1778412852290,-0.36755192,0.1797056,-0.6094258,0.027717194,3.3751602,-0.13133216
413,1778412852300,-0.4215693222222222,0.1752608922222222,-0.5961221955555556,0.0009756586666666,3.379028866666667,-0.1144999251111111
414,1778412852310,-0.46477102,0.161350882,-0.704778896,-0.083334836,3.30955526,-0.054227965618
415,1778412852320,-0.4965093088888889,0.1372878177777777,-0.7077343555555555,-0.12194038,3.2988043,7.635591e-05
416,1778412852330,-0.4856143711111111,0.1428708022222222,-0.7183006855555555,-0.1192255062222222,3.237312222222222,0.0989657433333333
417,1778412852340,-0.47737542,0.13137962,-0.72827417,-0.038865156,3.1460924,0.17661121
418,1778412852350,-0.47775486,0.0966282611111111,-0.8223820222222221,0.022151697,3.028181922222222,0.2484197055555555
419,1778412852360,-0.4532954366666666,0.0968552444444444,-0.8763384222222222,0.137126725,2.7964077777777776,0.3689602333333333
420,1778412852370,-0.369567297,0.138901402,-0.888621978,0.2885489799999999,2.5195922000000004,0.427974855
421,1778412852380,-0.3131280244444444,0.1611679355555555,-0.93971948,0.3631402222222222,2.402207688888889,0.4195247922222222
422,1778412852390,-0.30629835,0.15775311,-1.0306394,0.4516452,2.286554,0.40812233
423,1778412852400,-0.3354159,0.14390068,-1.1734933,0.4039991066666666,2.2071438666666667,0.4551575466666667
424,1778412852410,-0.3510875422222222,0.1374504399999999,-1.251912477777778,0.3013767711111111,2.1024853777777777,0.5364681199999999
425,1778412852420,-0.32776302,0.14259979,-1.2697997,0.25861746,2.0403826,0.57244027
426,1778412852430,-0.2467488122222222,0.1974065066666666,-1.2934968333333332,0.2525089922222222,1.8294366333333332,0.5730510711111111
427,1778412852440,-0.19598705,0.23217818,-1.3161743,0.3066707788888889,1.5569987333333333,0.5252013677777777
428,1778412852450,-0.208304842,0.238666375,-1.4402273600000002,0.376022288,1.23565238,0.4485604119999999
429,1778412852460,-0.2080473688888889,0.2369752033333333,-1.5168330555555556,0.4119401199999999,0.7413140733333333,0.37187872
430,1778412852470,-0.2045241299999999,0.2365686699999999,-1.524845,0.41927028,0.48760882,0.32993388
431,1778412852480,-0.1990495633333333,0.2355388055555555,-1.532379377777778,0.40074126,0.1133121699999999,0.25235627
432,1778412852490,-0.17891288,0.25047192,-1.5421631,0.36734828,-0.28213507,0.1662268
433,1778412852500,-0.185840112,0.25356968,-1.50416703,0.2407807179999999,-0.6103433290000001,0.0443398719999999
434,1778412852510,-0.2287938388888889,0.2460543466666666,-1.391714033333333,0.0408164744444444,-0.920266872222222,-0.1031653144444444
435,1778412852520,-0.2907486666666666,0.2179395566666666,-1.2801357333333332,-0.0743112638888889,-1.0784763,-0.1827790711111111
436,1778412852530,-0.351676,0.189437883,-1.15806146,-0.205214134,-1.28264178,-0.2671235099999999
437,1778412852540,-0.3875531,0.18141302,-1.085795,-0.24113196,-1.3566154,-0.2932067
438,1778412852550,-0.4328944977777778,0.1545618577777777,-0.9873611111111112,-0.2790044977777778,-1.4734908,-0.3104461666666667
439,1778412852560,-0.501190818,0.1204277628,-0.828600138,-0.2530434949999999,-1.5708395199999998,-0.289602695
440,1778412852570,-0.54082423,0.1130858659999999,-0.78367376,-0.18676655,-1.6088953,-0.25411245
441,1778412852580,-0.55670319,0.111402836,-0.7772100399999999,-0.0885881252,-1.67523336,-0.191195196
442,1778412852590,-0.5700942,0.1160128699999999,-0.7892839,-0.039476003,-1.7115177,-0.15820944
443,1778412852600,-0.5505267,0.1484368411111111,-0.8153389055555555,0.0369477737777777,-1.7994117777777778,-0.1229839155555555
444,1778412852610,-0.526424005,0.171070954,-0.857830536,0.09564341,-1.91431894,-0.100667628
445,1778412852620,-0.5038810266666666,0.1976741433333333,-0.8820941666666666,0.0869693788888888,-1.9759466444444445,-0.1113099477777777
446,1778412852630,-0.4929860799999999,0.21263437,-0.8920337599999999,0.05276193,-2.0389318,-0.14171657
447,1778412852640,-0.51030415,0.21412836,-0.91618145,-0.02725906,-2.142165,-0.1783674
448,1778412852650,-0.5061575666666667,0.2151853233333333,-0.9143114333333332,-0.051896565,-2.160694,-0.1854939533333333
449,1778412852660,-0.5099281233333334,0.2190574944444444,-0.8665817122222222,-0.1977533194444444,-2.3216862666666667,-0.2423706199999999
450,1778412852670,-0.5205791359999999,0.205755908,-0.792832836,-0.237772301,-2.43208085,-0.264802298
451,1778412852680,-0.521338,0.1974302211111111,-0.733203351111111,-0.2434396066666667,-2.5164871444444445,-0.2798359266666666
452,1778412852690,-0.5332628,0.19287711,-0.69068056,-0.22280654,-2.5930467,-0.29015246
453,1778412852700,-0.5294577220000001,0.1913648339999999,-0.6539832999999999,-0.162447197,-2.70922971,-0.301880708
454,1778412852710,-0.5459464733333333,0.1806812733333333,-0.6402406199999999,-0.09872819,-2.8324988,-0.31214294
455,1778412852720,-0.56795386,0.171168512,-0.630792908,-0.0309241436,-2.9939457000000003,-0.308111355
456,1778412852730,-0.5633899222222223,0.1614118577777777,-0.6125018555555556,0.015500249,-3.175184066666666,-0.2761029666666666
457,1778412852740,-0.5378972,0.16750978,-0.5962238,0.019165333,-3.2252736,-0.2699945
458,1778412852750,-0.53665325,0.1446578339999999,-0.5739542280000001,-0.0162027241,-3.26558949,-0.266329406
459,1778412852760,-0.5403363711111111,0.1203220677777777,-0.5469492466666668,-0.0785702313333333,-3.343370633333333,-0.2357870366666666
460,1778412852770,-0.5126823533333333,0.1020994566666666,-0.5357019533333333,-0.098117338,-3.4216270444444445,-0.2051768
461,1778412852780,-0.47746384,0.0739311405,-0.51954556,-0.12743801,-3.575289,-0.1655396
462,1778412852790,-0.4514897799999999,0.053783625,-0.47957066,-0.14820682,-3.7683167000000006,-0.10995251
463,1778412852800,-0.404240056,0.0396090207,-0.434098502,-0.15597221,-3.9121102,-0.0650475994
464,1778412852810,-0.3689883133333333,0.0063519964666666,-0.3494478966666666,-0.1989834944444444,-4.158851833333333,0.0360484731111111
465,1778412852820,-0.3660071277777777,0.0066230147444444,-0.2828315355555555,-0.1967267511111111,-4.245524444444444,0.0889206987777777
466,1778412852830,-0.362088195,0.0511279807999999,-0.1002497508,-0.1166260144,-4.44525765,0.224990318
467,1778412852840,-0.3556,0.08768804,-0.021495156,-0.022983128,-4.511107,0.29083964
468,1778412852850,-0.3638931844444444,0.1506795222222222,-0.0005420384444444,0.1382805484444444,-4.541785,0.3367210666666667
469,1778412852860,-0.378912364,0.2043960719999999,-0.0515822784,0.259533734,-4.567427,0.372204514
470,1778412852870,-0.31381914,0.2622476888888889,-0.1115884866666666,0.2077135166666666,-4.65486,0.3447978166666667
471,1778412852880,-0.2123294666666667,0.3553357833333333,-0.1088681433333333,0.1012224753333333,-4.7762148,0.221406682
472,1778412852890,-0.2025728,0.36346635,-0.05372265,0.018554486,-4.8495164,0.1106397059999999
473,1778412852900,-0.2671937777777777,0.3138564011111111,0.1017945566666666,-0.0493853051111111,-4.865126955555556,0.0197167915555555
474,1778412852910,-0.329552772,0.2645672739999999,0.230114037,-0.120107845,-4.83363435,-0.07391252
475,1778412852920,-0.3604512533333333,0.2420161522222222,0.2876184055555555,-0.1125061888888889,-4.763726433333334,-0.0616277066666666
476,1778412852930,-0.3753911433333333,0.2100020911111111,0.2931200766666666,-0.1140672433333333,-4.618005333333333,-0.0236024591111111
477,1778412852940,-0.40709692,0.18360828,0.29843205,-0.16775393,-4.515383,0.026342789
478,1778412852950,-0.3085139266666666,0.1972676066666666,0.2368600255555555,-0.4168438644444444,-4.484908444444445,0.0793507565555555
479,1778412852960,-0.1891776942222222,0.2075155066666666,0.2744367377777778,-0.6163279155555555,-4.504591366666667,0.0576911295555555
480,1778412852970,0.0083663416,0.255167328,0.6220058199999999,-0.8556442819999999,-4.4817863,-0.0917492592
481,1778412852980,0.1112666573333333,0.2671599,0.8150882133333334,-0.8790600999999999,-4.483415333333333,-0.3962362533333333
482,1778412852990,0.12201932,0.25364286,0.99420434,-0.8183826,-4.4866734,-0.6181774
483,1778412853000,0.12201932,0.25364286,0.99420434,-0.8183826,-4.4866734,-0.6181774
484,1778412853010,0.0948666466666666,0.20030979,0.9591074366666668,-0.5411258355555556,-4.7800156,-1.1126922333333331
485,1778412853020,0.0756107814444444,0.1377688788888889,1.1048272777777777,-0.4789551533333333,-4.967613733333334,-1.3790895
486,1778412853030,-0.0059637612999999,0.057527748,1.2485119,-0.5508314999999999,-4.9600799,-1.41014085
487,1778412853040,-0.034666654,0.02911755,1.340749,-0.56854606,-4.9509172,-1.407392
488,1778412853050,-0.0558538659999999,-0.0097048359999999,1.4861538,-0.476735734,-4.8286256000000005,-1.32614937
489,1778412853060,-0.0908250824444444,-0.0651731788888888,1.7449222666666666,-0.3142215388888889,-4.644271922222223,-1.1997719111111111
490,1778412853070,-0.089415789,-0.065308692,1.7754898666666667,-0.0163316766666666,-4.418936811111111,-1.0414945555555557
491,1778412853080,-0.0673819825,-0.0610401479999999,1.7419766,0.2248986959999999,-4.23133898,-0.906986022
492,1778412853090,-0.06372323,-0.05725944,1.7346438,0.33375168,-4.1342144,-0.83808243
493,1778412853100,-0.0729378577777777,-0.0670330455555555,1.7054924111111112,0.4445186488888889,-3.987610933333333,-0.7408898255555556
494,1778412853110,-0.0475302101,-0.0635189492,1.73023509,0.5707604079999999,-3.86861787,-0.6654569969999999
495,1778412853120,0.0013686453333333,-0.0354153442222222,1.7575518444444445,0.8794418933333333,-3.5651082333333335,-0.5381564400000001
496,1778412853130,-0.07494339,-0.049454104,1.5711588,1.0667684,-3.3712661,-0.459968
497,1778412853140,-0.0216293086899999,-0.0255289286,1.47052792,1.1813633,-3.3845214400000003,-0.348366188
498,1778412853150,0.0823354292555555,0.0291717571111111,1.378373111111111,1.2475792,-3.3968537,-0.2668044933333333
499,1778412853160,0.09247491,0.034727637,1.3722447,1.252466,-3.3987541,-0.25716668
500,1778412853170,0.1113581255555555,0.0840326812222222,1.3597710777777778,1.1267671444444445,-3.277602777777778,-0.1994755577777777
501,1778412853180,0.1776627999999999,0.1488704766666666,1.3629758666666667,0.9995072555555556,-3.1283524333333337,-0.13757637
502,1778412853190,0.310219304,0.206890126,1.34931652,0.93946779,-3.00964453,-0.13322578
503,1778412853200,0.3402332711111111,0.2197926388888889,1.3489846,0.8658675,-2.945301944444444,-0.2363300222222222
504,1778412853210,0.3489838,0.2233971799999999,1.3273336,0.80838,-2.9125197,-0.34512872
505,1778412853220,0.2755343799999999,0.1839284179999999,1.29659089,0.6910973499999999,-2.86756144,-0.397905916
506,1778412853230,0.2253282,0.1420509713333333,1.2725844,0.4491339344444445,-2.7213245777777777,-0.4537916533333333
507,1778412853240,0.2010787999999999,0.109671034,1.2607138,0.28854898,-2.5502872,-0.46851984
508,1778412853250,0.1415326466666666,0.0520660463333333,1.2502253666666665,0.2047271594888889,-2.478996288888889,-0.4482261422222222
509,1778412853260,0.08418174,0.008140719,1.2402248,0.0069483876999999,-2.3193107,-0.38177955
510,1778412853270,0.095901942,0.0424963804,1.28766044,0.00536018527,-2.3311000999999996,-0.247576387
511,1778412853280,0.2065093455555555,0.1252512066666666,1.2872871222222222,0.0165183286666666,-2.3227721999999997,-0.14069848
512,1778412853290,0.29992604,0.18165694,1.3058689,-0.008322794,-2.3211432,-0.12644538
513,1778412853300,0.314490916,0.2147716769999999,1.27299807,-0.1187792528,-2.27013744,-0.20866542
514,1778412853310,0.3384648911111111,0.3076873288888888,1.1808412666666668,-0.47264308,-2.1360564,-0.46363306
515,1778412853320,0.3199509299999999,0.2958370288888889,1.1985998333333334,-0.8078624866666666,-2.1236358666666666,-0.6709817933333334
516,1778412853330,0.21943964,0.187449968,1.3748302799999998,-1.2044381,-2.1232288,-0.90649736
517,1778412853340,0.13665432,0.09061504,1.5843302,-1.5123051,-2.0364883,-1.0335536
518,1778412853350,-0.0146553288888888,-0.06893356,2.0683964222222224,-1.5982988,-1.802194522222222,-1.0032148533333336
519,1778412853360,-0.0909473849999999,-0.143108956,2.32197708,-1.47858634,-1.44421092,-0.8672809320000001
520,1778412853370,-0.1885780733333333,-0.2521793333333333,2.6689464333333333,-0.9708229488888888,-0.8955614711111112,-0.5711421511111111
521,1778412853380,-0.21897619,-0.293392106,2.7114175,0.0594354319999999,-0.032512352,-0.04016321
522,1778412853390,-0.15814948,-0.2669058,2.5812483,0.62207156,0.4161397,0.24319357
523,1778412853400,-0.1029734915555555,-0.2383743333333333,2.3068351222222225,0.9433772266666666,0.7715849244444445,0.4442980755555555
524,1778412853410,0.019269416,-0.14976484,1.7505288999999995,1.39919148,1.4391866800000002,0.8403578719999999
525,1778412853420,0.2029183366666666,-0.0371261506666666,1.2528203777777778,1.2536198,1.764754733333333,0.9802825777777778
526,1778412853430,0.2825300266666666,0.0256010868888888,1.0687005866666666,1.0164753400000002,1.8823767333333337,1.002951811111111
527,1778412853440,0.33529395,0.08329754,0.99371654,0.76134473,1.9151589,0.9682693
528,1778412853450,0.3351923133333333,0.1172256733333333,1.0128910755555554,0.3587964117777777,1.9164484777777775,0.8579095133333333
529,1778412853460,0.34703246,0.14259979,1.0720748,0.118733436,1.9096613,0.7874585
530,1778412853470,0.365131046,0.161433196,1.19336845,-0.17626761,1.99047633,0.6261947830000001
531,1778412853480,0.3439834777777777,0.1450287877777777,1.2866367333333333,-0.3712424166666667,2.0758117333333335,0.4973060066666666
532,1778412853490,0.3316352,0.12698911,1.3336754,-0.45065257,2.134453,0.4362213
533,1778412853500,0.306255672,0.1095612649999999,1.35627426,-0.475697304,2.1880854,0.430479334
534,1778412853510,0.20473756,0.039849885,1.4466697,-0.57587624,2.402615,0.40751147
535,1778412853520,0.184919332,0.011994601232,1.457707,-0.598294333,2.5118344400000003,0.452714171
536,1778412853530,0.1692680033333333,0.0065146080533333,1.4828812666666666,-0.6204680933333333,2.6764781,0.5164458933333332
537,1778412853540,0.17571147,0.0155395253333333,1.4858082333333331,-0.6174817111111112,2.782841877777778,0.5413548777777778
538,1778412853550,0.169997728,0.0018903543999999,1.49153216,-0.648933588,2.91458136,0.5486172140000001
539,1778412853560,0.1568994,-0.018232772,1.511826,-0.67483354,3.0220904,0.57549447
540,1778412853570,0.1727370455555555,-0.0161391535555555,1.5275010555555557,-0.688272171111111,3.101364822222222,0.5947022244444444
541,1778412853580,0.21644556,-0.0097139816,1.58187286,-0.724678648,3.38536132,0.6601579
542,1778412853590,0.21498205,-0.004380337,1.6213345,-0.7167783577777778,3.560993544444444,0.6967815933333333
543,1778412853600,0.18952325,-0.0006402813333333,1.6367927,-0.66030894,3.7506956,0.7220299733333333
544,1778412853610,0.15031365,-0.0133239479999999,1.5948187,-0.57343286,3.9304204,0.7605812
545,1778412853620,0.1133772144444444,-0.0284704962222222,1.5283818666666666,-0.4911042255555555,3.975962444444445,0.8012364722222222
546,1778412853630,0.1219979779999999,-0.0357703795,1.37157387,-0.2231654129999999,4.04098355,0.92587646
547,1778412853640,0.16470474,-0.01750102,1.2919656,-0.14393088,3.9860075,0.95116556
548,1778412853650,0.1768057111111111,0.0235718377777777,1.2426673333333331,-0.1380260255555555,3.9568904,0.8852619244444444
549,1778412853660,0.13909347,0.04622221,1.1965332,-0.13965495,3.9340854,0.8063947600000001
550,1778412853670,0.0597460301111111,0.0363334188888888,1.159136011111111,-0.1454240666666666,3.9530896222222225,0.7795853377777777
551,1778412853680,-0.0554368385555555,0.0296053855555555,1.0636359000000002,-0.1853666911111111,3.993541288888889,0.7552872088888889
552,1778412853690,-0.0951457959999999,0.031215236,1.02355354,-0.207046674,3.98722904,0.755816608
553,1778412853700,-0.1200070046666666,0.0344125766666666,1.0568502000000002,-0.1938082588888888,3.942840955555555,0.7523686644444445
554,1778412853710,-0.099822894,0.051344458,1.0820752,-0.12865971,3.9328637,0.74714255
555,1778412853720,-0.0968044275999999,0.0717846806,0.95717779,-0.00288625336,3.85217093,0.69241063
556,1778412853730,-0.1388258522222222,0.1003581622222222,0.8908344733333333,0.0106134709777777,3.7239540555555553,0.5917837177777777
557,1778412853740,-0.192468548,0.1072806544,0.862775944,-0.01076618318,3.75058692,0.549472376
558,1778412853750,-0.25773861,0.0907979773333333,0.8271214166666667,-0.0512857188888888,3.7857852,0.5230973677777777
559,1778412853760,-0.3076839355555555,0.0734053644444444,0.8383890111111111,-0.0954024677777777,3.840557911111111,0.5234366888888888
560,1778412853770,-0.35645372,0.06683317,0.8336309500000001,-0.0424080736,3.891875980000001,0.569019489
561,1778412853780,-0.3513111466666667,0.0767456733333333,0.7885317555555555,0.0784853895555555,3.853657266666666,0.5999962455555555
562,1778412853790,-0.3176269388888889,0.1077197,0.6629959888888889,0.16637953,3.7752652000000007,0.6066477
563,1778412853800,-0.3197381769999999,0.127138515,0.62977759,0.18470494,3.6830273,0.5644992
564,1778412853810,-0.33532444,0.1636071,0.5786008,0.20303036,3.6451547,0.50830126
565,1778412853820,-0.3619350666666666,0.1610053277777777,0.5272733355555556,0.1924423433333333,3.5521023333333335,0.4537322533333333
566,1778412853830,-0.386455469,0.165729176,0.504806928,0.1553231923999999,3.44589632,0.389124984
567,1778412853840,-0.3718611266666666,0.20337569,0.4267220733333333,0.099797174,3.455792,0.35009184
568,1778412853850,-0.3823766466666666,0.2286549388888888,0.32651294,-0.2366439273333333,3.5575999333333335,0.2303657777777777
569,1778412853860,-0.39072403,0.23339775,0.31626844,-0.505018,3.5895677,0.13201937
570,1778412853870,-0.5197627388888889,0.1884290077777778,0.4714739422222222,-0.6089298666666667,3.6678917333333327,0.0699165605555555
571,1778412853880,-0.590028332,0.144551111,0.455435099,-0.61057236,3.72187708,0.080708194
572,1778412853890,-0.5681631866666668,0.1538301133333333,0.4726088833333333,-0.5549038233333333,3.683638133333334,0.0990336133333333
573,1778412853900,-0.5355393644444445,0.1700573544444444,0.4824096066666666,-0.4808555655555555,3.679565766666667,0.1030380561111111
574,1778412853910,-0.5478978,0.17872995,0.4526788599999999,-0.38040513,3.6567607,0.076432265
575,1778412853920,-0.5969623055555556,0.1619742277777777,0.39464361,-0.2379335011111111,3.6197705888888887,0.0838981688888888
576,1778412853930,-0.62502631,0.1442258933333333,0.33154372,-0.1078230237777777,3.601852344444445,0.1447114066666666
577,1778412853940,-0.597287881,0.1472829819999999,0.264518474,-0.01772984,3.61009204,0.213506388
578,1778412853950,-0.54398836,0.1680890777777778,0.2095278022222222,0.0630784624444444,3.6866243666666665,0.2689170222222222
579,1778412853960,-0.48420507,0.21461618,0.17251006,0.07963921,3.7154021,0.26946
580,1778412853970,-0.50704178,0.2109391399999999,0.1021766926,0.1132358109999999,3.74655525,0.2449650209999999
581,1778412853980,-0.54320922,0.1987311,-0.0399549054444444,0.1873519344444444,3.740175233333334,0.2328091566666666
582,1778412853990,-0.5469153788888889,0.2007705144444444,-0.0908928333333333,0.2272606333333333,3.6382317,0.2419718699999999
583,1778412854000,-0.5109871,0.231007376,-0.181400822,0.30375907,3.45047761,0.236962934
584,1778412854010,-0.5083528,0.23876393,-0.20013362,0.3264215,3.3867662,0.20532103
585,1778412854020,-0.52254572,0.233300199,-0.24217877,0.350000213,3.3432739400000004,0.174534332
586,1778412854030,-0.5214125333333333,0.2370836222222222,-0.3662544511111111,0.3494300833333333,3.2918813333333334,0.1428110033333333
587,1778412854040,-0.5015231711111111,0.2470028944444444,-0.4482511233333333,0.2368984388888889,3.260388888888889,0.09706533
588,1778412854050,-0.504023322,0.249252356,-0.52492088,0.0986976475,3.2317943899999997,0.0406366129199999
589,1778412854060,-0.5257014,0.24778886,-0.5288723,0.031993125,3.2022903,0.0055739814
590,1778412854070,-0.5347534333333334,0.2543746133333333,-0.6062751666666667,-0.0168067837777777,3.047542377777778,-0.0255707441333333
591,1778412854080,-0.5573709419999999,0.249788963,-0.62357295,-0.0587787782,2.89062836,-0.0530826254
592,1778412854090,-0.58061314,0.24364227,-0.6184507,-0.07857023,2.8124936,-0.06352811
593,1778412854100,-0.5756772111111111,0.2236140088888889,-0.6185320322222222,-0.0518965637777777,2.6419313333333334,-0.0337323441111111
594,1778412854110,-0.5635085,0.2214458399999999,-0.60747445,0.024662958,2.5333364,-0.025044737
595,1778412854120,-0.5542159288888889,0.2205751955555555,-0.6682910022222223,0.0583274299999999,2.4898983555555554,-0.0280311014444444
596,1778412854130,-0.5826864219999999,0.199853123,-0.770700438,0.1504974939999999,2.26602946,-0.0514333379999999
597,1778412854140,-0.6040291,0.1892996633333333,-0.8071812599999999,0.15538427,2.2205825,-0.04459185
598,1778412854150,-0.596000188888889,0.1875651366666667,-0.8524074755555556,0.1500902633333333,2.010858266666667,0.0328584923333333
599,1778412854160,-0.567899,0.19799936,-0.8427321300000001,0.14316733,1.9359276,0.047111593
600,1778412854170,-0.58293712,0.1878090644444444,-0.8685466122222222,0.2027588666666666,1.797672577777778,0.0522698601111111
601,1778412854180,-0.5869007666666666,0.1793261822222222,-0.9024679666666666,0.2468077377777777,1.6898241222222223,0.0574281255555555
602,1778412854190,-0.60729764,0.169948948,-0.96464778,0.275354668,1.57284014,0.068857758
603,1778412854200,-0.6225769866666666,0.1592166133333333,-1.0280376666666666,0.2774179777777777,1.3811427,0.1024950811111111
604,1778412854210,-0.63235396,0.15677744,-1.0394204,0.2737664569999999,1.24194414,0.123162085
605,1778412854220,-0.6238134666666667,0.1738245111111111,-1.0948267111111112,0.2706307911111111,1.0347243,0.1429467433333333
606,1778412854230,-0.6145446800000001,0.1736619088888888,-1.1349069777777778,0.2096818066666666,0.887781611111111,0.1433539677777777
607,1778412854240,-0.609346536,0.1778030599999999,-1.14675592,0.1266744514,0.777883409,0.133179969
608,1778412854250,-0.6115092866666667,0.1674284666666666,-1.132322133333333,0.0461783564888888,0.6244386033333333,0.1212277277777777
609,1778412854260,-0.61378586,0.1604362,-1.0940882,0.0038941511999999,0.41064206,0.119802415
610,1778412854270,-0.6105661259999999,0.16346075,-1.0499576,0.03028275124,0.1965172023999999,0.1083184892
611,1778412854280,-0.61817634,0.15848486,-1.037957,0.06742226,0.019623468,0.100866154
612,1778412854290,-0.6206696822222223,0.1558085466666666,-1.031073111111111,0.1431673244444444,-0.2923158635555556,0.0886492082222222
613,1778412854300,-0.6272103849999999,0.155158442,-1.01905336,0.187881345,-0.522747818,0.0771652759999999
614,1778412854310,-0.64259845,0.15138078,-1.0164922,0.19814359,-0.6480326,0.07459972
615,1778412854320,-0.650720878,0.153795561,-0.9888046,0.193195714,-0.7992172999999999,0.086144731
616,1778412854330,-0.6524906322222223,0.1569095677777777,-0.9458071866666666,0.2024195055555555,-0.9425288177777776,0.0955721411111111
617,1778412854340,-0.6611395133333333,0.1554054133333333,-0.9196505211111112,0.2107677566666666,-1.0209887533333335,0.1077212166666666
618,1778412854350,-0.681890382,0.153926668,-0.879487295,0.2274642539999999,-1.1909537,0.156453252
619,1778412854360,-0.673332,0.16897328,-0.857611,0.24212459,-1.3028609,0.1906607
620,1778412854370,-0.6591306222222222,0.1792719777777777,-0.8444801777777777,0.24212459,-1.3028609,0.1906607
621,1778412854380,-0.64479373,0.1911208999999999,-0.8283593400000001,0.2714452539999999,-1.42900078,0.1927986709999999
622,1778412854390,-0.6573689722222222,0.1872941199999999,-0.8282834111111111,0.2619431822222222,-1.5956602777777775,0.1759324988888889
623,1778412854400,-0.64940374,0.19131604,-0.81550488,0.220928187,-1.72788838,0.171235753
624,1778412854410,-0.6396715,0.19848719,-0.7958696,0.1828724,-1.8159726,0.15584241
625,1778412854420,-0.6560409944444444,0.1896519844444444,-0.7670061555555555,0.1471038966666666,-1.8773966444444443,0.1540777366666667
626,1778412854430,-0.66113615,0.19946286,-0.6899488,0.11140327,-2.005335,0.1582858
627,1778412854440,-0.6465011333333333,0.2016852166666666,-0.6516471,0.1297965622222222,-2.0844059777777777,0.1478335111111111
628,1778412854450,-0.6322150733333333,0.2087621933333333,-0.6051674555555555,0.1752707511111111,-2.205218011111111,0.1140333055555555
629,1778412854460,-0.62720126,0.23047078,-0.5750031,0.22135578,-2.2954876,0.07887565
630,1778412854470,-0.6380080922222222,0.2238274288888889,-0.5779029777777778,0.2633006166666666,-2.381354066666667,0.0479939280333333
631,1778412854480,-0.65845305,0.21214652,-0.5852475,0.31786963,-2.535627,-0.0035887277
632,1778412854490,-0.6722160450000001,0.202511807,-0.574929875,0.306874394,-2.58803774,-0.0151871900099999
633,1778412854500,-0.6968868855555556,0.1910341733333333,-0.5463563922222222,0.2640472133333333,-2.6396068,-0.0268772783333333
634,1778412854510,-0.70751077,0.17824212,-0.54548913,0.19997612,-2.6455796,-0.031764057
635,1778412854520,-0.7495389988888889,0.1479761133333333,-0.51934263,0.0965393182222222,-2.642864666666666,0.0111649305555555
636,1778412854530,-0.78144807,0.12503777,-0.4915530699999999,0.048486,-2.6455796,0.044057358
637,1778412854540,-0.761141987,0.120939981,-0.4458827509999999,0.01910424752,-2.6651878,0.1105175457999999
638,1778412854550,-0.6671798,0.1597349344444444,-0.3832676288888889,2.545175555555526e-05,-2.713790877777778,0.1679236188888889
639,1778412854560,-0.6465011,0.17360769,-0.35194126,0.017943637,-2.7659163,0.14240377
640,1778412854570,-0.673246608,0.1538870299999999,-0.3496972399999999,0.0337034989,-2.81209651,0.1209630285
641,1778412854580,-0.6884277111111111,0.13918495,-0.35690091,0.0371513925555555,-2.8570684111111113,0.1208204933333333
642,1778412854590,-0.679121948,0.144087674,-0.332037676,0.0504407124,-2.94538334,0.128720784
643,1778412854600,-0.6978354066666667,0.12567806,-0.3143679333333333,0.09491039,-3.084778633333334,0.14932671
644,1778412854610,-0.722389728888889,0.0915636022222222,-0.3105601155555555,0.09491039,-3.1348681,0.19249325
645,1778412854620,-0.6903268779999999,0.0859806239999999,-0.324768934,0.000656661,-3.16144006,0.314174022
646,1778412854630,-0.6396715,0.086712375,-0.32754958,-0.08101362,-3.1721299,0.3714715
647,1778412854640,-0.5726214555555555,0.1101554781111111,-0.2746196688888889,-0.1499714955555555,-3.2047084777777775,0.3948194288888889
648,1778412854650,-0.4356351639999999,0.158759268,-0.1812057,-0.190057484,-3.35929343,0.332804846
649,1778412854660,-0.43124464,0.17165637,-0.1557408,-0.13171394,-3.5813974999999996,0.23219831
650,1778412854670,-0.43124464,0.17165637,-0.1557408,-0.1298813977777778,-3.6048133111111103,0.2269042999999999
651,1778412854680,-0.4312446399999999,0.17165637,-0.1557408,-0.11522106,-3.7921398,0.18455222
652,1778412854690,-0.3696692622222222,0.16577187,-0.1150778533333333,-0.2211351933333333,-4.249053399999999,0.0968617075555555
653,1778412854700,-0.3656006033333333,0.1566859766666666,-0.0193812116666666,-0.3545459311111111,-4.386290422222222,0.0479260574444444
654,1778412854710,-0.38511395,0.13942887,0.092718825,-0.49707696,-4.3663363,0.029397024
655,1778412854720,-0.4586683944444444,0.0804281322222222,0.2400173805555555,-0.5472343133333334,-4.258487711111112,0.1067031373333333
656,1778412854730,-0.3370013699999999,0.099993641,0.376009744,-0.5592612,-4.10000676,0.270315176
657,1778412854740,-0.2865817644444444,0.1095084197777777,0.3927058222222222,-0.5337956455555556,-4.130617055555557,0.2806588511111111
658,1778412854750,-0.19288727,0.1278834793333333,0.4682996533333333,-0.45777912,-4.246813666666666,0.2945047333333333
659,1778412854760,-0.128922158,0.158411684,0.476357046,-0.424019632,-4.33945894,0.276545818
660,1778412854770,-0.0334504611111111,0.1726591266666666,0.4428239366666667,-0.5618267733333333,-4.538187722222222,0.1824482011111111
661,1778412854780,0.0111422493333333,0.1764262855555555,0.4735506511111111,-0.7223438711111111,-4.614000644444444,0.1159337155555555
662,1778412854790,0.0728152262,0.1718453919999999,0.5879672279999999,-0.974515144,-4.62680132,0.003603998
663,1778412854800,0.0921496833333333,0.116084008,0.9171775266666666,-1.4436865333333335,-4.442488600000001,-0.2168507766666666
664,1778412854810,0.06954674,0.065491624,1.1686963,-1.6949484,-4.1843038,-0.32924667
665,1778412854820,-0.0638299425,-0.0014726469499999,1.4328122799999998,-1.71962665,-3.72549644,-0.347022324
666,1778412854830,-0.17574196,-0.03286777,1.5870134,-1.6363071,-3.2942994,-0.31764057
667,1778412854840,-0.1444687891,0.0011768987,1.62346361,-1.222763488,-3.18776753,-0.2152625748
668,1778412854850,-0.0173417987777777,0.0812987831111111,1.6548798,-0.54859175,-3.1949348000000004,-0.129703234
669,1778412854860,0.0264446293333333,0.1373216988888889,1.6839872111111112,-0.09653932,-3.2073554,-0.1901771133333333
670,1778412854870,-0.0302395678,0.1647778999999999,1.60774014,0.365393564,-3.1348682,-0.27732466
671,1778412854880,-0.0834093333333333,0.1587186033333333,1.4290265,0.62220732,-3.0828782111111113,-0.3192694966666666
672,1778412854890,-0.1378501822222222,0.1203220544444444,1.2243059,0.8148957333333333,-3.1491211999999997,-0.34166722
673,1778412854900,-0.137599496,0.1055732296,1.10843666,0.87606192,-3.30688284,-0.32277168
674,1778412854910,-0.0670465966666666,0.117720286,1.0608545666666669,0.7752585111111111,-3.4145683333333334,-0.3301290088888888
675,1778412854920,0.0277150313333333,0.1409736766666666,1.0667898999999998,0.6169811622222222,-3.4401559777777777,-0.3790646677777778
676,1778412854930,0.100768074,0.15528345,1.0757335,0.44309333,-3.3456103999999995,-0.46363306
677,1778412854940,0.0565039711111111,0.1212943373333333,1.071644588888889,0.2321474005555555,-3.230906977777778,-0.5637441444444444
678,1778412854950,-0.06511965,0.0481674472,1.13723714,0.02417428,-3.14610766,-0.61903262
679,1778412854960,-0.1155148695555555,-0.0110236782222222,1.2217989444444444,0.0700013977777777,-3.1759984111111113,-0.5484729577777778
680,1778412854970,-0.0655526068888888,-0.03191243,1.308470611111111,0.3546562111111111,-3.277602844444444,-0.3487259133333333
681,1778412854980,0.030419457,-0.0004908827999999,1.28991364,0.4907394,-3.3101814,-0.27304873
682,1778412854990,0.1398963666666667,0.0657457046666666,1.2344419666666666,0.7057576333333333,-3.4319435666666664,-0.1956747366666666
683,1778412855000,0.2303589566666666,0.1253731666666666,1.1730258,0.8138776333333333,-3.5575745333333333,-0.1887518033333333
684,1778412855010,0.2957580999999999,0.171510001,1.13008428,0.8126559,-3.6052206,-0.21074231
685,1778412855020,0.34505739,0.2010686366666666,1.1200213555555556,0.6483380111111111,-3.5884562,-0.2663294155555555
686,1778412855030,0.37410718,0.21607967,1.1391823,0.5267794,-3.575289,-0.29503924
687,1778412855040,0.420399506,0.235349093,1.16951337,0.370158168,-3.55916262,-0.366874857
688,1778412855050,0.4131236844444444,0.2380321844444444,1.2991036111111112,0.1070594721111111,-3.505720288888889,-0.53062264
689,1778412855060,0.38532734,0.22583634,1.3361145,-0.0286029228,-3.42440962,-0.6422448279999999
690,1778412855070,0.2678713333333333,0.1827952233333333,1.3785153666666663,-0.2084261744444444,-3.3413344777777776,-0.7575184622222222
691,1778412855080,0.2227873999999999,0.18263261,1.4130093,-0.3261076011111111,-3.395767833333333,-0.8218610544444445
692,1778412855090,0.344587176,0.241495796,1.4866172599999998,-0.481439269,-3.64058867,-1.029460915
693,1778412855100,0.4405779111111111,0.25556708,1.6392894,-0.7015750111111111,-3.8769119555555553,-1.324724111111111
694,1778412855110,0.4089364933333333,0.1635969428333333,1.9577869333333335,-0.9662076,-4.0260944,-1.6382923
695,1778412855120,0.2194365910999999,-0.04772839905,2.42812641,-1.4484104800000002,-3.33516488,-1.93058276
696,1778412855130,0.023659917,-0.19004159,2.7086337,-1.5587295,-2.7121618,-1.8685818
697,1778412855140,-0.09884723,-0.275199,2.8797107,-1.5136625222222222,-2.3404612222222223,-1.7613441111111112
698,1778412855150,-0.36438102,-0.4423734,3.123048,-0.8470924500000001,-0.52830654,-1.0518789
699,1778412855160,-0.4293983622222222,-0.5012657244444445,2.7717640111111113,0.1971848977777777,0.5345677033333334,-0.2388158155555555
700,1778412855170,-0.365798787,-0.45294717,2.35550019,0.915766956,1.127043704,0.428158112
701,1778412855180,-0.24041037,-0.37282664,2.0753345,1.1730558,1.3256912,0.7257629
702,1778412855190,0.0111558033333333,-0.2071936666666666,1.757260388888889,1.3272608222222222,1.6427888444444445,1.0613216733333333
703,1778412855200,0.3025176639999999,-0.0154277279999999,1.4144545000000002,1.28349703,1.90764543,1.20900418
704,1778412855210,0.4034077,0.06451596,1.283398,1.1321291,2.0611513,1.1906177
705,1778412855220,0.4732186833333333,0.1578005288888889,1.157970711111111,0.8769985444444445,2.174701022222222,1.0913210666666666
706,1778412855230,0.5107615,0.2365686699999999,1.0606107,0.35452047,2.298771,0.8033405
707,1778412855240,0.4428103755555555,0.22610059,1.058537388888889,0.0999923017777777,2.3186574444444443,0.6648139288888889
708,1778412855250,0.3436887466666667,0.1940966866666666,1.174326633333333,-0.3567857133333333,2.3350146,0.4280766666666666
709,1778412855260,0.2998254299999999,0.166384704,1.2782332,-0.4744756199999999,2.3354218,0.35314608
710,1778412855270,0.27778044,0.1336832688888888,1.3657673222222222,-0.4911721022222222,2.369968677777778,0.31133698
711,1778412855280,0.2652594,0.1238182,1.3968803,-0.477713097,2.40194309,0.298230917
712,1778412855290,0.2559092433333333,0.1049451433333333,1.4202454333333334,-0.4505847,2.547182188888889,0.2956585555555555
713,1778412855300,0.2359792166666666,0.0928102933333333,1.4039742,-0.45187426,2.6836047333333335,0.30549998
714,1778412855310,0.198484142,0.08163891,1.35486872,-0.4653129,2.7935572,0.32138202
715,1778412855320,0.16909523,0.07036996,1.320016,-0.4653129,2.7935572,0.32138202
716,1778412855330,0.170000771,0.06993091,1.31789393,-0.4716046299999999,2.8104853,0.326635305
717,1778412855340,0.1945472622222222,0.0732969566666666,1.3095547777777776,-0.5684782244444444,3.0001678666666667,0.3852494866666667
718,1778412855350,0.20473756,0.07947618,1.3207207555555556,-0.6073688333333334,3.0478139444444445,0.3846386377777777
719,1778412855360,0.193169812,0.082517012,1.33534008,-0.66652597,3.13008831,0.366279298
720,1778412855370,0.1308714616666667,0.0753296,1.362894533333333,-0.7126381555555555,3.263442922222222,0.3652951666666666
721,1778412855380,0.098816745,0.07305304,1.3754156,-0.7316423,3.3684409,0.3714715
722,1778412855390,0.0516585059999999,0.03557829572,1.37886407,-0.7136833699999999,3.47381209,0.411970672
723,1778412855400,0.0275896851111111,0.0034792001999999,1.402249911111111,-0.6718471222222222,3.564726466666667,0.4842746333333333
724,1778412855410,0.0799436886666666,0.0026119413333333,1.4016976666666665,-0.5612159444444446,3.652552666666667,0.5874399377777778
725,1778412855420,0.125092666,0.024245318,1.37677542,-0.42267577,3.72920728,0.6489183159999999
726,1778412855430,0.12665373,0.04183171,1.3285531,-0.33031565,3.7868712,0.6591805
727,1778412855440,0.0907766379,0.0464417341,1.28860263,-0.236772034,3.82285009,0.62527852
728,1778412855450,-0.0087911636666666,0.0438541826666666,1.1955474333333334,-0.1030719968888888,3.8651276111111112,0.5826889355555556
729,1778412855460,-0.0569206656666666,0.0302558285555555,1.159966088888889,-0.0102910786666666,3.873543733333334,0.5940235088888888
730,1778412855470,-0.0729676765,0.0300932185,1.10678416,0.0800668049999999,3.85015501,0.6236903
731,1778412855480,-0.09031015,0.03448372,1.0810996,0.19936527,3.8204677,0.6561263
732,1778412855490,-0.1248108055555555,0.0616126735555555,1.018670588888889,0.3389778044444445,3.833363444444444,0.6683432444444445
733,1778412855500,-0.168531175,0.087322165,0.80326331,0.4953818479999999,3.82437733,0.6495902499999999
734,1778412855510,-0.1770326866666666,0.0999753433333333,0.69315018,0.4570749333333333,3.738207122222222,0.5885937222222223
735,1778412855520,-0.17271333,0.1237368933333333,0.63709002,0.3620542566666667,3.6567608333333337,0.5184820333333334
736,1778412855530,-0.184769925,0.1351847136,0.619341004,0.28060797,3.5895677,0.4569900999999999
737,1778412855540,-0.23309286,0.1211351159999999,0.6366835,0.1356335433333333,3.5211528555555556,0.36088346
738,1778412855550,-0.2998742179999999,0.1213058628,0.698876155,0.0738972481,3.5258562,0.324924929
739,1778412855560,-0.3431738288888888,0.1239537122222222,0.7209973599999999,0.0695262962222222,3.5382564333333333,0.3057714755555555
740,1778412855570,-0.37853834,0.1249564816666666,0.6579143966666666,0.1109960355555555,3.537034777777778,0.2797765277777777
741,1778412855580,-0.40587732,0.1169885249999999,0.58177173,0.0848924981,3.5047207799999995,0.280943932
742,1778412855590,-0.39584628,0.14552678,0.54786736,-0.021761434,3.4447968,0.27434677
743,1778412855600,-0.39584628,0.14552678,0.54786736,-0.021761434,3.4447968,0.27434677
744,1778412855610,-0.497239394,0.1314527914,0.6646028239999999,-0.0484554588,3.59341588,0.240200417
745,1778412855620,-0.5325310666666667,0.1185604348888889,0.5796544377777777,0.0214051064444444,3.635720411111111,0.2486911888888888
746,1778412855630,-0.5336530859999999,0.116329949,0.53025046,0.112624966,3.5895677,0.2682383
747,1778412855640,-0.55253226,0.11479328,0.5102737,0.1126249659999999,3.5895677000000004,0.2682383
748,1778412855650,-0.5217648488888889,0.1383447877777777,0.4380709666666667,0.3215347191111111,3.398576111111111,0.2835773455555556
749,1778412855660,-0.483961164,0.171491704,0.377229316,0.451889532,3.19508252,0.243315732
750,1778412855670,-0.4589156711111111,0.2074883866666666,0.3711700422222222,0.4882960288888889,3.097021088888889,0.166430422
751,1778412855680,-0.45173368,0.23071468,0.23839806,0.46691638,3.0385833,0.053830914
752,1778412855690,-0.57766788,0.17936412,0.225848548,0.207611715,3.20198495,-0.052532865
753,1778412855700,-0.64122643,0.1488230544444444,0.2001946055555555,0.0932814692333333,3.289437866666667,-0.0423520766666666
754,1778412855710,-0.6688438839999999,0.134501758,0.214591784,-0.01998997661,3.3862775,-0.004619532
755,1778412855720,-0.6670443222222222,0.1361495411111111,0.2207276533333333,-0.0846787013333333,3.4596607,0.0617719299999999
756,1778412855730,-0.6494281,0.14333153,0.21205507,-0.088343784,3.4661765,0.10208785
757,1778412855740,-0.608157442,0.172455186,0.226202219,-0.04491254399,3.4177973300000004,0.0874275135
758,1778412855750,-0.61842024,0.1753151,0.2523013,0.0075592347,3.3904314,0.0605502349999999
759,1778412855760,-0.64528155,0.16848545,0.25303307,0.1492758,3.4099784,0.051387526
760,1778412855770,-0.674219238,0.135852441,0.1405112522,0.229357877,3.42341706,0.0872442578
761,1778412855780,-0.69165623,0.1199155399999999,0.077077664,0.28671643,3.4490726,0.1350736
762,1778412855790,-0.651519728,0.1318430599999999,-0.0473655718,0.32275641,3.5052706,0.23128204
763,1778412855800,-0.6077691866666667,0.1433315299999999,-0.1201797833333333,0.2844087833333333,3.5256322,0.2395284755555555
764,1778412855810,-0.6115227888888888,0.1480472566666666,-0.1241366477777777,0.2755175666666666,3.551695,0.2267006899999999
765,1778412855820,-0.628097628,0.137526318,-0.177979898,0.318602651,3.5672716199999996,0.220286799
766,1778412855830,-0.62793297,0.13211136,-0.24065429,0.35452047,3.543754,0.22242476
767,1778412855840,-0.6368156133333334,0.1242247273333333,-0.3330682266666667,0.4303334055555555,3.466176433333333,0.2554783855555556
768,1778412855850,-0.6072001,0.13040395,-0.4251468,0.4485909599999999,3.4209738,0.27679017
769,1778412855860,-0.5929987222222223,0.1481963144444444,-0.4505276577777777,0.4367812466666667,3.4063134444444447,0.27692591
770,1778412855870,-0.5545953255555556,0.2006824355555555,-0.5860572366666665,0.2118537,3.382897522222222,0.2467907788888889
771,1778412855880,-0.55692273,0.2087317,-0.6306466,0.09429955,3.392264,0.22853324
772,1778412855890,-0.562722531111111,0.2197113266666666,-0.6585784000000001,-0.0134810588888888,3.2489184888888887,0.1997555422222222
773,1778412855900,-0.5490631966666667,0.2249148811111111,-0.6492926333333333,-0.0282092653333333,3.131975166666667,0.1913394211111111
774,1778412855910,-0.5218932439999999,0.2350076129999999,-0.64681821,0.0063986254,3.01982266,0.180154132
775,1778412855920,-0.4994702088888888,0.2471384033333333,-0.65718604,0.0892770266666666,2.8269502222222225,0.1320872355555555
776,1778412855930,-0.51789606,0.24656928,-0.67580163,0.1272853,2.7813404,0.12163496
777,1778412855940,-0.5296582622222222,0.2290343677777777,-0.7410933333333333,0.1764924388888888,2.6360265555555555,0.1428109944444444
778,1778412855950,-0.5274358888888889,0.2325576033333333,-0.7402260799999999,0.2233919266666666,2.5331326,0.1597111066666666
779,1778412855960,-0.5094016499999999,0.243886176,-0.76228838,0.272483684,2.45557542,0.1599350876
780,1778412855970,-0.4636076477777777,0.2692534977777778,-0.8481524377777778,0.3658551,2.2505817777777777,0.105888678
781,1778412855980,-0.4734727399999999,0.26583868,-0.88761276,0.39056048,2.154611,0.076432265
782,1778412855990,-0.507416774,0.2190646049999999,-0.954049541,0.389094446,1.99261428,0.0570073217
783,1778412856000,-0.5203622888888888,0.1943948011111111,-0.9715268700000002,0.3996553133333333,1.834119788888889,0.0508445517777777
784,1778412856010,-0.5292720444444444,0.1644404833333333,-0.9663300644444444,0.4426182222222222,1.719552,0.0637402161111111
785,1778412856020,-0.5156825159999999,0.1073660196,-1.03582262,0.550907863,1.52812609,0.1327523795
786,1778412856030,-0.52521354,0.090371124,-1.0677452,0.59580517,1.4374763,0.17722206
787,1778412856040,-0.539287553,0.0655891936999999,-1.1592474899999998,0.6425349969999999,1.23571346,0.2992693349999999
788,1778412856050,-0.5130888666666666,0.061995492,-1.2296957,0.6421617,1.0847459666666668,0.3827382188888888
789,1778412856060,-0.4595626977777777,0.0895919533333333,-1.2806201,0.62268245,0.9555178,0.41361994
790,1778412856070,-0.4322203399999999,0.116744615,-1.3330046,0.5913459889999999,0.7795938099999999,0.387231346
791,1778412856080,-0.4417331,0.12357429,-1.4184364,0.47791162,0.47478104,0.32138202
792,1778412856090,-0.43734258,0.12861523,-1.4294939333333334,0.3889994033333333,0.35464774,0.2884641422222222
793,1778412856100,-0.42026842,0.13869712,-1.4081919,0.13522631,0.08620582,0.2034885
794,1778412856110,-0.3944030866666667,0.1716563533333333,-1.3049440333333333,0.0110207011111111,-0.0949443311111111,0.1170196764444444
795,1778412856120,-0.3864994988888889,0.1746646644444444,-1.244564488888889,-0.0806742594444444,-0.3075870555555556,0.0067787081111111
796,1778412856130,-0.43661085,0.1636071,-1.1831788,-0.10728005,-0.4415662,-0.05314371
797,1778412856140,-0.5006085022222222,0.1382702611111111,-1.1228398777777775,-0.1212616644444444,-0.6606567555555556,-0.0713333842222222
798,1778412856150,-0.54082428,0.1234035409999999,-1.06369313,-0.13049224,-0.8471688,-0.067804046
799,1778412856160,-0.5380869611111111,0.12230049,-1.0171900444444444,-0.1232978277777777,-0.9980480333333333,-0.0323070321111111
800,1778412856170,-0.53375065,0.14333153,-0.9369144,-0.11888615,-1.0652412,-0.020768806
801,1778412856180,-0.535726371,0.148554403,-0.908860944,-0.0814412095,-1.14501788,-0.01195733474
802,1778412856190,-0.5376533133333334,0.1645014733333333,-0.8573671133333334,0.0100026243333333,-1.2951234,-0.0052176534666666
803,1778412856200,-0.54399514,0.17263202,-0.84370774,0.061313793,-1.354172,-0.007253811
804,1778412856210,-0.540726674,0.1785835909999999,-0.868029288,0.0900236166,-1.44286703,-0.0114075727
805,1778412856220,-0.5565704222222222,0.1750982866666666,-0.9066687333333334,0.0824898346666666,-1.5466567333333332,-0.0185290336666666
806,1778412856230,-0.5491174,0.17848602,-0.90544915,0.036540544,-1.6263383777777778,-0.020904552
807,1778412856240,-0.5245794109999999,0.182705787,-0.899961086,-0.0227387884,-1.68415176,-0.0394607356
808,1778412856250,-0.52765274,0.18775485,-0.89227766,-0.07551599,-1.7310648,-0.060473878
809,1778412856260,-0.5370570766666667,0.1774832499999999,-0.8617779566666667,-0.1135242677777777,-1.819026777777778,-0.0768988811111111
810,1778412856270,-0.54692215,0.1723881,-0.82806665,-0.1427092,-1.9473047,-0.10262234
811,1778412856280,-0.5702466755555555,0.1624620511111111,-0.8002533399999999,-0.1393156,-2.0026203666666667,-0.1033010566666666
812,1778412856290,-0.5993676088888888,0.15083874,-0.75575209,-0.09248397,-2.1672776111111114,-0.0876226466666666
813,1778412856300,-0.59524816,0.15430778,-0.69848585,-0.0304354643,-2.3031232,-0.0707361157
814,1778412856310,-0.5973349888888888,0.1540808055555555,-0.6905721611111111,0.0203870267777777,-2.395734488888889,-0.0483248058888888
815,1778412856320,-0.6071024919999999,0.1504538999999999,-0.6858998,0.0197761802,-2.43732639,-0.030664533
816,1778412856330,-0.61281013,0.1486977,-0.68458265,0.011224318,-2.4646924,-0.019547112
817,1778412856340,-0.6200463666666667,0.1362579466666666,-0.6581481766666667,0.0038941511888888,-2.5523149333333333,0.0049546498555555
818,1778412856350,-0.6193959,0.14357546,-0.63601273,0.0075592347,-2.623589,0.020234315
819,1778412856360,-0.6018610333333333,0.1502153977777778,-0.6214048577777778,0.0483502566666666,-2.776368633333333,0.0247138628888888
820,1778412856370,-0.5949771444444445,0.1470444877777778,-0.6116210822222222,0.0890734084444444,-2.9387182333333337,0.0105286313777777
821,1778412856380,-0.6006143,0.13381879,-0.60966974,0.071698196,-3.0212505,0.0012980504
822,1778412856390,-0.6177697888888889,0.1225173144444444,-0.5862232466666667,0.0062017958888888,-3.0760909777777776,0.0129720204444444
823,1778412856400,-0.6223229,0.11454937,-0.5657342,-0.053525493,-3.1287596,0.033062108
824,1778412856410,-0.6178510866666667,0.09770895,-0.4959334233333334,-0.1318666499999999,-3.1745732666666666,0.0769073697777777
825,1778412856420,-0.6023488177777777,0.0961776957777777,-0.4402390944444445,-0.1916533244444444,-3.1950026444444446,0.1272683305555555
826,1778412856430,-0.571240656,0.1149884168,-0.38977275,-0.2001899159999999,-3.23871212,0.1366618
827,1778412856440,-0.5475184088888889,0.1265012866666666,-0.3564672877777777,-0.1545189,-3.3559947333333335,0.1096216355555555
828,1778412856450,-0.55863017,0.13137962,-0.33559886,-0.11888615,-3.4170794,0.09536853
829,1778412856460,-0.580171097,0.110524742,-0.35996612,-0.055785626,-3.5923315199999997,0.1017213412
830,1778412856470,-0.57232,0.1033292,-0.36364928,-0.035200074,-3.818406,0.13751699
831,1778412856480,-0.556191,0.100646116,-0.34145284,-0.08406785,-3.8843777,0.16683766
832,1778412856490,-0.54248285,0.0958135114,-0.265390495,-0.221500844,-3.86318131,0.213323134
833,1778412856500,-0.5464343,0.065491624,-0.2396786199999999,-0.34986275,-3.8153519999999994,0.26396236
834,1778412856510,-0.447931614,0.1028931982999999,-0.21051228,-0.4920069209999999,-3.82756901,0.306110836
835,1778412856520,-0.3654379855555555,0.1543077844444444,-0.1292317933333333,-0.5624376,-3.9662313,0.2566322
836,1778412856530,-0.3499865433333333,0.1523293422222222,-0.0788934888888888,-0.5225289266666667,-4.170254333333334,0.1778329099999999
837,1778412856540,-0.332113895,0.14357545,0.092291968,-0.420476708,-4.4088514000000005,0.089137886
838,1778412856550,-0.3451116,0.1282087,0.15055756,-0.33153734,-4.503777,0.07032379
839,1778412856560,-0.3481808666666667,0.0998228983333333,0.13630876,-0.1448132211111111,-4.696600777777777,0.1198024166666666
840,1778412856570,-0.364649294,0.0617597030999999,0.149975212,-0.0829683264,-4.798204999999999,0.1704416529999999
841,1778412856580,-0.3633443577777777,0.0482819502222222,0.2339872222222222,0.0540514991111111,-4.893293488888889,0.3319021644444444
842,1778412856590,-0.281595682,0.062247535,0.287333834,0.310783818,-5.02385222,0.5155092760000001
843,1778412856600,-0.21086596,0.07402871,0.31038398,0.46141875,-5.095688,0.6042043
844,1778412856610,-0.1476068438888889,0.1234658788888888,0.3663763955555555,0.8631526333333333,-5.2112825,0.7537260888888889
845,1778412856620,-0.1141895907999999,0.129477068,0.245721652,1.27861024,-5.34071406,0.90742886
846,1778412856630,-0.0629237291111111,0.1360479155555555,0.0172571066666666,1.4851308666666667,-5.5081537111111105,1.0542629555555556
847,1778412856640,0.2074680644444444,0.2290377444444444,-0.5130279,1.4198381555555557,-6.300762044444444,1.3382391333333332
848,1778412856650,0.5398181,0.31514034,-0.6926319,1.0734878,-6.7810917,1.3268366
849,1778412856660,0.8704505,0.3550037766666667,-0.4958249744444444,-0.2690527244444444,-7.003711744444444,1.0792398444444444
850,1778412856670,1.20810708,0.300889506,-0.055533732,-1.0749384,-7.057805499999999,0.8900808
851,1778412856680,1.2819379333333334,0.1924739611111111,0.5852137000000001,-1.9092200333333331,-6.928034533333333,0.5533003555555556
852,1778412856690,1.2402891555555555,0.0956661506666666,1.0054109555555557,-2.46034,-6.7664313,0.2578539
853,1778412856700,1.1106441,-0.018232772,1.4691405,-2.5864800000000003,-6.59624919,0.1218793017999999
854,1778412856710,1.0514129666666667,-0.0422992173333333,1.7008207666666668,-2.328532777777778,-6.378203888888889,0.1119971497777777
855,1778412856720,1.0506101,-0.0008841979,2.221532,-1.708387,-6.261261,0.2248681499999999
856,1778412856730,1.0750353,0.060155946,2.36592752,-1.1666800842,-6.226320199999999,0.287418896
857,1778412856740,1.2436464,0.2772350077777777,2.465418111111111,0.3672125166666666,-6.027170466666667,0.3669919333333333
858,1778412856750,1.2948927,0.382004,2.3315995,0.78089184,-5.9307923,0.3537569
859,1778412856760,1.3462506111111112,0.4844015555555555,1.9545111222222225,1.037719208888889,-5.615459288888889,0.2199134864444444
860,1778412856770,1.3392312666666666,0.5286318088888888,1.5817150111111111,0.9528114588888889,-5.119103388888889,-0.0388906075555555
861,1778412856780,1.2258399,0.431171514,1.34642614,0.3848796008,-4.719344959999999,-0.370784276
862,1778412856790,1.0793923,0.32416525,1.2616895,-0.021761434,-4.5367627,-0.5546493
863,1778412856800,1.047777988888889,0.2968330322222222,1.2614184777777775,-0.62718743,-4.3858833,-0.7867713
864,1778412856810,0.8545803679999999,0.121866866,1.392935,-1.150500259,-4.32522617,-1.01632767
865,1778412856820,0.7681850633333333,0.0731343488888888,1.5640039222222222,-1.872365622222222,-4.222379688888889,-1.3773927222222222
866,1778412856830,0.555916595,-0.035657565,1.8256858,-2.4756951700000003,-3.9821132,-1.6186230600000002
867,1778412856840,0.3577546199999999,-0.1840859466666666,2.256259733333333,-3.0959011000000003,-3.4187084999999997,-1.7492629
868,1778412856850,0.22107998,-0.31279266,2.6517706,-3.2868927,-2.8734255,-1.7488557
869,1778412856860,-0.113842008,-0.471411656,2.97782612,-2.83252162,-1.79021007,-1.40116142
870,1778412856870,-0.3684361266666667,-0.57081582,3.0748744,-1.8957813777777777,-0.860539548888889,-0.8341458755555556
871,1778412856880,-0.43514732,-0.5734176,3.0166392,-1.0486721,-0.58022857,-0.38849884
872,1778412856890,-0.394279096,-0.5116457249999999,2.7360104000000005,0.279508428,-0.4537831559999999,0.273369418
873,1778412856900,-0.20208496,-0.38185155,2.2705898,0.9910233,-0.45133978,0.64085513
874,1778412856910,-0.0574179828,-0.217165108,1.9008122,1.45453418,-0.39062156,0.947256122
875,1778412856920,0.1285779668888889,-0.0417775039777777,1.4520528111111113,1.6867783,-0.24853848,1.1979479
876,1778412856930,0.2036704233333333,0.0415776294,1.314009566666667,1.5566679,-0.12575819,1.2633085
877,1778412856940,0.30943269,0.1467097824,1.27951982,1.18734968,0.0078952008,1.2817561
878,1778412856950,0.36288702,0.18360828,1.3446821,1.1089169,0.0086282175,1.2553675
879,1778412856960,0.4701561511111111,0.2534565288888888,1.4315029,1.1383054,0.1129049319444444,1.130347411111111
880,1778412856970,0.600120361,0.336537944,1.4786198000000002,1.19822264,0.3401502879999999,0.89020298
881,1778412856980,0.6279600777777777,0.34487446,1.4320008333333334,1.2303396333333334,0.4960928066666666,0.7654679555555555
882,1778412856990,0.6498855,0.3541975,1.3146499,1.2878951,0.6568135,0.5846572
883,1778412857000,0.5911015000000001,0.3489939444444444,1.174072477777778,1.316672788888889,0.6807044333333334,0.4282802755555555
884,1778412857010,0.5096638355555556,0.3245108122222222,1.0905513777777778,1.3094104888888891,0.5506618355555556,0.2997308657777777
885,1778412857020,0.38825434,0.28318727,0.9954239,1.2714022,0.25426516,0.088649206
886,1778412857030,0.3687952377777778,0.2719467633333333,0.9932625444444444,1.1933495066666664,0.1850273344444444,0.0558670719333333
887,1778412857040,0.35922828,0.27660152,1.0266757,0.99407756,0.14973393,0.0037414393999999
888,1778412857050,0.3345622,0.27855286,1.0747578,0.7100336,0.2817533,-0.03970507
889,1778412857060,0.3271634,0.2751651155555555,1.1163828666666666,0.5109652577777778,0.4379944444444444,-0.0408588933333333
890,1778412857070,0.333446272,0.273967202,1.19960652,0.151963522,0.735490668,-0.041537614
891,1778412857080,0.3505014722222222,0.2794471933333333,1.2342387,0.0374907488888888,0.85730718,-0.0610168562222222
892,1778412857090,0.35874045,0.2748941,1.2958683,-0.0846787,1.0343171,-0.099568106
893,1778412857100,0.35191077,0.26535085,1.3400172,-0.15370443,1.1693144,-0.14843589
894,1778412857110,0.3256795788888889,0.2507971455555555,1.369497211111111,-0.1546546477777778,1.2906693777777778,-0.1658110966666666
895,1778412857120,0.2684303,0.21364051,1.3880993,-0.13354649,1.442974,-0.17042638
896,1778412857130,0.2786321,0.192486838,1.3910811200000002,-0.100377473,1.52800387,-0.162912961
897,1778412857140,0.2912398911111111,0.1805186655555555,1.3847826666666667,-0.050674869,1.679779,-0.16492876
898,1778412857150,0.28648013,0.17604686,1.3583415,-0.049860407,1.7697772,-0.1771457
899,1778412857160,0.2586194188888889,0.1663986,1.3145177666666668,-0.1180122966666666,1.9205885777777776,-0.1840686399999999
900,1778412857170,0.25696623,0.16336319,1.3134303,-0.2120148999999999,2.0620338111111116,-0.18121803
901,1778412857180,0.2613567,0.15430778,1.3002588,-0.27717194,2.1814883,-0.18447587
902,1778412857190,0.2574540288888889,0.1234658733333333,1.3081184,-0.4382998622222222,2.401393411111111,-0.2059233922222222
903,1778412857200,0.25477096,0.10552445,1.317333,-0.5239542,2.5296712,-0.21135315
904,1778412857210,0.25477096,0.10552445,1.317333,-0.5239542,2.5296712,-0.2113531499999999
905,1778412857220,0.25477096,0.10552445,1.317333,-0.5239542,2.5296712,-0.21135315
906,1778412857230,0.25477096,0.10552445,1.317333,-0.5239542,2.5296712,-0.2113531499999999
907,1778412857240,0.23834724,0.0793237333333333,1.333431466666667,-0.64374814,2.750254866666667,-0.1736842377777777
908,1778412857250,0.23013538,0.066223375,1.3414807,-0.69010466,2.8412032,-0.1563769
909,1778412857260,0.23013538,0.066223375,1.3414807,-0.69010466,2.8412032,-0.1563769
910,1778412857270,0.2271507911111111,0.0486749258888888,1.3493775,-0.7243799877777778,3.0221073444444446,-0.1019945252222222
911,1778412857280,0.24281906,0.029605385,1.362488,-0.77989924,3.3989832,0.023288552
912,1778412857290,0.18400463,0.002286719,1.4061795,-0.7084301,3.4692307,0.12530005
913,1778412857300,0.17546757,0.01545822,1.3676103,-0.65101045,3.5920110000000003,0.17233528
914,1778412857310,0.1364679988888889,0.0081407186666666,1.322600922222222,-0.6482955722222222,3.675629111111111,0.2102078133333333
915,1778412857320,0.0640006868,-0.0133727325,1.2838097000000002,-0.64820058,3.8121602,0.285586354
916,1778412857330,0.053427914,-0.0102343368666666,1.2656734666666667,-0.6297665066666667,3.8489739333333337,0.3525352122222222
917,1778412857340,0.0714980746666666,0.0006606075999999,1.2622586333333332,-0.5725505011111112,3.868792622222222,0.4505422711111111
918,1778412857350,0.082230404,0.007165052,1.2746171,-0.5202891,3.858340300000001,0.46432027
919,1778412857360,0.0678325469555555,0.0174908581111111,1.2471866111111112,-0.4172595577777777,3.832548988888889,0.4495241988888889
920,1778412857370,-0.0022257394,0.004969802,1.2070217,-0.314616867,3.84074801,0.4412302410000001
921,1778412857380,-0.0485800703333333,0.0048884966,1.194409133333333,-0.2702320433333333,3.893633833333334,0.4751119066666666
922,1778412857390,-0.0581910644444444,0.0237818753333333,1.1472316333333334,-0.17549133,3.9923874555555554,0.5380970644444445
923,1778412857400,-0.041252404,0.04744179,1.1511343,-0.1306754997,4.0513071499999995,0.55832967
924,1778412857410,-0.0437288387777777,0.0823218733333333,1.0755911666666669,-0.0468061703333333,4.1790351999999995,0.5418978999999999
925,1778412857420,-0.07835823,0.08622454,1.0042354,-0.018707197,4.2376766,0.5211291
926,1778412857430,-0.126236026,0.082297484,0.93139886,0.0016340163999999,4.25154267,0.528398162
927,1778412857440,-0.1443275348888889,0.0902661066666666,0.8630754066666666,0.0460426113333333,4.213649733333333,0.5400653
928,1778412857450,-0.1215619739999999,0.12064728,0.80385786,0.074141584,4.1741486,0.5376219
929,1778412857460,-0.1296112208,0.144752346,0.720389578,0.0599699287999999,4.10603882,0.495412376
930,1778412857470,-0.17058922,0.1636071,0.67281365,0.01305686,4.0171604,0.40873316
931,1778412857480,-0.224144177,0.155524315,0.6934825250000001,0.0257013979999999,3.98674036,0.338180313
932,1778412857490,-0.3193072533333334,0.1341440033333333,0.6689922666666667,0.0906344633333333,3.956890288888889,0.2551390277777778
933,1778412857500,-0.3228847,0.1245499499999999,0.5593314,0.12911785,3.8784983,0.23280916
934,1778412857510,-0.347538562,0.133379736,0.5408730119999999,0.1062721559999999,3.87116818,0.2137507239999999
935,1778412857520,-0.3842195555555555,0.1353906977777778,0.4211560355555556,0.04176668,3.8784983,0.19738002
936,1778412857530,-0.4159388833333333,0.1416241233333333,0.4146075333333334,-0.15393351,3.934289,0.1965655633333333
937,1778412857540,-0.45466065,0.14064845,0.4487762,-0.252982396,4.008975260000001,0.212284698
938,1778412857550,-0.50371844,0.12308645,0.53198224,-0.1813198215555555,3.9849214333333336,0.24746949
939,1778412857560,-0.4923356666666667,0.1377316033333333,0.5070926066666667,0.0784853894444444,3.866688644444445,0.2835773588888888
940,1778412857570,-0.458590798,0.1633143979999999,0.4501878579999999,0.20303036,3.7770977,0.28595287
941,1778412857580,-0.4573031088888888,0.1921724677777777,0.3363814266666666,0.3585927966666666,3.6958549333333335,0.2244609199999999
942,1778412857590,-0.4658571488888889,0.2091450033333333,0.2530432288888888,0.3676876233333332,3.7205604444444447,0.1884888022222222
943,1778412857600,-0.4857722599999999,0.22324472,0.140776502,0.288182464,3.74808243,0.15327684
944,1778412857610,-0.5692439,0.2062654277777778,0.1661953355555555,0.2143649666666666,3.7670525666666665,0.1547564533333333
945,1778412857620,-0.58670494,0.2058047059999999,0.173186938,0.22086709,3.78283962,0.18125365
946,1778412857630,-0.5457025666666666,0.2255721133333333,0.1296315499999999,0.2745673566666666,3.7496095666666664,0.2019953055555555
947,1778412857640,-0.5180586777777778,0.2522064533333333,0.0642889846666666,0.3952436255555555,3.6905610111111113,0.1619508822222222
948,1778412857650,-0.517039315,0.255572841,-0.0369655698,0.431609393,3.64564332,0.122551236
949,1778412857660,-0.5203183111111112,0.2778752877777777,-0.1548836966666666,0.4075284555555555,3.5438218,0.0662514755555555
950,1778412857670,-0.53131145,0.27855286,-0.18037638,0.3644297933333333,3.4895242555555557,0.0270215082333333
951,1778412857680,-0.549166166,0.259938949,-0.2295042419999999,0.268024522,3.49952871,-0.00384070231
952,1778412857690,-0.5525593455555556,0.2579249366666667,-0.2493946266666666,0.1677369666666666,3.489524377777778,-0.0338680877777777
953,1778412857700,-0.578643544,0.24012986,-0.2910779639999999,0.1112810955999999,3.48077576,-0.07446228
954,1778412857710,-0.6237491555555557,0.2137590922222222,-0.28670372,0.060702946,3.4747283,-0.08490777
955,1778412857720,-0.63620244,0.2040159766666666,-0.2756461577777778,0.0573772234444444,3.4566744444444444,-0.0654285277777777
956,1778412857730,-0.588717256,0.219476218,-0.33583668,0.131805571,3.36856308,-0.0398272416
957,1778412857740,-0.53358805,0.2612144233333333,-0.4089669666666666,0.1957001933333333,3.2250954666666667,-0.0775776
958,1778412857750,-0.54692215,0.27294275,-0.42929336,0.2459932799999999,3.092134266666667,-0.16329983
959,1778412857760,-0.5748871849999999,0.248450471,-0.5340007019999999,0.21512514,2.99619056,-0.2137965379999999
960,1778412857770,-0.6107808833333332,0.2248844022222222,-0.5537281355555556,0.16821207,2.9665034,-0.23028941
961,1778412857780,-0.6426492833333334,0.19417799,-0.5534029055555556,0.0932814666666666,2.986186288888889,-0.19560687
962,1778412857790,-0.6024436750000001,0.18397415,-0.5731737050000001,0.083182124,2.9905708399999997,-0.126078868
963,1778412857800,-0.5854101466666667,0.1814130233333333,-0.6053639355555557,0.10773818,2.972612,-0.11728267
964,1778412857810,-0.59280896,0.16263144,-0.6518673,0.182994564,2.91739128,-0.0972468812
965,1778412857820,-0.5865213333333333,0.1571433133333333,-0.7140254,0.32031304,2.7159796,-0.05131117
966,1778412857830,-0.5625836111111111,0.1484876566666666,-0.8285680111111111,0.37230292,2.5740594333333333,-0.0271996711111111
967,1778412857840,-0.50612708,0.158826336,-0.91921826,0.4195146279999999,2.37378296,0.0099720819
968,1778412857850,-0.5008829,0.16084272,-0.9798031,0.3761716333333333,2.2860789111111113,0.0152796662222222
969,1778412857860,-0.5292788666666666,0.14478148,-1.101002611111111,0.3168515833333333,2.2285234666666667,0.027971715
970,1778412857870,-0.5374094,0.13479444,-1.1504635,0.26228255,2.169882,0.049554985
971,1778412857880,-0.5515565800000001,0.1259863455555555,-1.1536377555555557,0.2053380033333333,2.0889109,0.0878347472222222
972,1778412857890,-0.55863017,0.10308529,-1.1961063,0.14377818,1.9542531,0.16500512
973,1778412857900,-0.5369459689999999,0.103597508,-1.21540012,0.146221556,1.82670822,0.229999264
974,1778412857910,-0.5106022988888889,0.1047384922222222,-1.2359190333333334,0.2356767422222222,1.4789460111111112,0.3109976155555556
975,1778412857920,-0.4560429033333333,0.1352856622222222,-1.2603174666666668,0.3820086,1.1326635,0.35009184
976,1778412857930,-0.411048398,0.157948236,-1.35423756,0.5417451759999999,0.7230904340000001,0.324924919
977,1778412857940,-0.4063652,0.15970443,-1.3923069,0.63856447,0.40575528,0.29572642
978,1778412857950,-0.420634295,0.16080207,-1.4472155399999995,0.623476509,0.1915998769999999,0.2706206109999999
979,1778412857960,-0.4172330222222222,0.1587016755555555,-1.479307188888889,0.5023455,-0.30229303,0.21692713
980,1778412857970,-0.4027064,0.1662902,-1.4313639,0.356353,-0.542356,0.16195089
981,1778412857980,-0.424317422,0.153923624,-1.3470298,0.237604306,-0.729825042,0.1137550359999999
982,1778412857990,-0.45485377,0.1428436966666667,-1.2463802777777775,0.1199551299999999,-0.95895386,0.06299362
983,1778412858000,-0.4765623677777778,0.1365018633333333,-1.1693161666666667,0.0910416924444444,-1.1622302444444443,0.0346910326666666
984,1778412858010,-0.50372755,0.125184131,-1.06590672,0.1012632019999999,-1.48440466,0.0198678076
985,1778412858020,-0.5145354333333334,0.1172053477777777,-1.0316929777777777,0.1110639122222222,-1.640387888888889,0.0278359712222222
986,1778412858030,-0.5178113444444444,0.1050366144444444,-0.9640975266666668,0.1273531733333333,-1.782511688888889,0.0479260577777777
987,1778412858040,-0.513490325,0.1091832,-0.91362037,0.178779727,-1.91285291,0.0831515868
988,1778412858050,-0.5222052833333333,0.1228696344444444,-0.93061324,0.2223738533333333,-2.0230497333333335,0.112675864
989,1778412858060,-0.5234994111111111,0.1365289766666666,-0.9661878533333332,0.2246814999999999,-2.118341911111111,0.1285578888888888
990,1778412858070,-0.5081089,0.15113688,-0.9976802,0.19997612,-2.1953087,0.12713258
991,1778412858080,-0.50225496,0.1636071,-0.9971923,0.1168330237222222,-2.3142203111111113,0.1033774133333333
992,1778412858090,-0.4971326733333334,0.1761281633333333,-0.9568546233333332,-0.0174855024444444,-2.487777311111111,0.0517947563333333
993,1778412858100,-0.5034104850000001,0.17090021,-0.906464465,-0.113083094,-2.67954256,-0.0052609213
994,1778412858110,-0.5178961111111111,0.1592979188888889,-0.8223989488888889,-0.1546546377777777,-2.8367745777777778,-0.0459492868888888
995,1778412858120,-0.5257014,0.15799703,-0.73193294,-0.1622563,-2.958944,-0.06658235
996,1778412858130,-0.5387997299999999,0.147789115,-0.6854424349999999,-0.164516435,-2.97946852,-0.0682316375
997,1778412858140,-0.570826,0.12747695,-0.60284007,-0.17141901,-3.0053685,-0.06658235
998,1778412858150,-0.5851594733333333,0.1181539088888889,-0.5700976155555555,-0.1784098166666666,-3.0046898444444445,-0.0413255146111111
999,1778412858160,-0.591296684,0.114256656,-0.486717466,-0.1095401815,-3.0781204000000004,0.01070509805
1000,1778412858170,-0.5813449,0.13162352,-0.43322653,-0.023593975,-3.1709082,0.014125843
