id,timestamp,acc_x,acc_y,acc_z,gyro_x,gyro_y,gyro_z
0,1778412981240,0.9880556333333332,-0.032488345,0.0574288235555555,0.0558161673333333,0.0116824536666666,-0.0252483526666666
1,1778412981250,0.9898443533333332,-0.0309164376666666,0.053580361,0.0566306313333333,0.0234921666666666,-0.0270808943333333
2,1778412981260,0.98935646,-0.0299407729999999,0.045612417,0.0533727779999999,0.03245126,-0.029931515
3,1778412981270,0.9853725444444444,-0.039751642,0.0379154922222222,0.0526261866666666,0.037134424,-0.0276238701111111
4,1778412981280,0.984396881111111,-0.0422721151111111,0.0316244734444444,0.0518117246666666,0.0329942356666666,-0.0243660178888888
5,1778412981290,0.979673041,-0.0434293630999999,0.0174583357,0.0466534599999999,0.01534753775,-0.014660334
6,1778412981300,0.97520932,-0.043844022,0.0015956213333333,0.04421007,0.0080173705,-0.010384403
7,1778412981310,0.9744199533333332,-0.0440608375555555,-0.0150754046666666,0.0268348593333333,0.0129041487222222,-0.0032578520666666
8,1778412981320,0.95745422,-0.04116094,-0.037624146,-0.0056757889999999,0.0033342081,0.0037414394333333
9,1778412981330,0.951104282,-0.0406487139,-0.0434049741,-0.0254265165999999,-0.00713164176,0.0104607594
10,1778412981340,0.95357868,-0.0376647987777777,-0.0290735125555555,-0.0614665053333333,-0.0041995748333333,0.0186053896666666
11,1778412981350,0.959763318,-0.0275503888,-0.01115309008,-0.0843732797,0.01944021445,0.0167524857499999
12,1778412981360,0.9615195,-0.022135438,-0.0044209897,-0.095063105,0.040392276,0.0086282175
13,1778412981370,0.9700362666666664,-0.0231653086666666,0.0259940635888888,-0.0900405838888888,0.0707988953333333,-0.0166710397222222
14,1778412981380,0.9808194,-0.024574606,0.04170975,-0.0822964,0.1085628305,-0.0526550335
15,1778412981390,0.9932320444444444,-0.0268511615555555,0.0500571222222222,-0.065538822,0.1195988033333333,-0.0908126253333333
16,1778412981400,0.9983814,-0.029696856,0.0592717499999999,-0.052914646,0.12407835,-0.120947756
17,1778412981410,1.01655626,-0.0280870046,0.079193646,-0.0439962744,0.1542618379999999,-0.1543000174
18,1778412981420,1.0487400333333334,-0.032786466,0.1057277133333333,-0.02481567,0.21822518,-0.21013145
19,1778412981430,1.0591471,-0.037014354,0.09564582,-0.01809635,0.25793025,-0.24128467
20,1778412981440,1.0748391666666666,-0.0409983273333333,0.0784801913333333,-0.0089336408666666,0.24428801,-0.2649041
21,1778412981450,1.0793922,-0.0381526313333333,0.061141775,0.0030796881666666,0.2143564866666666,-0.2773246466666667
22,1778412981460,1.07383093,-0.0370875288,0.0463197735999999,0.00645970956,0.1848576519999999,-0.27866852
23,1778412981470,1.0661936333333333,-0.0424076216666666,0.0147535716111111,0.0085773131333333,0.1151192513333333,-0.2606281633333333
24,1778412981480,1.0647842888888888,-0.0468794271111111,0.0028152047888888,0.0012471464111111,0.0889206924444444,-0.2410810533333333
25,1778412981490,1.05875688,-0.0523323208,-0.0135434735,-0.01076618275,0.0568851475,-0.209215191
26,1778412981500,1.0506371666666667,-0.058397716,-0.0254588031111111,-0.0240012063333333,0.0112752225555555,-0.1632319566666666
27,1778412981510,1.044756,-0.06579652,-0.03591673,-0.025426516,-0.028633466,-0.12949961
28,1778412981520,1.07716036,-0.0899259799999999,-0.10271331,-0.01272089388,-0.156667048,-0.0507003204
29,1778412981530,1.0933801,-0.0937419211111111,-0.1312949188888889,-0.0016034741777777,-0.2149418755555555,-0.0138373875555555
30,1778412981540,1.10605845,-0.091511441,-0.165159019,0.0109799796,-0.287388348,0.022005773
31,1778412981550,1.1332199111111112,-0.08119376,-0.2424836533333333,0.0471285637777777,-0.426838,0.0743961051111111
32,1778412981560,1.144880477777778,-0.08179,-0.2738845377777778,0.0680331135555555,-0.4537152944444444,0.0903460073333333
33,1778412981570,1.1719952399999998,-0.0823401679999999,-0.327455079,0.117145236,-0.493976924,0.1135717764
34,1778412981580,1.1887279,-0.0787546,-0.36657628,0.15233004,-0.51303536,0.123467505
35,1778412981590,1.2104601888888888,-0.0716471371111111,-0.4278637288888889,0.2199304733333333,-0.5143927933333333,0.106906755
36,1778412981600,1.2272972,-0.055308107,-0.5069198,0.32336727,-0.49593163,0.06849125
37,1778412981610,1.186691788888889,-0.0632523333333333,-0.6690024333333333,0.41132927,-0.44706383,0.024510246
38,1778412981620,1.1170347,-0.095292144,-0.81088878,0.4371681109999999,-0.306263541,0.033184277
39,1778412981630,1.0896672,-0.1124151,-0.8737095,0.44126078,-0.18134528,0.05260922
40,1778412981640,1.0310866,-0.1491956966666666,-0.8964242666666666,0.3893387733333333,-0.0872748008888888,0.1363631661111111
41,1778412981650,1.02789532,-0.185678509,-0.916352235,0.317869644,0.0389262408,0.2313431259999999
42,1778412981660,1.021038477777778,-0.2028065455555555,-0.9435577777777778,0.2337084444444444,0.1738454311111111,0.3210426411111111
43,1778412981670,1.0006036911111111,-0.2390146188888889,-0.9795829333333336,0.1435745622222222,0.1774850722222222,0.4419904133333333
44,1778412981680,0.97764856,-0.2405323199999999,-1.008443,0.080860905,0.1118614099999999,0.53273517
45,1778412981690,0.993448857777778,-0.1962072444444444,-0.9600830877777778,-0.0461274522222222,0.0181302869444444,0.6597914022222222
46,1778412981700,1.00291823,-0.1617655389999999,-0.907513275,-0.1521315099999999,0.022311196,0.73138269
47,1778412981710,0.9792610666666668,-0.1626653166666666,-0.8616491544444445,-0.22402823,0.07215633,0.75874865
48,1778412981720,0.943767772222222,-0.1858136844444444,-0.83991349,-0.4036852022222222,0.2554189955555556,0.8421632222222222
49,1778412981730,0.91688275,-0.23223916,-0.8427321300000001,-0.49219018,0.31351736,0.9181798
50,1778412981740,0.9591176444444446,-0.2476465688888888,-0.833371791111111,-0.5946088944444444,0.2083667977777777,1.0229061555555556
51,1778412981750,1.0159435,-0.23516616,-0.81855386,-0.673001,-0.05062397,1.1264787
52,1778412981760,1.07705985,-0.194980889,-0.774844006,-0.6877224200000001,-0.235466353,1.16264088
53,1778412981770,1.1026490333333332,-0.1819686122222222,-0.678532138888889,-0.7330676333333332,-0.4169287086666667,1.1561387222222224
54,1778412981780,1.0891794,-0.24175191,-0.61040145,-0.7786775,-0.014583978,1.0415709
55,1778412981790,1.129852522222222,-0.2344106922222222,-0.5918773588888889,-0.8665038088888889,0.2075523204444444,0.8150823444444444
56,1778412981800,1.1375257444444444,-0.2123938233333333,-0.5503065155555555,-0.9333576666666666,0.3017076377777777,0.6384796388888889
57,1778412981810,1.05641532,-0.0892308198,-0.3581001648,-0.96755152,0.321336184,0.493396594
58,1778412981820,1.035721,0.0272576873333333,0.0749840506666666,-0.8599202333333333,0.3357114666666667,0.3215856266666666
59,1778412981830,1.0044794,0.04549046,0.2816018,-0.7316423,0.54625016,0.12652174
60,1778412981840,1.01629104,0.015567982,0.4208050479999999,-0.628348047,0.6481394760000001,-0.048394374
61,1778412981850,0.9981916811111112,-0.0774062794444444,0.8011747866666666,-0.3858858311111111,0.7276039066666666,-0.4079102355555555
62,1778412981860,0.910034832,-0.2228300799999999,1.128693926,0.265581116,0.40453361,-1.28931535
63,1778412981870,0.6084704433333333,-0.3262792,0.85706222,0.301987609,0.4489218333333333,-1.6871601333333333
64,1778412981880,0.28648013,-0.4133168,0.7335794,0.040544987,0.46073154,-1.9253906
65,1778412981890,-0.132071734,-0.5045477239999999,0.767843564,-0.6579588326,0.68369081,-1.59357836
66,1778412981900,-0.7268344244444446,-0.6502581266666666,0.9076206577777778,-1.6075972,0.8974873400000001,-0.8845068
67,1778412981910,-0.2300777888888889,-0.518475331111111,1.8931253777777777,-2.4695027,0.910926,0.29572642
68,1778412981920,1.54137345,0.148423302,3.12345045,-2.63931823,0.60689963,2.169194942
69,1778412981930,2.6220129,0.46865538,2.9009619,-2.05657,-0.5020401,2.2980838
70,1778412981940,2.3320433666666665,0.3492310755555555,2.1158348333333334,-1.449998688888889,-0.4543261333333333,1.5892295
71,1778412981950,1.53011984,0.55470308,0.940268306,-0.2265861629999999,-0.19704405,0.449285797
72,1778412981960,1.3892883333333332,0.3973910866666666,0.2261920655555555,-0.0939856411111111,-0.2071366095555555,-0.1106990966666666
73,1778412981970,0.378692816,0.01697052,0.4876260099999999,-0.309180334,-0.1549566835999999,-0.567232762
74,1778412981980,-0.32825086,-0.33401337,1.1433289,-0.32237464,-0.33161372,-0.37811446
75,1778412981990,-0.1952485222222222,-0.6128000044444444,0.7147300822222222,-0.2431002422222222,-0.2439231911111111,0.0804791266666666
76,1778412982000,0.143904742,-0.73700641,0.4166523769999999,-0.187721002,0.0644214789999999,0.6453754
77,1778412982010,0.30839875,-0.6801142155555555,0.4706948155555556,-0.15859123,0.38987327,0.6872795
78,1778412982020,0.57546043,-0.50069994,0.33358654,0.1468324,1.1118947,0.5822138
79,1778412982030,0.707224166,-0.4255248199999999,0.294340348,0.27193392,1.21500574,0.45760096
80,1778412982040,0.8825311577777778,-0.3116713022222221,0.3806861866666666,0.4271434244444445,1.055764611111111,0.2898894533333334
81,1778412982050,0.9442284866666666,-0.1630921711111111,0.3761059644444444,0.6385644666666667,0.7547526999999999,0.0876311286666666
82,1778412982060,0.885508955,-0.0637232339999999,0.225958307,0.6311731899999999,0.698778725,0.0852284632
83,1778412982070,0.8610665033333333,0.012053548,0.1014896626666666,0.5473445666666668,0.4943281399999999,0.1914751633333333
84,1778412982080,0.92810297,0.05256404,0.07122366,0.4711923,0.27442312,0.32016033
85,1778412982090,1.2755080188888888,0.0567783822222222,0.0991114733333333,0.4065103622222222,-0.0282177482222222,0.3996383377777778
86,1778412982100,1.502096433333333,0.0323697755555555,0.1879140799999999,0.1989580533333333,-0.5539620866666666,0.4229862666666666
87,1778412982110,1.5328028,0.0108664887999999,0.3040116439999999,0.066322744,-0.6370373220000001,0.317839094
88,1778412982120,1.378796577777778,-0.0831959088888888,0.4263765177777778,-0.0529146444444444,-0.3571335477777778,0.0576656744444444
89,1778412982130,1.2768428,-0.13391025,0.41850004,-0.0742943,-0.18439952,-0.05131117
90,1778412982140,1.2441061,-0.201026976,0.204094224,-0.104958828,0.11482401075,-0.098285323
91,1778412982150,1.238029533333333,-0.25176266,0.0901068866666666,-0.1584724411111111,0.3158928622222222,-0.1104276066666666
92,1778412982160,1.26190288,-0.270271868,0.25095367,-0.269475272,0.111296352,-0.085762952
93,1778412982170,1.238439422222222,-0.2598322333333333,0.45764865,-0.3822376733333333,-0.19274777,-0.0932560133333333
94,1778412982180,1.1965332,-0.2476364,0.5593314,-0.40178478,-0.20700087,-0.1551552
95,1778412982190,1.07169062,-0.21257948,0.5163838000000001,-0.297574236,-0.113907736,-0.285021332
96,1778412982200,1.0044794,-0.20028608,0.3889861,-0.2262001322222222,-0.1003062088888889,-0.3330475077777777
97,1778412982210,0.96493435,-0.21979941,0.29965162,-0.22402823,-0.18501036,-0.30969957
98,1778412982220,0.96493435,-0.2197994099999999,0.29965162,-0.22402823,-0.18501036,-0.30969957
99,1778412982230,0.96493435,-0.21979941,0.29965162,-0.22402823,-0.18501036,-0.30969957
100,1778412982240,1.0275538750000002,-0.302176158,0.308213104,-0.1518489965,-0.126735533,-0.2723157109999999
101,1778412982250,0.8858477566666667,-0.32241379,0.5172930911111112,0.0048443582444444,-0.0977949477777777,-0.1352008588888889
102,1778412982260,0.9069432,-0.3019688333333333,0.5204368733333333,0.0632142067777777,-0.1387217122222222,-0.0047170988888888
103,1778412982270,0.96343124,-0.2690522899999999,0.492263461,0.1265522764,-0.144572274,0.133729737
104,1778412982280,1.0242366,-0.24958774,0.4587767699999999,0.1584385,-0.1416402,0.18760647
105,1778412982290,1.0419205333333332,-0.2392212777777778,0.4768333766666667,0.1842298333333333,-0.1690604577777777,0.2028097811111111
106,1778412982300,1.0425608,-0.21662849,0.52686,0.311028148,-0.264359425,0.223463197
107,1778412982310,0.990759,-0.1867825822222222,0.5835097,0.4390888888888889,-0.2708004688888888,0.2286689711111111
108,1778412982320,0.8946558000000001,-0.1080246,0.6442449,0.5854207,-0.1776802,0.23769593
109,1778412982330,0.8923142800000001,-0.100219268,0.6342931399999999,0.59837068,-0.162042508,0.23891763
110,1778412982340,0.9208802944444444,-0.0831891391111111,0.57320421,0.7636524,0.0221516988888888,0.2442795233333333
111,1778412982350,0.97191644,-0.0725042308,0.519883992,0.961336136,0.260862328,0.232198314
112,1778412982360,1.0187993000000002,-0.0488849646666666,0.5363828933333333,0.9988964577777778,0.2870388311111111,0.2106829166666666
113,1778412982370,1.0700489222222225,-0.0030150804444444,0.5808570422222222,1.0160680666666666,0.1053456983333333,0.12224581
114,1778412982380,1.1030827,0.044270877,0.63741523,1.012403,0.038559735,0.05505261
115,1778412982390,1.0535879444444445,0.0368348070555555,0.5789599177777778,1.0069053555555554,-0.0076610421111111,-0.0863839837777777
116,1778412982400,1.0222310777777777,0.0071108486111111,0.5358002222222222,1.0233982333333334,-0.0188599096666666,-0.2180724799999999
117,1778412982410,1.01362618,-0.0145221895,0.4993675599999999,1.0424567,0.0038636079,-0.272315723
118,1778412982420,1.031584588888889,-0.0721146455555555,0.46274043,1.0696868777777775,0.2682722411111111,-0.4211452588888889
119,1778412982430,1.0435365,-0.09534093,0.55103827,1.0679901,0.46684003,-0.46424392
120,1778412982440,1.0324653888888888,-0.1005444855555555,0.4850858788888889,1.0253664866666667,0.7725351322222223,-0.4737459866666667
121,1778412982450,1.025452828888889,-0.0964792077777777,0.4223112022222222,0.9388298211111112,0.8319909200000001,-0.4633615822222222
122,1778412982460,0.987258818,-0.099487512,0.285120288,0.6669688500000001,0.4170177975,-0.3567348
123,1778412982470,0.9835025,-0.079476181,0.2372597833333333,0.4135690533333333,-0.0614155966666666,-0.23436174
124,1778412982480,1.0005767,-0.042380523,0.22912921,0.22624256,-0.36887538,-0.14965758
125,1778412982490,1.0204803,-0.0233428258,0.254606314,0.0490357635,-0.657439627,-0.167921914
126,1778412982500,1.0289522999999998,-0.016179806,0.3330885266666666,-0.1209901805555555,-0.8804260322222223,-0.25139758
127,1778412982510,1.0247244111111111,-0.0184699124444444,0.3842365088888889,-0.14454174,-0.7357909866666666,-0.3864626999999999
128,1778412982520,1.011040725,-0.02540697,0.347367839,-0.11125056,-0.470398211,-0.56332333
129,1778412982530,0.99106395,-0.053600688,0.3140732,-0.08773294,-0.27113983,-0.6804838
130,1778412982540,0.98295983,-0.0976764348,0.234800288,-0.0911536839999999,-0.183544332,-0.73949165
131,1778412982550,0.96712965,-0.15781409,0.09784108,-0.10483666,0.16683766,-0.97552305
132,1778412982560,0.9614382666666664,-0.1600093366666666,0.08839947,-0.1087053588888888,0.1633083199999999,-0.9793917555555556
133,1778412982570,0.8676969379999999,-0.139730713,0.174586408,-0.208268376,-0.14396143,-1.00191166
134,1778412982580,0.8027433133333334,-0.1271043022222222,0.21561217,-0.18920994,-0.25098187,-0.96452785
135,1778412982590,0.7693030155555556,-0.1230119177777777,0.26699389,-0.1125825411111111,-0.3347358122222222,-0.84724517
136,1778412982600,0.756562434,-0.131394863,0.304411058,-0.0344670574,-0.298505794,-0.72837428
137,1778412982610,0.8157386333333333,-0.1466752333333333,0.3602547666666666,0.0599563583333333,-0.0927724277777777,-0.6470908488888889
138,1778412982620,0.8613612079999999,-0.147130546,0.355002422,0.131316894,0.100514916,-0.601806708
139,1778412982630,0.87075204,-0.14635001,0.31773195,0.17920731,0.27503398,-0.5754181
140,1778412982640,0.87075204,-0.14635001,0.31773195,0.17920731,0.27503398,-0.5754181
141,1778412982650,0.869654394,-0.147911068,0.149127601,0.240047708,0.327200343,-0.49881786
142,1778412982660,0.8386600466666666,-0.0712575472222222,0.1094406744444444,0.2850875066666666,-0.1591511533333333,-0.2080953066666666
143,1778412982670,0.8437078111111112,-0.0323731625555555,0.1453370788888889,0.28997428,-0.3589660711111111,-0.0593030866666666
144,1778412982680,0.8869085099999999,0.0174674832999999,0.2147137579999999,0.29123671,-0.4060759929999999,0.0410031229999999
145,1778412982690,0.9459631,0.0580657175555555,0.2500959066666667,0.2624861666666666,-0.28417123,0.0684912513333333
146,1778412982700,0.9639587,0.07085779,0.26160064,0.23235102,-0.15752223,0.063604474
147,1778412982710,0.9639343,0.060296201,0.176056004,0.2152473,-0.017638214,0.0458899
148,1778412982720,0.9653679111111112,0.041096572,0.0502739382222222,0.21891238,-0.058768598,0.0609574666666666
149,1778412982730,0.91223612,0.0231172016,0.0441489184,0.2363215389999999,-0.214941881,0.11259442
150,1778412982740,0.8829479,0.013750802,0.06683317,0.25556323,-0.24914932,0.14423631
151,1778412982750,0.8829479,0.013750802,0.06683317,0.25556323,-0.24914932,0.14423631
152,1778412982760,0.87494742,-0.0045917316,0.094956762,0.25409719,-0.095215816,0.221936078
153,1778412982770,0.973502,0.00033538544,0.0089944275,0.14438902,0.18943901,0.29083964
154,1778412982780,0.9729464,0.0021783114666666,-0.0322139402777777,0.0811323927777777,0.1200060355555555,0.30027384
155,1778412982790,0.9543423,0.0033599522799999,-0.08582818,-0.0953074459999999,-0.1481151989999999,0.327246147
156,1778412982800,0.8827039,-0.0011281146,-0.0942433,-0.163478,-0.34932828,0.35253522
157,1778412982810,0.890923884,-0.00728701036,-0.0237544358,-0.191912941,-0.4171934069999999,0.363041795
158,1778412982820,0.91294956,-0.016525354,0.06512575,-0.2374668766666666,-0.4609097033333333,0.3600690066666667
159,1778412982830,0.9839022177777778,-0.0444944659999999,0.0972414477777777,-0.22402823,-0.35177165,0.32749048
160,1778412982840,1.07984962,-0.0595034729999999,0.0202267903328,-0.202587494,-0.185193611,0.2230355979999999
161,1778412982850,1.1031368777777777,-0.0656068077777777,-0.037996794352,-0.2087570588888889,-0.1106227411111111,0.1411142044444444
162,1778412982860,1.0474900022222222,-0.0721180277777777,-0.1484029677777777,-0.2577605788888888,0.0021803855111111,-0.0059133403999999
163,1778412982870,0.977599721,-0.067452107,-0.232385506,-0.343937542,0.0504712559,-0.117404843
164,1778412982880,0.9801689766666668,-0.0522997976666666,-0.1948589299999999,-0.4125764133333333,0.0255283256666666,-0.1891590333333333
165,1778412982890,0.976063015,-0.050551729,-0.118391055,-0.462014332,0.0243880777999999,-0.261076116
166,1778412982900,0.975124631111111,-0.0465813086666666,-0.1073639866666666,-0.4771904966666666,0.0362520900555555,-0.2935460355555556
167,1778412982910,0.9705444,-0.035306938,-0.17525412,-0.51356983,0.0080173705,-0.34512872
168,1778412982920,0.90622055,-0.040112098,-0.15980505,-0.538003732,-0.0972926973999999,-0.3509928439999999
169,1778412982930,0.7912555133333333,-0.0723924366666666,-0.1475289366666666,-0.5453339133333333,-0.33222455,-0.2862837533333333
170,1778412982940,0.7994470355555556,-0.0972380533333333,-0.1488298266666666,-0.5352209688888888,-0.4864295444444444,-0.2080274333333333
171,1778412982950,0.8597757999999999,-0.10460976,-0.15793604,-0.5520532,-0.6547519,-0.11300674
172,1778412982960,0.8718090333333334,-0.10460976,-0.1560660133333333,-0.5699714,-0.663711,-0.0995680999999999
173,1778412982970,0.978979888888889,-0.0821829816666666,-0.0865667057777777,-0.6762588022222222,-0.6081917777777778,-0.025994944
174,1778412982980,1.06719645,-0.037121069,-0.0765440964999999,-0.7056201879999999,-0.49617597,-0.0438588334
175,1778412982990,1.0842062777777777,-0.0104579277777777,-0.1229780344444444,-0.6933625266666666,-0.3802778799999999,-0.1569877466666666
176,1778412983000,0.9993571,-0.0260381069999999,-0.1911087,-0.65638591,-0.387689489,-0.225769147
177,1778412983010,0.9195556933333332,-0.0993249033333333,-0.1920945433333333,-0.5873466355555556,-0.4649820144444445,-0.2355834244444444
178,1778412983020,0.9335537911111113,-0.1121711795555555,-0.1710770571111111,-0.5145200555555556,-0.5267454533333333,-0.1738878566666666
179,1778412983030,0.9869174,-0.118025176,-0.096682474,-0.44882002,-0.5191438,-0.11361759
180,1778412983040,1.0117968666666668,-0.114447732,-0.0374513733333333,-0.3380530533333333,-0.4181504,-0.0777812166666666
181,1778412983050,1.0242366,-0.11265901,-0.007835823,-0.28266957,-0.3676537,-0.05986303
182,1778412983060,0.982624435,-0.133785246,-0.0676746835,-0.0021608731999999,-0.075729789,-0.133286874
183,1778412983070,0.9838277133333332,-0.1509031166666666,-0.1315625566666666,0.0904308466666666,-0.0062357333333333,-0.1451780333333333
184,1778412983080,0.99160054,-0.132580906,-0.1175129539999999,0.16564651,0.0221279412,-0.1005454608999999
185,1778412983090,0.98838085,-0.10826851,-0.1088783,0.2280751,0.029397024,-0.037261683
186,1778412983100,0.9363181833333332,-0.07051563,-0.0492271266666666,0.3306974377777777,0.1233317582222222,0.0969210974444444
187,1778412983110,0.951918355,-0.0445757715999999,0.0242056813,0.433503026,0.284181415,0.2061151339999999
188,1778412983120,1.0218888666666668,-0.044738384,0.0348597573333333,0.6095152333333334,0.47281275,0.2785548333333333
189,1778412983130,1.053781,-0.05433244,0.05195425,0.6762333277777778,0.5063414877777778,0.2774688955555555
190,1778412983140,1.14782924,-0.082004784,-0.02482461776,0.8177870260000001,0.50813329,0.2274337119999999
191,1778412983150,1.174878877777778,-0.1021705966666666,-0.08183404,0.8772021022222222,0.4605958044444444,0.1814301177777778
192,1778412983160,1.18938645,-0.096584904,-0.205265027,0.9196763879999998,0.2602285535,0.1036760474
193,1778412983170,1.1581502666666668,-0.0763899566666666,-0.24984859,0.9046902633333332,0.0487405213333333,0.0361163451666666
194,1778412983180,1.0942915,-0.0589668543333333,-0.2975275233333334,0.89349138,-0.1060074506666666,0.0037159876666666
195,1778412983190,1.0645133,-0.042380523,-0.36779585,0.8865684,-0.2436516999999999,-0.009773556
196,1778412983200,1.0027142666666666,-0.0458495582222222,-0.3719966388888889,0.8458452622222222,-0.3294417977777777,-0.0124884324444444
197,1778412983210,0.9515087666666666,-0.0680730766666666,-0.3890369466666666,0.7574760333333334,-0.2265479833333333,0.04650075
198,1778412983220,0.92740166,-0.06443059,-0.458849952,0.6375870960000001,-0.1014464612,0.138616518
199,1778412983230,0.9556654999999998,-0.05213719,-0.49033347,0.544494,-0.023746688,0.18882816
200,1778412983240,0.980379011111111,-0.0061995489,-0.4531768366666666,0.4519166833333333,0.1061007713333333,0.2088503688888888
201,1778412983250,0.9729835999999998,0.011067719,-0.4600573199999999,0.3740676,0.2127275599999999,0.21081866
202,1778412983260,0.9800978666666668,-0.0005996276666666,-0.5011301777777778,0.2733456666666666,0.2024449644444444,0.1868598688888889
203,1778412983270,1.00682098,-0.0455026566,-0.5471294600000001,0.187087245,0.135134683,0.1718466059999999
204,1778412983280,1.0261405555555556,-0.0742014877777777,-0.5725401555555556,0.0554089396666666,0.0576996153333333,0.1727425166666666
205,1778412983290,1.1252316666666666,-0.1045284544444444,-0.5992829333333334,-0.037643462,-0.0219141446666666,0.1774256755555555
206,1778412983300,1.1933622,-0.09143826,-0.5637829,-0.15981291,-0.05612159,0.15950748
207,1778412983310,1.2326329111111112,-0.0278708664888888,-0.4913260911111111,-0.3296963233333334,-0.0168237513333333,0.0634432705555555
208,1778412983320,1.2411191666666666,-0.0072361940666666,-0.39384412,-0.4332094688888889,-0.0055570128555555,-0.0452026966666666
209,1778412983330,1.19742966,-0.0411121542,-0.260612776,-0.472520904,-0.0079868277599999,-0.1885074659999999
210,1778412983340,1.158089288888889,-0.0789273688888888,-0.1542095377777778,-0.4342954311111111,-0.0375246866666666,-0.3213735388888889
211,1778412983350,1.14147514,-0.099731428,-0.095603144,-0.391644728,-0.0693769775999999,-0.385139208
212,1778412983360,1.1227586,-0.1203932033333333,0.0019208433333333,-0.3161982833333333,-0.0770261428888888,-0.4290862566666666
213,1778412983370,1.1075510222222222,-0.1388969855555555,0.0887348516666666,-0.1775868744444444,-0.0393572288888888,-0.4823657
214,1778412983380,1.0620254,-0.165034022,0.107890445,-0.10483666,0.004352287,-0.5008947
215,1778412983390,1.0447290111111112,-0.1685735188888888,0.0751432767777777,0.0864263977777777,0.1015448711111111,-0.4833838022222222
216,1778412983400,1.0437804,-0.16220458,0.0556130039999999,0.15294088,0.091092594,-0.4520269599999999
217,1778412983410,1.03670688,-0.1367823688,0.0504358694,0.222882889,0.0896876484,-0.4005936229999999
218,1778412983420,1.0335901555555551,-0.1116020342222222,0.0095093634444444,0.2802007333333333,0.0792828833333333,-0.3359659933333334
219,1778412983430,1.03982896,-0.0978776645,-0.0453197168999999,0.2856779909999999,0.063054707,-0.279279377
220,1778412983440,1.0550006333333333,-0.0964792066666666,-0.12295433,0.2449073311111111,0.0201664444444444,-0.2291355955555555
221,1778412983450,1.0491467,-0.10460976,-0.16135088,0.2256317,-0.0096972,-0.21501824
222,1778412983460,1.04946374,-0.1009022286,-0.180034893,0.1234980431999999,-0.077867752,-0.172747604
223,1778412983470,1.051206322222222,-0.0943652635555555,-0.1971524166666666,0.0372871342222222,-0.10118854,-0.1477571588888888
224,1778412983480,1.0540249,-0.08265726,-0.18501079,-0.0179606064444444,-0.0882250122222222,-0.1447707999999999
225,1778412983490,1.01916312,-0.082120642,-0.204780238,-0.164241558,-0.030343838,-0.110319008
226,1778412983500,1.0027719,-0.08899909,-0.2296780299999999,-0.2093679,-0.02741177,-0.087962
227,1778412983510,0.9941264666666666,-0.0939858394444444,-0.2534091066666666,-0.2828053088888889,-0.0981343066666666,-0.0412491567555555
228,1778412983520,1.0035037,-0.08826735,-0.2467522,-0.362201872,-0.16057647,-0.00102316912
229,1778412983530,1.0387428555555551,-0.0891617011111111,-0.2375985611111111,-0.4076217644444444,-0.1476808122222222,0.0028421368888888
230,1778412983540,1.06495238,-0.111049158,-0.284199508,-0.446620972,-0.131011468,-0.011483928
231,1778412983550,1.0601228,-0.11997651,-0.30483487,-0.4524850999999999,-0.14225106,-0.01343864
232,1778412983560,1.053936822222222,-0.1172663255555555,-0.34952581,-0.4603582466666666,-0.1666849488888889,-0.0137101271111111
233,1778412983570,1.0206753899999998,-0.109146608,-0.428448756,-0.46592376,-0.2228829,-0.015882028
234,1778412983580,1.0117968,-0.10778067,-0.4481054,-0.46592376,-0.2228829,-0.015882028
235,1778412983590,1.0063493433333333,-0.0974548666666666,-0.4628318666666666,-0.4920544444444444,-0.2538324922222222,-0.0030966553333333
236,1778412983600,1.000064473,-0.0851452115,-0.485013043,-0.58381724,-0.27541575,0.037948888
237,1778412983610,0.9915788433333332,-0.0958287604444444,-0.479543561111111,-0.6446983533333334,-0.1706893866666666,0.084169664
238,1778412983620,0.982084705,-0.099438729,-0.470692083,-0.69621314,-0.0830599526,0.132202624
239,1778412983630,0.973319,-0.0974548706666666,-0.4633197066666666,-0.7330676266666667,-0.0337917317777777,0.1909321844444444
240,1778412983640,1.0035850000000002,-0.0858281766666666,-0.4753631133333333,-0.7665284877777778,-0.0731574437777777,0.2613153611111111
241,1778412983650,1.0305784,-0.07753501,-0.44639802,-0.768904,-0.14774868,0.2798444
242,1778412983660,1.0454573333333332,-0.0596206855555555,-0.4484442111111111,-0.7773201244444444,-0.09182222,0.2776725022222222
243,1778412983670,1.0600415,-0.0614873266666666,-0.48876838,-0.7885868722222222,-0.1127946444444444,0.2784190988888889
244,1778412983680,1.07287966,-0.0743122579999999,-0.515722188,-0.7933379,-0.1660741,0.28045526
245,1778412983690,1.057765,-0.1046639688888888,-0.4338599911111111,-0.757501528888889,-0.2127021011111111,0.2820841755555555
246,1778412983700,1.0574398,-0.1080246,-0.415634,-0.7173484840000001,-0.1989376759999999,0.280699576
247,1778412983710,1.0871263666666668,-0.0857468733333333,-0.39677112,-0.6659422777777778,-0.1493097355555555,0.2638944955555555
248,1778412983720,1.089667211111111,-0.08509643,-0.39143206,-0.6387935,-0.109265305,0.24930204
249,1778412983730,1.09725603,-0.082922522,-0.43242158,-0.6012264270000001,-0.0332759054,0.2320761429999999
250,1778412983740,1.1479396,-0.0593191745555555,-0.4948256155555555,-0.59297997,-0.07505786,0.22547899
251,1778412983750,1.147506,-0.027013771,-0.40002334,-0.5636593,-0.1233147899999999,0.18577392
252,1778412983760,1.147506,-0.027013771,-0.40002334,-0.5636593,-0.1233147899999999,0.18577392
253,1778412983770,1.0487401,0.0171656359999999,-0.1902956599999999,-0.4150198066666666,0.1172402499999999,0.1365667822222222
254,1778412983780,1.0427708777777778,-0.0063113435555555,-0.2106965777777777,-0.3407679244444444,0.1859096628888888,0.1482407522222222
255,1778412983790,1.0295052,-0.0694125824,-0.3461909279999999,-0.206428199,0.0596950463999999,0.205809713
256,1778412983800,1.0281392,-0.1024145,-0.42270756,-0.13598987,-0.20089239,0.25968644
257,1778412983810,0.978877228,-0.1319680655,-0.456831501,-0.10184351,-0.4728415769999999,0.335553669
258,1778412983820,0.97916616,-0.1106805818888889,-0.4219453211111111,-0.1042936877777777,-0.7267639777777778,0.4337100277777778
259,1778412983830,0.94100676,-0.0293750202222222,-0.3613896333333333,-0.1553588233333333,-0.6712447666666667,0.4464021
260,1778412983840,0.87242588,0.0643086309,-0.36007283,-0.2364895159999999,-0.536797305,0.47372733
261,1778412983850,0.85413516,0.1282087,-0.42343935,-0.27839363,-0.49104485,0.5070796
262,1778412983860,0.8095797666666668,0.1266638933333333,-0.27783125,-0.3387317788888889,-0.4834431999999999,0.5341605
263,1778412983870,0.8238895000000002,0.10503662,-0.09351155,-0.326833822,-0.4037547499999999,0.57488362
264,1778412983880,0.8255156444444445,0.0848287977777777,-0.0047021699999999,-0.2603057655555555,-0.3348715466666667,0.5731189400000001
265,1778412983890,0.8400002389999999,-0.0216658983,0.2848458734,0.2124984969999999,0.185193627,0.485516664
266,1778412983900,0.86709327,-0.048234522,0.33407435,0.31359372,0.3422272,0.44599485
267,1778412983910,0.8176324011111111,-0.0376105962222222,0.2155782922222222,0.5427293,0.6132397555555555,0.2725142366666666
268,1778412983920,0.766880145,-0.0327214208,-0.062945743,0.66470868,0.4693902899999999,0.2012894479999999
269,1778412983930,0.7459276833333334,-0.0309977433333333,-0.1986802888888889,0.6458946166666667,-0.0190635233333333,0.2419718733333333
270,1778412983940,0.7333456666666667,-0.036689132,-0.24131489,0.5935653666666667,-0.55864527,0.3663811066666667
271,1778412983950,0.7572698,-0.054576356,-0.17281497,0.5915292,-0.8844304700000001,0.4856999199999999
272,1778412983960,0.7633406111111111,-0.075346538,-0.0476213432222222,0.6425688977777777,-0.9159230266666668,0.5309705066666667
273,1778412983970,0.7425311280000001,-0.096511732,0.113994452,0.638747694,-0.682789775,0.509584072
274,1778412983980,0.693468638888889,-0.0761494279999999,0.1845703822222222,0.5459871444444445,-0.05169295,0.3718108488888889
275,1778412983990,0.7410764055555555,-0.0034724247777777,0.1205930811111111,0.3820086,0.32960299,0.1992125633333333
276,1778412984000,0.76580685,0.013019053,0.09369449,0.2916032,0.29580277,0.12957597
277,1778412984010,0.8674252455555556,0.022342089,0.3241686322222222,0.0693905511111111,-0.26875583,0.1191915705555555
278,1778412984020,0.90392464,0.023751386,0.5110054,0.020997874,-0.39453098,0.116748184
279,1778412984030,0.890094648,-0.0367826345,0.53073829,-0.0066124215999999,-0.0343448919999999,0.04075878412
280,1778412984040,0.8851431,-0.09095043,0.5363728,-0.04253024,0.2585411,-0.0066429637
281,1778412984050,0.8671474288888888,-0.1156673233333333,0.5402754311111111,-0.076126836,0.38987327,0.03245126
282,1778412984060,0.811736407,-0.0996673995,0.645394386,-0.5372630676,0.0834035596999999,0.77426417
283,1778412984070,0.7448301,-0.02774552,0.780198,-0.63512844,0.023288552,0.9927031400000002
284,1778412984080,0.946988136,0.13934349,0.743982426,-0.579052652,0.458654658,1.09471468
285,1778412984090,1.063375011111111,0.1072217033333333,0.6718447555555556,-0.3502445533333333,0.89402584,0.8605565333333334
286,1778412984100,1.0540249,0.02423922,0.54250115,-0.13232478,1.1057862,0.6561263
287,1778412984110,0.8327436990000001,-0.205810785,0.3322876794,-0.007528692,0.412993844,0.6863632799999999
288,1778412984120,0.77141696,-0.22906823,0.118573986,-0.02725906,-0.07872294,0.7874585
289,1778412984130,0.6101337955555555,-0.1497817766666666,0.4050270428888888,-0.1049045355555555,-0.4962709888888889,0.9734275222222222
290,1778412984140,0.40646882,-0.165912122,0.477222994,-0.16748669,-0.071660025,1.0983797000000002
291,1778412984150,0.4878401177777778,-0.1739125866666666,0.44049318,-0.1968794711111111,0.5237166555555555,1.0823619555555557
292,1778412984160,0.75141579,-0.146959795,0.51637159,-0.132126264,0.88832462,0.948844336
293,1778412984170,0.87099594,-0.13342242,0.569332,-0.04924956,1.0642487,0.80517304
294,1778412984180,0.95268772,-0.1323518937777777,0.5145218977777778,0.1035979955555555,0.9041387888888888,0.5329387866666667
295,1778412984190,1.0000888,-0.169680628,0.47683272,0.254463702,0.4337321,0.2644510399999999
296,1778412984200,1.062457,-0.2394380866666666,0.3648756222222222,0.2460611588888889,0.2135759522222222,0.13765273
297,1778412984210,1.0910969555555556,-0.2803280066666666,0.3759331866666666,0.1906776666666666,0.1373303366666666,0.0069144527777777
298,1778412984220,1.0667574000000002,-0.311231568,0.465014946,0.19875443,0.21150586,-0.12522368
299,1778412984230,1.0918997555555556,-0.3220072755555556,0.3371809166666666,0.3357878333333333,0.2084261586666666,-0.1431418766666666
300,1778412984240,1.13415762,-0.335928134,0.127647698,0.44113863,-0.0971094458,-0.0568469737499999
301,1778412984250,1.148549388888889,-0.3826917022222222,0.17169362,0.3670089222222222,-0.7732563244444444,0.0537630411111111
302,1778412984260,1.1540917,-0.43051292,0.4636889666666667,0.32743958,-1.0632051666666666,0.0969974533333333
303,1778412984270,1.1540917,-0.47091162,0.6122918,0.37101334,-0.9491803,0.11125056
304,1778412984280,1.139439811111111,-0.4211627866666667,0.6403591722222223,0.3677554977777778,-0.6096170786666666,0.1182413664444444
305,1778412984290,1.1737101222222224,-0.36790764,0.5570480833333333,0.4000625444444444,0.19822842,0.1884209277777777
306,1778412984300,1.23913025,-0.351624158,0.414155253,0.4180486,0.30313295,0.24441525
307,1778412984310,1.339150022222222,-0.3498408666666666,0.3019180311111111,0.3568281288888889,0.0563591438888888,0.3441191111111111
308,1778412984320,1.3749583,-0.3415748,0.28184572,0.25556323,-0.20089239,0.4166742
309,1778412984330,1.426245166666667,-0.3101231111111111,0.5153349666666667,0.1568774588888888,-0.2055076833333333,0.1991786324444444
310,1778412984340,1.3965178,-0.2570000944444444,0.6652657866666667,0.1544340688888889,0.0810814833333333,-0.1464675944444444
311,1778412984350,1.37353747,-0.22001893,0.613697374,0.2488439,0.4708105299999999,-0.40774053
312,1778412984360,1.3468095777777778,-0.23412275,0.49492385,0.2869200466666666,0.6044842733333333,-0.522478
313,1778412984370,1.307251,-0.2523250366666666,0.3696048888888889,0.2758569333333333,0.6246421966666666,-0.5829518777777778
314,1778412984380,1.20968948,-0.252783057,0.361143022,0.189164121,0.484126999,-0.67773502
315,1778412984390,1.1017818,-0.27048328,0.4342123366666667,0.1240274443333333,0.4880160666666666,-0.7505276666666666
316,1778412984400,1.1276437111111113,-0.2641414377777777,0.4361568922222222,0.0457032521111111,0.5131286888888889,-0.7960018511111111
317,1778412984410,1.15418928,-0.222195878,0.485723444,-0.0142480123,0.483332912,-0.864715371
318,1778412984420,1.1521404,-0.18659624,0.4507275199999999,-0.026648212,0.47478104,-0.899778
319,1778412984430,1.17380022,-0.185980358,0.481521992,-0.0284807531999999,0.328666368,-0.967826404
320,1778412984440,1.1444840777777778,-0.1883172255555555,0.5111680399999999,-0.010155336,0.2945811,-0.9975136
321,1778412984450,1.1228161,-0.1962208077777777,0.5147725799999999,-0.006490252,0.3385621,-1.0024004
322,1778412984460,1.16440942,-0.2022374119999999,0.513249449,-0.0263427881,0.376129199,-0.94046044
323,1778412984470,1.1799469,-0.20565225,0.52588433,-0.045584477,0.34833565,-0.91566
324,1778412984480,1.1804347666666668,-0.1902753266666667,0.4981490066666666,-0.070018366,0.38987327,-0.8948912600000001
325,1778412984490,1.17450756,-0.171619779,0.456947394,-0.136234216,0.4790569720000001,-0.840037158
326,1778412984500,1.1696211,-0.1582206133333333,0.4560123533333333,-0.17633124,0.4391482666666666,-0.77883025
327,1778412984510,1.1459876000000002,-0.1408862679999999,0.48097928,-0.226838122,0.353711092,-0.689890895
328,1778412984520,1.1204008,-0.13659334,0.491736,-0.2533489,0.31779328,-0.6334486
329,1778412984530,1.176908111111111,-0.1384904622222222,0.5306068666666666,-0.2938005655555555,0.3023863522222222,-0.5893997111111111
330,1778412984540,1.18120914,-0.137812904,0.5742103199999999,-0.3001398,0.32878854,-0.591422308
331,1778412984550,1.1134085222222223,-0.1446358133333333,0.5491139777777778,-0.27907236,0.3916379333333333,-0.5893318422222222
332,1778412984560,1.090958,-0.1241231033333333,0.5422471133333333,-0.2530095333333333,0.4948711388888889,-0.5217993000000001
333,1778412984570,1.0847584,-0.11729343,0.51295674,-0.2441862,0.4986041,-0.4807368
334,1778412984580,1.0390307777777776,-0.1158028333333333,0.536271151111111,-0.2770362044444445,0.3438561066666666,-0.3764855333333333
335,1778412984590,1.0162280444444445,-0.1262641466666666,0.5876393111111111,-0.3054745266666667,0.2235192,-0.18753011
336,1778412984600,1.0255721,-0.130525912,0.612340612,-0.314372528,0.255425782,-0.1046992249999999
337,1778412984610,1.0015523777777775,-0.1314812488888889,0.6796196355555556,-0.3126010866666666,0.30028234,-0.0462207773333333
338,1778412984620,0.9986254,-0.12778184,0.7243106,-0.30466008,0.32206923,-0.036650836
339,1778412984630,1.0215602666666663,-0.0955848466666666,0.5896347155555556,-0.28470574,0.3994432133333333,0.0556634566666666
340,1778412984640,1.0550005,-0.0802181,0.5305188,-0.31809872,0.370937,0.10575293
341,1778412984650,1.08709085,-0.0982679299999999,0.57055158,-0.370142898,0.3673940839999999,0.179054606
342,1778412984660,1.0872991666666667,-0.1119272633333333,0.6310835733333334,-0.3973731111111111,0.5167937633333334,0.2176058555555555
343,1778412984670,1.0708551,-0.12656227,0.6589104,-0.40361732,0.62077355,0.22059222
344,1778412984680,1.09653962,-0.138977622,0.63937268,-0.395798484,0.7400109300000001,0.1343405839999999
345,1778412984690,1.0900670555555554,-0.1419052977777777,0.5771983222222222,-0.3871244566666666,0.6781253055555555,0.0432428969555555
346,1778412984700,1.05039056,-0.13571524,0.57653976,-0.354932796,0.4909074089999999,-0.0312219295899999
347,1778412984710,1.0744867444444446,-0.1420679122222222,0.5571497333333333,-0.2731675044444445,0.3120920566666666,-0.1197939344444444
348,1778412984720,1.0859779,-0.14878917,0.5846988,-0.2399102599999999,0.2286095899999999,-0.15882029
349,1778412984730,1.06119909,-0.168668377,0.6528186,-0.2203020619999999,0.327566837,-0.1943715979999999
350,1778412984740,0.9703919866666668,-0.1776526466666667,0.6907008666666666,-0.2120149044444444,0.4301891799999999,-0.19207753
351,1778412984750,0.9200570233333334,-0.1779507744444444,0.6428829999999999,-0.1951741822222222,0.4788533666666666,-0.1408342244444444
352,1778412984760,1.008153365,-0.1785469999999999,0.562502335,-0.129514884,0.127544896,-0.0448361907999999
353,1778412984770,1.03939,-0.18196183,0.60448647,-0.049249558,-0.1832456911111111,-0.0156105411111111
354,1778412984780,0.96444654,-0.214701557,0.5958060749999999,0.0852590046,-0.379259808,-0.0387277148
355,1778412984790,0.98421396,-0.1985684866666666,0.6413280666666668,0.2028267433333333,-0.4379011333333333,-0.0891836966666666
356,1778412984800,1.0116071555555557,-0.155835651111111,0.6850908,0.3475296833333333,-0.3428804355555555,-0.1782316566666666
357,1778412984810,0.9709469,-0.1193880671999999,0.61617314,0.4521949799999999,-0.1807344336,-0.234382099
358,1778412984820,0.9114861,-0.087779514,0.4885651,0.5261686,-0.022524992,-0.25533417
359,1778412984830,0.8983958955555555,-0.1032817675555555,0.3895992911111111,0.6271619722222223,-0.1081114815555555,-0.2028012911111111
360,1778412984840,0.874605932,-0.102316943,0.394803521,0.7224338090000001,-0.3030260489999999,-0.0977966492
361,1778412984850,0.8673914111111112,-0.0961268877777777,0.4548199055555555,0.76467046,-0.4075623711111111,-0.0197422435555555
362,1778412984860,0.87767924,-0.0601559525999999,0.454483838,0.7861451720000001,-0.583954708,0.0946965979999999
363,1778412984870,0.8829479,-0.021647604,0.46414292,0.77417254,-0.67246646,0.1259109
364,1778412984880,0.8490434444444444,-0.0061826096111111,0.4288359855555556,0.7583584033333334,-0.8003371777777777,0.1529239166666666
365,1778412984890,0.81966673,-0.031770146,0.361441817,0.737216306,-0.8322030440000001,0.160851352
366,1778412984900,0.8166906555555555,-0.0674497377777777,0.3045739966666667,0.6996491644444445,-0.8028484555555555,0.1598468455555555
367,1778412984910,0.838795611111111,-0.0697059616666666,0.2854502511111111,0.6380214755555556,-0.654208931111111,0.1906606966666666
368,1778412984920,0.8397441499999999,-0.07997418,0.2579419,0.6275692,-0.57106584,0.2034885
369,1778412984930,0.8579430055555556,-0.0560398533333333,0.1866199588888889,0.6694461666666667,-0.5300033277777777,0.2588719755555555
370,1778412984940,0.8865253222222222,-0.03630293,0.12948588,0.6434512444444445,-0.6400915777777778,0.2674238511111111
371,1778412984950,0.8622028,-5.488139999999947e-05,0.0389656916,0.520487695,-0.91918769,0.269704344
372,1778412984960,0.7844360533333333,0.028233354,-0.0127141556666666,0.3547919577777778,-1.215916911111111,0.2913826222222222
373,1778412984970,0.73431116,0.055247124,-0.027349155,0.14622156,-1.4097592,0.3403183
374,1778412984980,0.8434231955555556,0.1001548982222222,-0.0349647772222222,0.0426490155555555,-1.3608234444444445,0.3203639444444445
375,1778412984990,0.8392563,0.062076796,-0.09448722,-0.1061941055555555,-1.2199892,0.1992125555555555
376,1778412985000,0.79145472,0.0216567522099999,-0.23182755,-0.179871618,-1.29516413,0.0780815479
377,1778412985010,0.7019718644444445,0.0023138207666666,-0.3789313111111111,-0.2378741133333333,-1.4741017,-0.003206947
378,1778412985020,0.64769024,0.020336553,-0.32389084,-0.29122144,-1.5148249,-0.042759307
379,1778412985030,0.60856906,0.0384565129,-0.292794516,-0.337645824,-1.41440158,-0.0605960481999999
380,1778412985040,0.6103405,0.018385218,-0.39002275,-0.49585527,-0.94612604,-0.123391144
381,1778412985050,0.631427108,-0.030379821,-0.478314486,-0.583450758,-0.6188340840000001,-0.1494132396
382,1778412985060,0.6815235266666666,-0.0920073966666666,-0.5913454666666667,-0.7061903333333334,-0.208018938,-0.1761276266666666
383,1778412985070,0.7116269,-0.11217117,-0.5962238,-0.7505786,-0.118428014,-0.18019994
384,1778412985080,0.729585262,-0.12080583,-0.693336188,-0.843610612,0.1015686247999999,-0.223814438
385,1778412985090,0.7247984,-0.12485485,-0.7575442,-0.9203941,0.23960483,-0.26816195
386,1778412985100,0.7010571666666666,-0.1096473228888888,-0.7583809666666667,-0.9537870888888887,0.1969049244444444,-0.2989758077777777
387,1778412985110,0.71646556,-0.0655526052,-0.67191418,-0.918378312,0.156476155,-0.325520506
388,1778412985120,0.7601968,-0.06726002,-0.6082062,-0.86236364,0.22066857,-0.34818295
389,1778412985130,0.7335946250000001,-0.091057137,-0.6108893,-0.8264458080000001,0.261473166,-0.36162159
390,1778412985140,0.70699245,-0.114854254,-0.6135724,-0.77256906,0.32268006,-0.38177955
391,1778412985150,0.6916155377777778,-0.121822818,-0.5981141822222222,-0.77256906,0.32268006,-0.38177955
392,1778412985160,0.775953814,-0.152935745,-0.2223849309999999,-0.101057048,0.8383573179999999,-0.1050657302
393,1778412985170,0.862215,-0.134642,-0.13058689,0.1908134,1.0465341,-0.028709821
394,1778412985180,0.8774191,-0.1474069733333333,-0.1739532433333333,0.4652874333333334,1.0597690999999998,-0.0197252759666666
395,1778412985190,0.9078273,-0.17293692,-0.26068595,1.0142355,1.0862391,-0.0017561858999999
396,1778412985200,1.0381499666666667,-0.1308917833333333,-0.3681414033333333,1.0989396333333332,1.0096795933333331,-0.0152457286333333
397,1778412985210,1.13359969,-0.0893161909999999,-0.447276098,1.15326431,0.952830086,-0.02535016
398,1778412985220,1.1536039,-0.09875576,-0.48371726,1.3349303,0.58595526,-0.056808796
399,1778412985230,1.1931319444444444,-0.0809904963333333,-0.4400155133333333,1.360518033333333,0.4959570811111111,-0.04744247
400,1778412985240,1.2187601,-0.058966853,-0.42490283,1.3758571,0.42346987,-0.045813546
401,1778412985250,1.224072088888889,-0.0362012997777777,-0.4269896855555555,1.3692057,0.3626566311111111,-0.0529400974444444
402,1778412985260,1.1938332,-0.0376681875555555,-0.4341005366666666,1.3259712777777777,0.3041425522222222,-0.0549083815555555
403,1778412985270,1.11315646,-0.082437738,-0.4385408349999999,1.16407632,0.1690367124,-0.0278469987
404,1778412985280,1.101619088888889,-0.1045013533333333,-0.3904496177777777,0.9941453666666666,0.1170196686666666,0.0230849367777777
405,1778412985290,1.105034,-0.10412193,-0.35438043,0.8938986,0.09659022,0.058717694
406,1778412985300,1.1472654555555557,-0.1173476331111111,-0.3857948755555556,0.7772267866666667,0.0651655211777777,0.0874275137777777
407,1778412985310,1.1551486888888889,-0.1176457506666666,-0.4369801244444444,0.6141984666666667,-0.0720714926111111,0.10398826
408,1778412985320,1.14666748,-0.1178788252,-0.45661812,0.539423985,-0.169128335,0.101293745
409,1778412985330,1.1273116333333333,-0.1312881466666666,-0.4857600433333333,0.3857415611111111,-0.3271341555555555,0.07473547
410,1778412985340,1.120834322222222,-0.13773162,-0.4855059488888888,0.2971008388888889,-0.3916803477777777,0.0633329846666666
411,1778412985350,1.0836761,-0.12694338,-0.4583499,0.1773747779999999,-0.453905326,0.0565186412
412,1778412985360,1.0445529000000002,-0.1138785977777777,-0.4348932377777778,0.0680331146666666,-0.4877869866666666,0.0634008549999999
413,1778412985370,1.0293589,-0.10534152,-0.41075566,0.003283304,-0.47638452,0.076432265
414,1778412985380,1.01955337,-0.095243364,-0.366914707,-0.0947576822,-0.419514634,0.081441208
415,1778412985390,1.002040088888889,-0.1016014577777777,-0.32304393,-0.1674909288888889,-0.3613416266666667,0.0780611866666666
416,1778412985400,0.984966,-0.11582993,-0.27995536,-0.2142546799999999,-0.28152424,0.07154548
417,1778412985410,1.0009831666666669,-0.1051788966666666,-0.2422803933333333,-0.2999090355555556,-0.1248758488888888,0.0791471422222222
418,1778412985420,0.9988692999999998,-0.10095101,-0.23626378,-0.3431434466666666,-0.10356406,0.0953685299999999
419,1778412985430,0.97065422,-0.113683464,-0.155887148,-0.356826416,-0.141029362,0.138983024
420,1778412985440,0.9734714888888888,-0.1163177599999999,-0.1412379211111111,-0.3596363155555556,-0.1546037477777777,0.1561817688888888
421,1778412985450,0.9722620333333334,-0.1268976433333333,-0.0993553933333333,-0.3532563777777777,-0.1650560188888888,0.18767434
422,1778412985460,0.97899005,-0.1318217049999999,-0.07396773,-0.349496264,-0.152146786,0.227311538
423,1778412985470,0.9856164333333334,-0.1260473166666666,-0.0655119488888889,-0.3516953,-0.1349209,0.23830679
424,1778412985480,1.000197277777778,-0.1160196455555555,-0.0830807257777777,-0.3377136955555555,-0.0058963725555555,0.2620619611111111
425,1778412985490,0.9988693,-0.11582993,-0.108146556,-0.34436515,0.037338037,0.26396236
426,1778412985500,0.9988692999999998,-0.11582993,-0.108146556,-0.34436515,0.037338037,0.26396236
427,1778412985510,1.01648004,-0.102951129,-0.1287331196,-0.358658973,0.0034360144999999,0.2657949089999999
428,1778412985520,1.0297755000000002,-0.08981215,-0.13513999,-0.3911967666666667,-0.0691529999999999,0.2607045166666666
429,1778412985530,1.0420459444444443,-0.0955577455555555,-0.1222937188888889,-0.3956763177777778,-0.0870711855555555,0.2383067855555555
430,1778412985540,1.03407254,-0.1277879479999999,-0.103219442,-0.381199243,-0.1002858499999999,0.2106964979999999
431,1778412985550,1.0515043888888889,-0.1602261488888888,-0.0871832722222222,-0.32970482,-0.0758723206666666,0.16459789
432,1778412985560,1.083498177777778,-0.15965701,-0.0835482366666666,-0.30119861,-0.0494022713333333,0.1342591433333333
433,1778412985570,1.08838668,-0.135703046,-0.095365322,-0.269841781,-0.0175771303,0.090909346
434,1778412985580,1.0665459666666668,-0.1294181233333333,-0.1157079733333333,-0.2360415666666666,-0.056528824,0.0593285433333333
435,1778412985590,1.04239004,-0.145886562,-0.149030036,-0.2197523,-0.106211066,0.04833329
436,1778412985600,1.0413682999999998,-0.1578140877777777,-0.1908173655555555,-0.2131687211111111,-0.2277018022222222,0.0576996133333333
437,1778412985610,1.0463821666666666,-0.14463242,-0.1908038066666667,-0.2278969266666667,-0.32835585,0.054034531
438,1778412985620,1.0374385,-0.1285136,-0.15354554,-0.2392994199999999,-0.32061845,0.041003123
439,1778412985630,1.0299414888888887,-0.1220091549999999,-0.1322841433333333,-0.2492765866666666,-0.2151455033333333,0.0127005326666666
440,1778412985640,1.0315846,-0.12607443,-0.11546406,-0.2521272,-0.13858597,-0.004810422
441,1778412985650,1.03903925,-0.132983367,-0.1341816109999999,-0.228670669,-0.0562437611,-0.0324359887999999
442,1778412985660,1.0281393,-0.14195951,-0.1952654533333333,-0.19692188,-0.036167248,-0.0604738793333333
443,1778412985670,1.02992896,-0.149033081,-0.236004614,-0.170319478,-0.088618666,-0.0706139428
444,1778412985680,1.0378450666666668,-0.1496022266666666,-0.2734509133333333,-0.15370443,-0.2199644055555555,-0.0897266748888888
445,1778412985690,1.0340474666666666,-0.1484910588888889,-0.3022364777777777,-0.1556727166666666,-0.29808498,-0.1007219286666666
446,1778412985700,1.0143579829999998,-0.1602288639999999,-0.32457383,-0.175824745,-0.3744340929999999,-0.110074679
447,1778412985710,0.9976225566666664,-0.18554605,-0.3252459333333333,-0.22253504,-0.3888297211111111,-0.1096810177777777
448,1778412985720,1.0143208222222222,-0.1966510333333333,-0.3203642355555555,-0.2485978599999999,-0.3520431488888889,-0.1033689302222222
449,1778412985730,1.03137724,-0.173034476,-0.309322928,-0.24675175,-0.313349377,-0.0988350872
450,1778412985740,1.0294672777777778,-0.1546702666666667,-0.3062441666666667,-0.2292543699999999,-0.2893973733333334,-0.0967853511111111
451,1778412985750,1.0310815000000002,-0.150618545,-0.32143644,-0.196501925,-0.2729723599999999,-0.0897945449999999
452,1778412985760,1.0349994555555555,-0.1596841133333333,-0.3564842333333333,-0.1761021733333333,-0.2622485933333333,-0.0818535277777777
453,1778412985770,1.0359751,-0.16879034,-0.37514386,-0.16042376,-0.24609509,-0.06902574
454,1778412985780,1.02809052,-0.187919507,-0.423274701,-0.127743433,-0.2357106819999999,-0.036773005
455,1778412985790,1.0127726,-0.20467658,-0.46127695,-0.1115559799999999,-0.22776967,-0.018936265
456,1778412985800,1.0265978777777778,-0.2097141377777777,-0.4696785022222222,-0.1156961722222222,-0.2312990055555555,0.0009417228333333
457,1778412985810,1.0698795,-0.16074108,-0.4798146,-0.11216683,-0.22654797,0.0092390645
458,1778412985820,1.0822683666666668,-0.1548328888888888,-0.5116355388888889,-0.1056511211111111,-0.25301803,-0.0227286083888888
459,1778412985830,1.10893666,-0.168363474,-0.5872598539999999,-0.112533339,-0.28775487,-0.0828919717999999
460,1778412985840,1.1206447,-0.18784632,-0.61625546,-0.12194038,-0.2851893,-0.120947756
461,1778412985850,1.1093974111111111,-0.2024813222222222,-0.6178002822222222,-0.1552909444444444,-0.2667960144444444,-0.1485716266666666
462,1778412985860,1.08882877,-0.212067247,-0.61052346,-0.228426336,-0.254891286,-0.193638582
463,1778412985870,1.0737821333333333,-0.19499105,-0.6204833666666666,-0.25151637,-0.2772483,-0.19730367
464,1778412985880,1.0355550222222225,-0.1691155566666666,-0.6614749222222222,-0.3138906522222222,-0.4046438877777778,-0.2006293911111111
465,1778412985890,1.0176508,-0.15854584,-0.6814117,-0.34986275,-0.48432553,-0.19669282
466,1778412985900,1.0205778,-0.1478134933333333,-0.6867778533333333,-0.37551835,-0.5173113,-0.19180603
467,1778412985910,1.0220413,-0.14244732,-0.68946093,-0.3840702111111111,-0.4985107777777778,-0.1937064444444444
468,1778412985920,0.96874862,-0.112716941,-0.6660479739999999,-0.4524851,-0.3481066,-0.20890976
469,1778412985930,0.8821687388888889,-0.0894056216666666,-0.6244673244444444,-0.5061039155555556,-0.13125581,-0.1945209133333333
470,1778412985940,0.8597757999999999,-0.09143826,-0.61649936,-0.55022067,0.03978143,-0.1655396
471,1778412985950,0.8754135000000001,-0.1102740544444444,-0.6458337322222222,-0.6180246888888888,0.1066352662222222,-0.0823286386666666
472,1778412985960,0.8773919622222222,-0.1211961016666666,-0.739247071111111,-0.6814170666666667,0.0529485786666666,0.0358703111111111
473,1778412985970,0.8652852509999999,-0.1206869245,-0.782649339,-0.71014047,-0.0310768542,0.1194359149999999
474,1778412985980,0.8285510166666666,-0.1433687944444444,-0.7317195055555555,-0.7368684555555556,-0.3094874566666667,0.3315628066666666
475,1778412985990,0.8518078222222223,-0.1475390933333333,-0.6514235033333333,-0.73713994,-0.41346723,0.39834878
476,1778412986000,0.9167456000000002,-0.1047317169999999,-0.47457039,-0.5552296,-0.5364919020000001,0.540065346
477,1778412986010,0.9188239233333332,-0.0584891843333333,-0.4910449333333332,-0.3897714566666666,-0.42731312,0.5767161933333333
478,1778412986020,0.913461803,-0.0092993232,-0.5180211029999999,-0.268009242,-0.258800708,0.56498794
479,1778412986030,0.8920541111111111,0.0131274602777777,-0.5575799488888888,-0.2080698555555555,-0.1151022881111111,0.5370789888888889
480,1778412986040,0.8985584799999999,-0.0176670196111111,-0.64742262,-0.1842552788888888,0.0524734776666666,0.4919441255555555
481,1778412986050,0.884274155,-0.02663265025,-0.55157182,-0.19989976,-0.0701710785,0.389796915
482,1778412986060,0.8592710055555555,0.0343617613888888,-0.4526991955555555,-0.1836783788888889,-0.1778838133333333,0.3009525799999999
483,1778412986070,0.8646541099999999,0.1277920066666666,-0.35527481,-0.1471887433333333,-0.2300094433333333,0.2006378753333333
484,1778412986080,0.905156478,0.252026892,-0.0800229699999999,-0.111861403,-0.258373108,0.0337111352
485,1778412986090,0.9607878,0.31221333,0.1422644,-0.07124006,-0.25709033,-0.11728267
486,1778412986100,1.0993053555555554,0.2550555388888889,0.556922711111111,0.0419702999999999,0.0783072244444444,-0.4947862688888889
487,1778412986110,1.1875083,0.1999507,0.6581786,0.06986566,0.20478654,-0.63955706
488,1778412986120,1.0553731888888889,0.0751398877777777,0.6570606788888889,-0.0109867657777777,0.2194299111111111,-0.6805517122222222
489,1778412986130,0.7441623099999999,-0.1655797859999999,0.6459126900000001,-0.22341739,0.15339902,-0.64810896
490,1778412986140,0.7272375,-0.2417519099999999,0.7015958,-0.3776223766666666,-0.2136523133333333,-0.2631394311111111
491,1778412986150,0.6852432444444444,-0.2800434466666666,0.6386991777777777,-0.4914436066666666,-0.6107030488888889,0.2716828149999999
492,1778412986160,0.5563678679999999,-0.27919922,0.623518106,-0.522121712,-0.89102766,0.762413752
493,1778412986170,0.35745651,-0.2760662377777778,0.5846716777777777,-0.4336167111111111,-0.8205630222222222,1.007159838888889
494,1778412986180,0.2397158933333333,-0.2796979022222222,0.6280888111111111,-0.3229854933333333,-0.6026262933333333,1.0845338
495,1778412986190,0.22303131,-0.26763758,0.6652522,-0.21303298,-0.34932828,1.0763892
496,1778412986200,0.3701198344444444,-0.3001699622222222,0.5860978622222223,0.0178587955111111,0.1937064577777777,1.0020694577777778
497,1778412986210,0.5422606266666666,-0.3310321899999999,0.4879112733333333,0.1578955277777777,0.4407093311111111,1.0074313455555557
498,1778412986220,0.64665363,-0.3100424839999999,0.51222199,0.199426361,0.2684749974,1.1371685
499,1778412986230,0.709831388888889,-0.2238104877777777,0.6148665177777778,0.2279393544444444,-0.0012810822222222,1.258693177777778
500,1778412986240,0.6523246,-0.21736026,0.62131673,0.2873273,0.011071607,1.2724712
501,1778412986250,0.7419606422222222,-0.0672498614444444,0.51591425,0.3885243088888889,0.2427439271111111,1.1816586
502,1778412986260,0.7885521133333334,0.0125854227777777,0.4021779199999999,0.4891105022222222,0.555684378888889,1.0808009555555556
503,1778412986270,0.81803555,0.008857224,0.37531154,0.458303437,0.671901435,1.00791318
504,1778412986280,0.8500801,-0.032949078,0.4444568366666666,0.2968972166666666,0.6879667,0.9183834000000002
505,1778412986290,0.8829479,-0.057503358,0.51881075,0.21097137,0.6610894,0.8821398
506,1778412986300,0.89577481,-0.0319652788,0.546656901,0.207672788,0.653392804,0.72759544
507,1778412986310,0.8416683333333334,-0.0534245233333333,0.5169983222222222,0.3021912266666666,0.75230932,0.6017609133333334
508,1778412986320,0.8540956,-0.090490032,0.444571672,0.3644162139999999,0.7934600460000001,0.559001576
509,1778412986330,1.0366051333333333,-0.19603786,0.3000581666666667,0.31135393,0.7423321333333334,0.45821181
510,1778412986340,1.0730504,-0.23541006,0.30184686,0.19203511,0.6763606,0.38857523
511,1778412986350,1.08791713,-0.214472866,0.347462333,0.1325996702,0.66353282,0.29975803
512,1778412986360,1.1771283444444445,-0.0724771266666666,0.4973698222222222,0.2067633199999999,0.6515873666666666,0.1394852788888889
513,1778412986370,1.273634688888889,-0.0936741644444444,0.3558473222222222,0.3104037288888889,0.5354585277777777,0.1029701811111111
514,1778412986380,1.309299,-0.17293692,0.29428546,0.3200076,0.424080715,0.04558447475
515,1778412986390,1.2856238,-0.22638516,0.3094083,0.2940466,0.40147936,0.0104607595
516,1778412986400,1.2765501499999998,-0.302163973,0.39303512,0.208650152,0.35114554,-0.0364981222
517,1778412986410,1.2662731222222223,-0.3365338555555555,0.5032543222222222,0.1289820933333333,0.2982461611111111,-0.0829394811111111
518,1778412986420,1.3017324666666663,-0.3312489999999999,0.4708201733333332,0.1260636033333333,0.3100558766666667,-0.0573941892333333
519,1778412986430,1.3661468,-0.3252324,0.37776592,0.12972869,0.32756683,-0.0035887277
520,1778412986440,1.4644248666666666,-0.3733042866666666,0.3903683133333333,0.1146611211111111,0.2857577333333333,0.0316367972777777
521,1778412986450,1.4350634333333334,-0.4235917866666667,0.4750378866666667,0.0903629735555555,0.2704187022222222,0.0012132107222222
522,1778412986460,1.4128141,-0.4238784,0.57650314,0.0333369883999999,0.2755226679999999,-0.034573955
523,1778412986470,1.3619290333333334,-0.3540348833333333,0.5799017466666666,0.0564270166666666,0.26729657,-0.0779848366666666
524,1778412986480,1.3148876,-0.314280525,0.501105484,0.118733434,0.262755949,-0.0761115706
525,1778412986490,1.3888615,-0.3342573,0.37605852,0.13583715,0.2854184,-0.012827792
526,1778412986500,1.4606475444444444,-0.3873024133333333,0.4078761088888889,0.0247986999999999,0.0856119462222222,0.0652843001111111
527,1778412986510,1.41008222,-0.436665726,0.42275029,-0.096162632,-0.0738361596,0.1475348839999999
528,1778412986520,1.3748362555555556,-0.43031303,0.5254337833333333,-0.1576495055555555,-0.1434048688888889,0.1774256699999999
529,1778412986530,1.330880511111111,-0.4174057844444444,0.6200971833333333,-0.2086043433333333,-0.2009602586666666,0.1611364211111111
530,1778412986540,1.26367134,-0.406999358,0.6212374900000001,-0.108501745,-0.0072538119999999,0.09872819
531,1778412986550,1.3264391777777778,-0.3723929944444444,0.5028884133333333,-0.0356073043333333,0.1155264933333333,0.06462255
532,1778412986560,1.40545094,-0.378631834,0.4721921819999999,0.0133622834,0.187308689,0.02713688804
533,1778412986570,1.4909643222222222,-0.4176869644444444,0.4464522177777777,-0.0104268225555555,0.2030727799999999,-0.0189447496888888
534,1778412986580,1.5246824333333333,-0.4542981888888888,0.5065946144444444,-0.09750649,0.098762123,-0.1108348433333333
535,1778412986590,1.50633786,-0.435348598,0.564307294,-0.161920334,0.0584733536,-0.245071922
536,1778412986600,1.439206588888889,-0.42286005,0.5507536722222223,-0.19491118,0.1236965699999999,-0.3781144566666666
537,1778412986610,1.3982929666666668,-0.4189573733333333,0.5060356333333333,-0.2024449666666666,0.2512109366666666,-0.49804413
538,1778412986620,1.39749616,-0.426835892,0.476850981,-0.177703102,0.320481025,-0.5887345749999999
539,1778412986630,1.401599388888889,-0.4503142177777778,0.5156093433333333,-0.1465778966666666,0.29213771,-0.6448510500000001
540,1778412986640,1.3687993555555555,-0.4649288955555556,0.5912167244444445,-0.13734731,0.1939779455555556,-0.6619548055555555
541,1778412986650,1.31403398,-0.467417536,0.690082936,-0.114976724,0.0665365406,-0.62721796
542,1778412986660,1.2836656777777775,-0.4510730722222222,0.7067519422222222,-0.1000177522222222,0.0129041487777777,-0.5947616
543,1778412986670,1.21255546,-0.4040845489999999,0.75017489,-0.092680801,0.021089502,-0.539805706
544,1778412986680,1.1608603999999998,-0.332570211111111,0.8105046,-0.0584122708222222,0.0312295665555555,-0.4791757333333333
545,1778412986690,1.1282061,-0.2754429,0.8841369,-0.0028251687,0.03978143,-0.46302223
546,1778412986700,1.12591328,-0.263484884,0.89536318,0.01696628204,0.057984678,-0.4665651439999999
547,1778412986710,1.0696356,-0.22053115,1.0911003,0.19936527,0.22250111,-0.52593946
548,1778412986720,1.0457723555555556,-0.2687216633333333,1.2548868777777775,0.34352523,0.26526043,-0.5387673
549,1778412986730,1.003006669,-0.291501774,1.26786054,0.7274427410000001,0.297696398,-0.5079195089999999
550,1778412986740,0.9337841633333333,-0.29928576,1.2678788666666665,0.8631525955555556,0.3165715711111111,-0.4537237766666667
551,1778412986750,0.88538702,-0.2371276633333333,1.2918843333333332,1.0914058333333334,0.41308546,-0.3308756
552,1778412986760,0.8878261999999999,-0.16781467,1.2926974,1.1895487,0.4888305,-0.2339545
553,1778412986770,0.9592869788888888,-0.0163830695555555,1.386032733333333,1.1985756777777778,0.49819683,-0.1396125326666666
554,1778412986780,0.8914300340000001,0.16668046,1.31285714,1.2398825,0.3518174719999999,-0.0739736026
555,1778412986790,0.8401573922222223,0.1557916127777777,1.1949918,1.2255887,0.24021569,-0.10750912
556,1778412986800,1.00437431,-0.0056676772222222,1.217940288888889,1.240249,0.3518649911111111,-0.1720553022222222
557,1778412986810,1.2241202,-0.0972008,1.14421916,1.19871134,0.411252904,-0.332178732
558,1778412986820,1.1274743333333332,-0.1222733966666666,1.0361885333333334,1.010298997777778,0.166608584,-0.5665268999999999
559,1778412986830,0.95192551,-0.0273389966666666,1.0594622333333332,0.7941269133333333,0.0442609726666666,-0.69310802
560,1778412986840,0.8065043920000001,0.0636317617999999,1.09086856,0.5656293059999999,0.0717898192,-0.814748088
561,1778412986850,0.59098975,-0.0178160806666666,0.9124516,0.4901964577777777,0.0343516745,-0.9100266777777778
562,1778412986860,0.48258913,-0.079144863,0.721859187,0.5043613459999999,0.00655133677,-0.913644256
563,1778412986870,0.5063574766666668,-0.1356549344444444,0.3389086611111111,0.48116948,0.1860029866666666,-0.8893936066666667
564,1778412986880,0.5096435833333334,-0.1594402033333333,0.1080144333333333,0.3659229533333333,0.3705297666666667,-0.8853213
565,1778412986890,0.433470432,-0.17854701,0.0170619712,0.2347944169999999,0.415406692,-0.877543206
566,1778412986900,0.3051194366666667,-0.17944136,-0.050541565,-0.0052176538888888,0.4825184555555555,-0.8420868677777779
567,1778412986910,0.25696623,-0.18318142,-0.017836407,-0.22952586,0.6250495,-0.7470662
568,1778412986920,0.292654265,-0.155984708,-0.1250469232,-0.469955324,0.7062921600000001,-0.566866254
569,1778412986930,0.3085681388888889,-0.14155297,-0.3388815444444444,-0.6543361666666666,0.5357894188888889,-0.3730919355555555
570,1778412986940,0.307822848,-0.1437583909999999,-0.4237868999999999,-0.6956023,0.12957597,-0.17653486
571,1778412986950,0.4884295644444444,-0.1404519627777777,-0.4429492711111111,-0.3512032333333333,-1.101009811111111,0.3759510444444445
572,1778412986960,0.5144203,-0.24370325,-0.39929157,-0.07368345,-1.318132,0.541287
573,1778412986970,0.6159079000000001,-0.2065669259999999,-0.395291346,0.072309046,-0.9946272700000002,0.5122106799999999
574,1778412986980,0.7782195111111112,-0.1180793844444444,-0.4333721822222222,0.2080528844444444,-0.1465778833333333,0.3242326377777778
575,1778412986990,0.8200681666666667,-0.0962352933333333,-0.6526803933333334,0.25556323,0.62077355,0.08620582
576,1778412987000,0.9960642,-0.11755259,-0.9995248,0.295512642,1.00853932,-0.198403184
577,1778412987010,1.0744393222222222,-0.1303294188888889,-1.1261768222222222,0.268526761111111,0.9812412666666668,-0.3720738444444444
578,1778412987020,1.2449141,-0.1143664339999999,-1.10155204,0.267902342,0.751372664,-0.713958256
579,1778412987030,1.2866096666666669,-0.1259219866666666,-1.0337289333333333,0.30728164,0.6488724966666666,-0.9592337933333334
580,1778412987040,1.2255898,-0.1636681,-0.9393536,0.34719032,0.63665557,-1.1001359
581,1778412987050,1.1882523,-0.311030342,-0.950543256,0.420003306,0.586749328,-1.0755187469999998
582,1778412987060,1.2285168,-0.3867299,-0.91788894,0.5328879,0.47844613,-0.94559157
583,1778412987070,1.240658311111111,-0.4322881222222222,-0.7558469488888888,0.632456,0.43263257,-0.8252546
584,1778412987080,1.242176,-0.4379829,-0.7355917,0.632456,0.43263257,-0.8252545999999998
585,1778412987090,1.242176,-0.4379829,-0.7355917,0.632456,0.43263257,-0.8252546
586,1778412987100,1.21475993,-0.1447675976,-0.72528014,0.6775975830000001,-0.171128863,-0.2104979595
587,1778412987110,1.2002462444444444,-0.0887314624444444,-0.8076589333333334,0.6666634,-0.59061295,-0.029931515
588,1778412987120,1.1324746555555558,-0.1607139766666666,-0.8092849999999999,0.6508492622222222,-1.168203,0.1754573888888889
589,1778412987130,1.08706954,-0.162058234,-0.75696488,0.6461389559999999,-1.5773756,0.330789058
590,1778412987140,1.0630498,-0.14537434,-0.6960467,0.6481343866666667,-1.7510191333333334,0.4362213
591,1778412987150,1.0630498,-0.14537434,-0.6960467,0.64528376,-1.8007014,0.52051824
592,1778412987160,1.0972225999999998,-0.0409048272,-0.5543067,0.604723512,-1.56076052,0.589910496
593,1778412987170,1.1418213222222222,0.0073547656666666,-0.5203352455555555,0.5782941611111112,-1.3834926333333333,0.5925982044444444
594,1778412987180,1.1497012,0.01545822,-0.50740767,0.5296978888888889,-1.0505130555555555,0.4805416688888888
595,1778412987190,1.09902756,-0.021678094,-0.502779328,0.479622,-0.66819058,0.314174026
596,1778412987200,1.0403553333333333,-0.1007884,-0.5697995,0.3857415733333333,-0.4778777,0.1471548011111111
597,1778412987210,1.000210723,-0.131028987,-0.59283639,0.333873846,-0.5175556299999999,0.11375503
598,1778412987220,0.9858875055555556,-0.1269586233333333,-0.5823510177777778,0.2221702355555555,-0.6456570377777777,0.10249508
599,1778412987230,0.9867547533333334,-0.09337943,-0.5560385166666667,0.1482577246666666,-0.6633037533333334,0.0967938399999999
600,1778412987240,0.970123712,-0.0524786739999999,-0.571832146,0.0665670793,-0.651942,0.083395921
601,1778412987250,0.9461527555555556,-0.0320005122222222,-0.5430906355555556,0.0027403282222222,-0.6640503577777778,0.0706631553333333
602,1778412987260,0.93029815,-0.03091644,-0.52179873,-0.070018366,-0.6309289,0.044057358
603,1778412987270,0.887902405,-0.062015814,-0.481753713,-0.1692352426,-0.5705160499999999,0.0224333662
604,1778412987280,0.8986398222222223,-0.0688861377777777,-0.4125918222222222,-0.2815157555555556,-0.4862938155555556,0.0122254297777777
605,1778412987290,0.92298371,-0.0703181294999999,-0.3659421,-0.358964402,-0.3674093619999999,0.00432938015
606,1778412987300,0.9586466777777776,-0.0781583543333333,-0.3357479266666667,-0.4906291266666667,-0.1799199711111111,-0.0074913629444444
607,1778412987310,0.96542215,-0.080462016,-0.31337196,-0.5196783,-0.14897038,-0.0066429637
608,1778412987320,0.97015417,-0.0989752887,-0.29544409,-0.555596119,-0.142128888,0.0005650338599999
609,1778412987330,0.9759444777777778,-0.1270771888888889,-0.2746162933333333,-0.5883647011111112,-0.1539928988888889,0.0173158233888888
610,1778412987340,0.99057615,-0.12631835,-0.28239453,-0.6021427,-0.18012358,0.03489465
611,1778412987350,1.0332371500000002,-0.116659248,-0.292248762,-0.60592994,-0.256479495,0.063909892
612,1778412987360,1.0501223,-0.1114394299999999,-0.29385862,-0.616803,-0.26869643,0.08070819
613,1778412987370,1.05041498,-0.1159274949999999,-0.313042664,-0.633906728,-0.261977114,0.104897746
614,1778412987380,1.0461924333333334,-0.1252071655555555,-0.3511858022222222,-0.6644491,-0.27541575,0.15034479
615,1778412987390,1.0732943,-0.09290177,-0.40173078,-0.7029324788888889,-0.3060259944444444,0.17389634
616,1778412987400,1.06992826,-0.0866514034,-0.39753541,-0.7542437,-0.34993914,0.19982341
617,1778412987410,1.056355688888889,-0.0784259896666666,-0.3659834233333334,-0.75790876,-0.36887538,0.19432579
618,1778412987420,1.0802967666666667,-0.0894869333333333,-0.3633240333333333,-0.7593340733333334,-0.3588982133333333,0.1527881666666666
619,1778412987430,1.08903306,-0.08294996,-0.348623994,-0.7612073400000001,-0.348717444,0.116626019
620,1778412987440,1.0894233,-0.08412076,-0.32364693,-0.7524111,-0.33772218,0.07704311
621,1778412987450,1.04314319,-0.1001704807999999,-0.333745084,-0.73176447,-0.298261449,0.01443126657
622,1778412987460,1.0221497888888889,-0.0966960168888888,-0.3784231566666667,-0.7261447,-0.28580016,-0.0029778804
623,1778412987470,1.0078399666666666,-0.1052602044444444,-0.4147667344444444,-0.7329318877777777,-0.36473521,-0.0053958170888888
624,1778412987480,1.0059428,-0.10973201,-0.4002672399999999,-0.7272442170000001,-0.438756324,0.00459662568
625,1778412987490,0.9936385755555556,-0.1145832431111111,-0.3886236255555555,-0.6876613,-0.5177185,0.0357091113333333
626,1778412987500,1.0023653666666668,-0.09246813,-0.4080997077777777,-0.6219612777777778,-0.5978073488888889,0.0853913555555555
627,1778412987510,1.0186265,-0.07607151,-0.4005111799999999,-0.5948125,-0.62970716,0.1026987
628,1778412987520,1.035744688888889,-0.0695670633333333,-0.3242296211111111,-0.539971988888889,-0.6037122,0.1111826811111111
629,1778412987530,1.05075646,-0.073467696,-0.312408476,-0.51234813,-0.4353355399999999,0.1168703499999999
630,1778412987540,1.056948633333333,-0.0810311466666666,-0.31868391,-0.5099725666666667,-0.3068404588888889,0.11613733
631,1778412987550,1.0257001,-0.1168056,-0.31605503,-0.5202891,-0.18195613,0.11613733
632,1778412987560,1.01828498,-0.127842828,-0.307956998,-0.51442498,-0.166562778,0.1220014659999999
633,1778412987570,0.9964571777777778,-0.1122931411111111,-0.3593773277777777,-0.4716928544444445,-0.09569092,0.1453901266666666
634,1778412987580,0.9903321666666668,-0.0816409455555555,-0.3962561744444444,-0.4560144511111111,-0.0864603433333333,0.1647336266666667
635,1778412987590,0.983624465,-0.068601567,-0.37793364,-0.4076489,-0.19282922,0.183452702
636,1778412987600,0.9953460944444444,-0.0751060088888889,-0.3502880477777778,-0.3223746277777778,-0.2976098866666666,0.2187596766666666
637,1778412987610,1.0122848,-0.08460859,-0.33389142,-0.27350685,-0.32000762,0.23403086
638,1778412987620,1.001525211111111,-0.1407500844444444,-0.2811478244444444,-0.105108145,-0.2836961422222221,0.2355240333333333
639,1778412987630,0.9816324866666668,-0.16805859,-0.2713369533333333,-0.0356073063333333,-0.2429729888888888,0.2376959311111111
640,1778412987640,0.97545326,-0.18415709,-0.2706865,0.0681552849,-0.183971923,0.2467975619999999
641,1778412987650,1.0474934333333334,-0.1800816466666666,-0.2755106555555555,0.1875555633333333,-0.090125417,0.2370850933333333
642,1778412987660,1.0579276,-0.17098558,-0.29434645,0.23479441,0.012904149,0.2150946
643,1778412987670,1.03962772,-0.162838766,-0.3821137559999999,0.250371019,0.1337755506,0.189072503
644,1778412987680,1.0324586,-0.16155415,-0.51658502,0.2614680833333333,0.3039474166666667,0.1554351666666666
645,1778412987690,1.023040688888889,-0.1685532055555555,-0.6218553777777778,0.2559704511111111,0.2765865481111111,0.14443992
646,1778412987700,0.966074704,-0.192578312,-0.74525076,0.19350114,-0.1104869961999999,0.142159428
647,1778412987710,0.95493376,-0.1978469,-0.7253472,0.14622156,-0.31389913,0.17294613
648,1778412987720,1.022449882,-0.153771158,-0.67628641,0.0528841004,-0.378404608,0.167081998
649,1778412987730,1.0355109,-0.1391951066666666,-0.6126238444444445,-0.0522359244444444,-0.3115236055555555,0.1221100591111111
650,1778412987740,0.970666377777778,-0.1657549355555555,-0.6058043,-0.1462724661111111,-0.0779763473333333,0.0754820555555555
651,1778412987750,0.90086355,-0.15869219,-0.5903698119999999,-0.214254678,0.0895043968,0.0339172938
652,1778412987760,0.83389014,-0.13512984,-0.5784179,-0.26067907,0.17844376,0.012904149
653,1778412987770,0.83389014,-0.13512984,-0.5784179,-0.26067907,0.17844376,0.012904149
654,1778412987780,0.796439755,-0.0400968528,-0.467765104,-0.23349636,0.0851673806,0.0413696306
655,1778412987790,0.8318913555555556,0.0031810796555555,-0.5102262211111112,-0.2521272033333333,0.1660486466666666,0.0218632413666666
656,1778412987800,0.8732454166666668,0.0454735186666666,-0.5279237222222223,-0.28124425,0.20010338,-0.0127768889333333
657,1778412987810,0.875142504,0.0503687918,-0.52740879,-0.272407335,0.172022222,-0.0448972765
658,1778412987820,0.8526615666666666,0.0416013444444444,-0.4445448977777777,-0.2612899333333333,0.0564779213333333,-0.0771703733333333
659,1778412987830,0.82568541,0.03521547,-0.303179278,-0.2245550909999999,-0.0589314902,-0.099812439
660,1778412987840,0.7962964,0.03521547,-0.19793838,-0.17874917,-0.07261447,-0.11178505
661,1778412987850,0.7149638222222222,0.0106069870222222,0.0200689216444444,-0.0134131893333333,0.2281514533333333,-0.1508792666666666
662,1778412987860,0.6552517,-0.0062503646999999,0.092718825,0.0604586064,0.4189496,-0.1601641492
663,1778412987870,0.5584099444444445,-0.0777619888888888,-0.0907437788888888,0.0686439626666666,0.49107028,-0.0409013156666666
664,1778412987880,0.5566788222222222,-0.0907065162222222,-0.1459807455555555,0.0419702986666666,0.2868182466666666,0.1242819666666666
665,1778412987890,0.60991364,-0.0910967796,-0.181394726,0.112319538,-0.03565821,0.33512607
666,1778412987900,0.6619322799999999,-0.0952596244444444,-0.2612313522222222,0.20974967,-0.24914932,0.4749082899999999
667,1778412987910,0.8124864620000001,-0.084803729,-0.273506814,0.327765362,-0.277003944,0.509278638
668,1778412987920,0.9323680666666666,-0.0830095855555555,-0.2546659533333333,0.4302655466666666,-0.1345136546666666,0.4506780066666666
669,1778412987930,0.9602999,-0.08802343,-0.25846022,0.49012858,-0.033520244,0.37819082
670,1778412987940,0.953881907,-0.082483471,-0.238477331,0.521342879,-0.070476503,0.266527922
671,1778412987950,0.8884665333333334,-0.0199300246666666,-0.1122829793333333,0.52739024,-0.07322531,0.1246892
672,1778412987960,0.8380368,0.040581636,-0.052746978,0.52739024,-0.07322531,0.1246892
673,1778412987970,0.8380368,0.040581636,-0.052746978,0.52739024,-0.07322531,0.1246891999999999
674,1778412987980,0.7736935333333332,0.072971732,-0.0139337393333333,0.4012842266666667,0.1217198015555555,-0.1035470888888889
675,1778412987990,0.75361106,0.0627536572,-0.0181778901999999,0.187759188,0.446071218,-0.248737002
676,1778412988000,0.7256216133333333,0.0239953046666666,0.05007406,0.0590740233333333,0.47050511,-0.1529154333333333
677,1778412988010,0.70119947,-0.0279691133333333,0.1281782066666666,0.0531691633333333,0.4452567533333333,-0.0429374733333333
678,1778412988020,0.801311965,-0.110707687,0.199600055,0.060092098,0.447048576,0.11210574
679,1778412988030,0.8737873888888888,-0.1597417144444444,0.2282619588888889,0.06375718,0.43751934,0.2114295
680,1778412988040,0.9166150777777776,-0.2249826366666666,0.26350113,0.0108849566666666,0.22737093,0.3084184744444445
681,1778412988050,0.9888808099999998,-0.279760219,0.339281988,-0.094818768,0.002764084,0.442329777
682,1778412988060,1.0761094666666666,-0.2402545155555555,0.4589631,-0.16408885,-0.21188764,0.47653723
683,1778412988070,0.94835414,-0.092645653,0.8612636699999999,-0.0687355868,-0.2002204529999999,0.2187596683
684,1778412988080,0.7324072555555555,0.008171208,0.9481684222222222,0.0545944746666666,0.1658280622222222,-0.0344789357777777
685,1778412988090,0.5753249266666667,-0.0146078977777777,1.1199806,0.2799971133333333,0.7785757333333333,-0.3357623666666666
686,1778412988100,0.468179777,-0.160552047,1.09338385,0.589085812,1.3699166000000005,-0.52203002
687,1778412988110,0.34650395,-0.3688053888888889,0.9715911844444444,0.9289883666666666,1.8457259333333331,-0.5306904955555556
688,1778412988120,0.2952882377777778,-0.5490022222222222,0.6265711144444445,1.1296856,1.7410674333333334,-0.27505943
689,1778412988130,0.4661247700000001,-0.7923328,0.38361996,1.204209,1.3379083,0.03000787
690,1778412988140,0.6447530566666667,-0.9216696666666666,0.5165342266666666,1.2058379333333331,1.0426654133333333,0.2234428433333333
691,1778412988150,0.8138788,-0.99041352,0.61927396,1.1718341,0.76696966,0.4478273999999999
692,1778412988160,0.973502,-0.99856436,0.69183916,1.1021975,0.51082104,0.70316154
693,1778412988170,0.9134578333333332,-0.4462862066666667,0.6253820266666668,1.0826503777777778,0.5176082277777777,0.8122995733333334
694,1778412988180,0.828658126,0.70215071,0.457423028,1.06982256,0.631890952,1.00870732
695,1778412988190,1.2172525577777775,0.9122449388888888,0.0777992477777777,0.9056404444444444,0.9272151933333332,1.0602357666666666
696,1778412988200,1.4424283222222225,0.8871350788888889,-0.0827927686666666,0.6731112600000001,1.0732755444444444,1.025349617777778
697,1778412988210,1.53807758,0.68004581,0.051695087,0.222195702,1.16833698,0.8715110639999999
698,1778412988220,1.4992338666666667,0.39560235,0.2942854533333333,-0.2540276144444444,1.2009427,0.685650588888889
699,1778412988230,1.4149606,0.22998293,0.3094083,-0.47019967,1.234675,0.58587885
700,1778412988240,1.26172,0.04402696,0.20742063,-0.5709895,1.174812,0.55594736
701,1778412988250,1.3420871555555556,-0.1594740733333333,0.2829060666666667,-0.5423475033333334,0.896333511111111,0.4747725533333333
702,1778412988260,1.4462124,-0.2976393,0.33431828,-0.49402273,0.6525376,0.39712706
703,1778412988270,1.4741408777777778,-0.3249207044444444,0.3902327877777778,-0.4940227299999999,0.6525376,0.39712706
704,1778412988280,1.6975687,-0.54317194,0.83754885,-0.49442995,0.4599170933333333,0.3413363533333333
705,1778412988290,1.71281332,-0.595495114,0.677454187,-0.2522341008,0.3050723899999999,0.298658495
706,1778412988300,1.7117970777777778,-0.5747930111111111,0.4582855477777777,0.031857382,0.1384671877777777,0.4178958777777778
707,1778412988310,1.6734209,-0.4431051,0.39776713,0.0909738255555555,-0.1437442355555555,0.5576441666666666
708,1778412988320,1.73000641,-0.342068734,0.625893213,0.070354334,-0.457570404,0.6066476599999999
709,1778412988330,1.6380224,-0.30742648,0.6818386,0.09429955,-0.4140781,0.5528931
710,1778412988340,1.53874214,-0.2904956079999999,0.62539321,0.0910009735,-0.225509542,0.51825804
711,1778412988350,1.4914284222222225,-0.2809716777777777,0.570473671111111,0.0596848698888888,-0.1411651088888889,0.4890256155555555
712,1778412988360,1.367830511111111,-0.2641719177777777,0.4024286222222222,-0.048638713,0.08070819,0.40018132
713,1778412988370,1.42316836,-0.367686088,0.503090344,-0.1593547786,0.096834564,0.325657944
714,1778412988380,1.4606034888888888,-0.4079574033333333,0.6380453888888888,-0.2190735844444444,0.0281074569999999,0.2391891255555555
715,1778412988390,1.415004688888889,-0.4070732111111111,0.7431564755555555,-0.1946227188888888,-0.1598298791111111,0.1415893073333333
716,1778412988400,1.33768477,-0.39830069,0.784689049,-0.094207914,-0.5035061080000001,-0.0032527621999999
717,1778412988410,1.2404687,-0.4252992,0.683546,-0.037032615,-0.5386909,-0.06230642
718,1778412988420,1.21715026,-0.463862432,0.5305065609999999,-0.0808914449999999,-0.299238817,-0.204633835
719,1778412988430,1.2372978,-0.4428612,0.4490201,-0.1425819255555555,-0.1464591195555555,-0.2493614255555555
720,1778412988440,1.3165300333333334,-0.3279154666666666,0.6161842966666666,-0.1789952144444444,-0.0017561862222222,-0.3783180611111111
721,1778412988450,1.3592195,-0.217451716,0.806589726,-0.1192526526,0.05260922,-0.5022386
722,1778412988460,1.3024642,-0.1699286133333333,0.7938471333333333,0.058870408,-0.000738107,-0.6546246233333333
723,1778412988470,1.2170528,-0.16196068,0.7484583,0.19814359,-0.029244313,-0.75806147
724,1778412988480,1.19423125,-0.19795363,0.67035925,0.2032747,-0.01055238658,-0.783350528
725,1778412988490,1.1287616333333332,-0.30100672,0.5288520111111111,0.0740737161111111,0.0270893783777777,-0.7719073344444445
726,1778412988500,1.17288244,-0.310441904,0.6197526449999999,-0.0684301635,-0.0118962507,-0.723731824
727,1778412988510,1.1986709333333332,-0.2326016577777777,0.8025265222222222,-0.1220761275555555,-0.0299230327777777,-0.7071575055555556
728,1778412988520,1.1389485333333331,-0.053031551,1.019439566666667,-0.0482314809999999,0.049962215,-0.7083792333333333
729,1778412988530,1.0662208,0.050612707,1.1328405,0.031993125,0.0605502349999999,-0.7250757
730,1778412988540,0.87521368,0.1413090523333333,1.2366372,0.1523979077777777,0.13903562,-0.7273833388888888
731,1778412988550,0.6322896088888889,0.24171803,1.2687697888888887,0.3841126299999999,0.25718366,-0.6789227944444445
732,1778412988560,0.5975104800000001,0.2600456519999999,1.31567428,0.572409682,0.327872266,-0.51940342
733,1778412988570,0.6598217222222222,0.2794200755555555,1.3475378444444446,0.6546501022222222,0.4297819444444444,-0.4011909066666666
734,1778412988580,0.7775149,0.30977416,1.4549628,0.70453596,0.4497363,-0.28526568
735,1778412988590,0.9190678444444446,0.3256456977777777,1.6277033,0.8814101711111111,0.5495080177777778,-0.2361264044444444
736,1778412988600,0.9516205333333334,0.3012574155555556,1.7360056777777777,1.0352079666666667,0.783394618888889,-0.3017585577777777
737,1778412988610,0.8603916399999999,0.232220864,1.7369854400000002,1.1448346900000002,1.043540907,-0.4001049379999999
738,1778412988620,0.7127549666666666,0.2355015333333333,1.4680734333333334,1.3088675333333333,1.5551662333333334,-0.7173383
739,1778412988630,0.6584225,0.2826994,1.4113019,1.276289,1.3458493,-0.8130377
740,1778412988640,0.718169956,0.278016224,1.19350866,0.93177114,0.6909904360000001,-0.8733894320000001
741,1778412988650,0.8364106,0.21086597,1.0505084666666666,0.5691314611111111,0.1450507711111111,-0.9147777333333332
742,1778412988660,0.7896395666666667,0.1503339733333333,0.8721951899999999,0.2909923611111111,-0.1146271844444444,-0.9840070444444444
743,1778412988670,0.65976412,0.027532093,0.6581634000000001,-0.199059852,-0.272972372,-1.15938818
744,1778412988680,0.62960994,-0.022379354,0.63741523,-0.33764583,-0.21616358,-1.2271922
745,1778412988690,0.494614244,-0.0839683148,0.49343123,-0.6056856070000001,-0.0255181471999999,-1.39193768
746,1778412988700,0.35807983,-0.1134822333333333,0.3834471633333333,-0.9242628,0.1652087266666666,-1.5808727666666669
747,1778412988710,0.28758113,-0.1541553333333333,0.2981373033333333,-1.1042591333333334,0.168670195,-1.7018205
748,1778412988720,0.269585854,-0.1939228949999999,0.1208485129999999,-1.20529327,0.0772874514,-1.69876626
749,1778412988730,0.34114796,-0.2212629,-0.10619522,-1.2643011,-0.030466007,-1.5833161
750,1778412988740,0.3922755877777777,-0.2255483944444444,-0.2715842666666666,-1.3947508888888889,-0.2786736096666666,-1.19576749
751,1778412988750,0.31065837,-0.27007675,-0.32511044,-1.46111605,-0.5516408740000001,-0.852926023
752,1778412988760,0.3838401466666666,-0.2913517011111111,-0.2908164444444445,-1.3540957,-0.8813762333333334,-0.4342869468333333
753,1778412988770,0.651970984,-0.287150914,-0.2152808519999999,-1.17102475,-1.01912228,0.09897252265
754,1778412988780,0.7648312,-0.27641857,-0.19476746,-1.06883,-0.8074637,0.30549997
755,1778412988790,0.7618127222222222,-0.1984295966666666,-0.4049253955555555,-1.0155505422222222,-0.5276956655555556,0.4628270755555556
756,1778412988800,0.7313841,-0.12997709,-0.6940954,-0.96498597,-0.25586864,0.621308
757,1778412988810,0.7737985244444444,-0.1453980499999999,-0.6206696888888888,-0.9230411233333334,0.0204464135555555,0.7552193444444445
758,1778412988820,0.987140882222222,-0.1536336257777777,-0.58307605,-0.74385923,0.60855657,0.9322293
759,1778412988830,1.1257669,-0.046039272,-0.51692045,-0.5544966,0.9072609,0.9554415
760,1778412988840,1.1768573333333334,-0.0185376670333333,-0.62950827,-0.2504813155555555,0.7889601333333334,0.8818004555555556
761,1778412988850,1.2324195,-0.012592198,-0.7607151,0.0919919022222222,0.4873373522222222,0.6901301333333333
762,1778412988860,1.1475852320000002,-0.07097975,-0.75345252,0.302720632,0.2298007444,0.460044368
763,1778412988870,1.0236064066666666,-0.17562,-0.7429905333333333,0.42660046,0.088649206,0.36658472
764,1778412988880,1.1184493,-0.16586334,-0.6123528,0.68010205,0.15950748,0.34398335
765,1778412988890,1.158018111111111,-0.15250212,-0.6403896555555556,0.9035364177777778,0.4123218977777778,0.2573109188888889
766,1778412988900,1.1157968222222223,-0.1593317788888889,-0.6173937444444444,1.2388236666666663,0.6843016566666666,0.1458652333333333
767,1778412988910,1.24517326,-0.15239914,-0.635402915,1.4592988,0.7110567459999999,0.0956128668
768,1778412988920,1.3315038444444445,-0.1478880366666666,-0.6226853611111111,1.7249223111111112,0.596814721111111,0.0072538115555555
769,1778412988930,1.2802577,-0.1285136,-0.6648254,1.8712542,0.35261157,-0.031764057
770,1778412988940,1.22473005,-0.097536179,-0.6801128439999999,1.97925198,0.1481075512,-0.0073378025999999
771,1778412988950,1.1844458666666666,-0.07451993,-0.7037707222222223,2.044734844444444,-0.0121405891111111,0.0241708867777777
772,1778412988960,1.150433,-0.0615035892,-0.72644484,1.89642112,-0.125025164,0.1132052676
773,1778412988970,1.1602980222222223,-0.0506736882222222,-0.7613113333333333,1.6330238,-0.2249190533333333,0.2535779666666666
774,1778412988980,1.150433,-0.05921077,-0.7172979,1.448548,-0.2656422,0.3342098
775,1778412988990,1.18077618,-0.0968471192,-0.709858472,1.21929694,-0.416277144,0.440313968
776,1778412989000,1.1755564,-0.109000266,-0.69043666,0.9764987122222222,-0.4969496888888889,0.5148848388888889
777,1778412989010,1.1897104,-0.0895343571111111,-0.6502580955555556,0.87496233,-0.4855471999999999,0.54311955
778,1778412989020,1.2348586,-0.067503944,-0.5696369,0.7363,-0.5032618,0.53151345
779,1778412989030,1.2712327,-0.11412251,-0.51813996,0.6000811,-0.40369368,0.43072367
780,1778412989040,1.26845206,-0.145167008,-0.53528124,0.5460821960000001,-0.402716328,0.397004906
781,1778412989050,1.2477591222222222,-0.1573262566666666,-0.4996497555555556,0.31176117,-0.48004958,0.2682383
782,1778412989060,1.228029,-0.15049659,-0.4759119,0.1790037010444444,-0.5306141644444444,0.2187596711111111
783,1778412989070,1.15173798,-0.15557005,-0.419152504,-0.02420482248,-0.6603717,0.1669598299999999
784,1778412989080,1.0628059,-0.18025441,-0.34437984,-0.12927055,-0.7243885,0.15767495
785,1778412989090,1.009625277777778,-0.1685464188888888,-0.2730952011111111,-0.2354731277777778,-0.729954011111111,0.1607970611111111
786,1778412989100,0.966983246,-0.151472256,-0.2018166579999999,-0.3981196879999999,-0.68101836,0.1657381419999999
787,1778412989110,0.94458088,-0.1485723533333333,-0.1442326688888889,-0.5128232433333334,-0.5640750111111111,0.1907285722222222
788,1778412989120,0.9483209244444444,-0.1436872422222222,-0.1059987288888889,-0.5543608666666666,-0.5071983688888889,0.2015880744444444
789,1778412989130,0.95420206,-0.12924534,-0.07543123,-0.6216898,-0.36276692,0.22547899
790,1778412989140,0.9634979377777776,-0.1342456388888888,-0.1035595677777777,-0.6820958,-0.3450523488888889,0.2613153666666666
791,1778412989150,0.96981263,-0.14415476,-0.10961006,-0.7304206,-0.3755947,0.29633728
792,1778412989160,0.988255447777778,-0.1468649333333333,-0.1204507933333333,-0.780781571111111,-0.5775136522222222,0.3509741688888889
793,1778412989170,1.0116613444444444,-0.1613915277777777,-0.1115004055555555,-0.8071837488888889,-0.6949999433333333,0.3655666333333334
794,1778412989180,1.0120409,-0.18074225,-0.07713865,-0.8397623,-0.72377765,0.3378749
795,1778412989190,1.0146460555555554,-0.1766227688888889,-0.0678935303,-0.8571375,-0.646675138888889,0.3158843977777777
796,1778412989200,1.0302633666666667,-0.1299872633333333,-0.0084049622333333,-0.8943313,-0.4309782,0.25663221
797,1778412989210,1.02079741,-0.1476885014999999,-0.0728548617,-0.8832545919999999,-0.31835832,0.213567468
798,1778412989220,1.0200087333333334,-0.1718799466666666,-0.1252308833333333,-0.8397622866666666,-0.4007751766666667,0.2106150377777777
799,1778412989230,1.0213096,-0.181474,-0.15842387,-0.8012789,-0.50814855,0.20776442
800,1778412989240,1.0396215999999998,-0.1740101559999999,-0.1180129819999999,-0.7589471910000001,-0.493610397,0.180398459
801,1778412989250,1.0575481777777778,-0.1272974064444444,-0.0785547188888889,-0.73632547,-0.3159353044444444,0.1200739077777777
802,1778412989260,1.02357194,-0.123110834,-0.113317588,-0.7511283000000001,-0.224348933,0.0852284645
803,1778412989270,1.0011729333333337,-0.1514180422222222,-0.1149423444444444,-0.7853289755555556,-0.2406653411111111,0.0890564416666666
804,1778412989280,1.0292131666666668,-0.14941251,-0.0589262027777777,-0.7972744288888889,-0.2281769077777777,0.1546207155555555
805,1778412989290,1.0389020800000002,-0.130782024,-0.0578692315999999,-0.80017934,-0.216530078,0.180154132
806,1778412989300,1.0437804,-0.12217176,-0.08226089,-0.7933379,-0.24487339,0.2138729
807,1778412989310,1.0435907000000002,-0.1533693833333333,-0.073344388,-0.7374792888888889,-0.3614094711111111,0.2575145344444444
808,1778412989320,1.06065942,-0.157423818,-0.0524969668,-0.6148483,-0.476751024,0.313074488
809,1778412989330,1.0676843,-0.16659509,-0.027105242,-0.5092939,-0.4928774,0.3189386
810,1778412989340,1.06748914,-0.174497994,-0.0560215636,-0.4293950759999999,-0.39929558,0.30574432
811,1778412989350,1.0729690666666667,-0.1787096255555555,-0.0944601211111111,-0.3736858,-0.2980171,0.28656372
812,1778412989360,1.0753540888888888,-0.1762162433333333,-0.16289229,-0.3578037822222222,-0.2133808266666667,0.2666772444444444
813,1778412989370,1.0907496,-0.15757017,-0.234937495,-0.34711395,-0.15782766,0.244720675
814,1778412989380,1.0974725,-0.14610608,-0.2626373,-0.34680852,-0.16668494,0.23708509
815,1778412989390,1.0715394111111112,-0.1709144422222222,-0.2656896466666666,-0.3422611022222222,-0.24853848,0.2299585388888889
816,1778412989400,1.05743964,-0.189334213,-0.2532648059999999,-0.324940199,-0.309501046,0.229754923
817,1778412989410,1.089982233333333,-0.1973590766666666,-0.1905497333333333,-0.2644629277777778,-0.3451880822222222,0.2148909733333333
818,1778412989420,1.0887769,-0.2201043079999999,-0.183839992,-0.1357455283999999,-0.295818064,0.16476077
819,1778412989430,1.0748662555555557,-0.26593016,-0.2386182677777778,-0.063909896,-0.25953373,0.13873868
820,1778412989440,1.0801917555555556,-0.2785596111111111,-0.3156891533333333,0.1103173166666666,-0.3562512111111111,0.0903460048888888
821,1778412989450,1.0882037,-0.2669058,-0.34998992,0.14866495,-0.4000286,0.082540736
822,1778412989460,1.0795142,-0.2587752555555556,-0.3470087255555555,0.1856551444444444,-0.4471995777777777,0.0710025104444444
823,1778412989470,1.0512605,-0.2358199933333333,-0.3508843133333333,0.2567849155555556,-0.5080128111111111,0.0555277126666666
824,1778412989480,1.0488539,-0.2279462259999999,-0.374296242,0.24548424,-0.495626175,0.0578014235
825,1778412989490,1.044861066666667,-0.2285838,-0.3838401533333334,0.2182336655555555,-0.4739410933333334,0.0603466195555555
826,1778412989500,1.0281392,-0.25592956,-0.34413594,0.16882291,-0.40063944,0.0782648
827,1778412989510,1.0125286666666666,-0.2437743911111111,-0.3687579644444445,0.1245704155555555,-0.3172248611111111,0.1200739033333333
828,1778412989520,1.0148052,-0.2237833833333333,-0.4012429233333334,0.1130321933333333,-0.37009708,0.1259108866666666
829,1778412989530,1.0096016,-0.23126349,-0.39246193,0.099919338,-0.4363129199999999,0.115282146
830,1778412989540,1.023261,-0.24495333,-0.398072,0.08330429,-0.4519506,0.10208785
831,1778412989550,1.0064306,-0.2461729,-0.41782925,0.0382373388888888,-0.3938522355555556,0.0646225522222222
832,1778412989560,0.98598432,-0.23921518,-0.436104728,-0.0344670552,-0.266558473,0.0010918903999999
833,1778412989570,0.95688508,-0.2251655666666666,-0.4679033199999999,-0.1174099308888888,-0.1810059211111111,-0.0463565188888888
834,1778412989580,0.9433341677777778,-0.2443604555555555,-0.5297260322222223,-0.2230101522222222,-0.1474093311111111,-0.0690936144444444
835,1778412989590,0.9613823,-0.305380621,-0.674545465,-0.480339749,-0.293680085,-0.065849337
836,1778412989600,0.9747215,-0.33084247,-0.72461545,-0.6094729,-0.40186113,-0.0684149
837,1778412989610,0.995112942,-0.3744730699999999,-0.747287488,-0.95588437,-0.454027499,-0.1247350159999999
838,1778412989620,1.004533561111111,-0.3145678177777777,-0.6496212499999999,-1.2976941333333334,-0.4410911155555556,-0.1981860066666666
839,1778412989630,1.026977288888889,-0.2490660288888888,-0.5673298522222222,-1.4402251,-0.38170317,-0.25899923
840,1778412989640,1.07266014,-0.1148420698999999,-0.477445527,-1.5247664,-0.253180912,-0.391797444
841,1778412989650,1.0682804555555556,-0.0242730978888888,-0.4442264588888889,-1.5281872,-0.16179816,-0.5051707
842,1778412989660,1.0565182333333334,0.026495449,-0.4034314055555555,-1.5118979,0.0302963277777777,-0.5974764611111111
843,1778412989670,1.01191266,0.036111864,-0.3361842499999999,-1.469668,0.29555845,-0.70980452
844,1778412989680,0.9662555666666668,0.0132629696666666,-0.30436736,-1.4340488333333334,0.4010721377777778,-0.7480843111111111
845,1778412989690,0.93588389,-0.0076193469,-0.269314513,-1.37840743,0.435870063,-0.748959806
846,1778412989700,0.9145994222222222,-0.0436272077777777,-0.1634512688888889,-1.2838483,0.41552883,-0.70552856
847,1778412989710,0.8859561133333334,-0.06726002,-0.061192591,-1.173692122222222,0.4449173877777778,-0.63914984
848,1778412989720,0.8680445210000001,-0.0683332537,-0.0149825812999999,-1.10523645,0.4666567730000001,-0.581099002
849,1778412989730,0.8665241666666668,-0.0261092484333333,0.038925034,-1.0028585,0.2754157433333333,-0.4516197333333333
850,1778412989740,0.8925521166666667,0.0092789961333333,0.0526859983333333,-0.8542189666666666,-0.0158056733333333,-0.3471648633333333
851,1778412989750,0.93224955,0.030581051,0.028782167,-0.7157603,-0.32367268,-0.26694027
852,1778412989760,0.9177059666666668,0.0650850999999999,0.0318446761111111,-0.5009456555555556,-0.7862876888888888,-0.1790461188888888
853,1778412989770,0.84171068,0.082077963,0.0101072962499999,-0.1763439799999999,-1.2368893,-0.036307234
854,1778412989780,0.7827286,0.0663758256666666,0.0051019236666666,0.0004326866666666,-1.2611195333333334,0.0880383613333333
855,1778412989790,0.7286197666666667,0.008699694,0.017958365,0.1910170333333333,-1.015559,0.2921970822222222
856,1778412989800,0.7128465,-0.033111688,-0.004177073,0.2500656,-0.8373952499999999,0.38552096
857,1778412989810,0.7995960988888888,-0.0353001635555555,-0.0508769517777777,0.2545451333333333,-0.3981281808888889,0.4897722466666667
858,1778412989820,0.9591210277777776,0.0511649105555555,-0.0454565833333333,0.1960395511111111,0.1767130288888888,0.4766729888888888
859,1778412989830,0.9993815,0.090325396,-0.065677612,0.18348324,0.335019193,0.3812450559999999
860,1778412989840,1.0183013555555556,0.1646200388888888,-0.1188517844444444,0.1927138222222222,0.10070496,0.103309544
861,1778412989850,1.0252123,0.19214535,-0.10570739,0.2042520499999999,-0.05612159,0.023899399
862,1778412989860,0.8879989433333333,0.1923791066666666,-0.1960073666666666,0.2667620833333333,-0.3970422377777777,-0.1416402145555555
863,1778412989870,0.82519042,0.1352721233333333,-0.2593748899999999,0.2834585755555555,-0.4725158166666667,-0.1845437533333333
864,1778412989880,0.82691412,0.0494663028,-0.2251411699999999,0.276270948,-0.248294146,-0.1308434835
865,1778412989890,0.8430776999999999,-0.0456429086666666,-0.2124412466666666,0.2297040155555555,0.3074428155555555,0.0668283877777777
866,1778412989900,0.8516961,-0.09558485,-0.2247997,0.20852798,0.41064206,0.14423631
867,1778412989910,0.91496802,-0.147319562,-0.140843584,0.180306843,0.3601860879999999,0.286624801
868,1778412989920,0.9856978,-0.1636681,-0.05567398,0.1272853,0.13690615,0.51624227
869,1778412989930,0.9782379588888888,-0.1449610255555555,-0.0320343915555555,0.1040730972222222,0.0025197431111111,0.528391348888889
870,1778412989940,0.917273012,-0.098487456,0.0332488912,0.0809830765,-0.249088249,0.449904274
871,1778412989950,0.9176145,-0.07509585,0.060247418,0.09552124,-0.22043951,0.393462
872,1778412989960,0.941957379,-0.040846895,0.0908254218,0.125147331,-0.0790894501,0.240872353
873,1778412989970,0.9609774555555556,-0.0281791517777777,0.1130181155555555,0.1834832433333333,0.0651655261111111,0.0502337008444444
874,1778412989980,0.9703005,-0.02872119,0.11833008,0.2204055666666666,0.1555200122222222,-0.0655048849111111
875,1778412989990,0.973081182,-0.0641165438,0.1135523562,0.290381518,0.41076422,-0.351359344
876,1778412990000,0.95883644,-0.12509876,0.14665489,0.30992863,0.5896203,-0.52532864
877,1778412990010,0.9697652688888888,-0.1398794344444444,0.1471156222222222,0.3718956922222222,0.6609536888888888,-0.6240822711111111
878,1778412990020,1.0571959,-0.25812483,0.15080148,0.4272113,0.53036815,-0.6658235
879,1778412990030,1.020615133333333,-0.2705645566666667,0.278159871111111,0.4312157411111111,0.3237320873333333,-0.6758006844444444
880,1778412990040,0.9486461111111112,-0.2903014744444444,0.5195425222222222,0.47064932,0.1551806542222222,-0.6744432422222223
881,1778412990050,0.93300566,-0.3146220039999999,0.482171401,0.5799231,0.2896943,-0.6212317
882,1778412990060,0.9556824777777776,-0.3407888444444444,0.4394802377777778,0.9177216333333332,0.2532216533333333,-0.3713951333333333
883,1778412990070,0.9771607,-0.3520632,0.4285311,1.1693907,0.17172444,-0.1551552
884,1778412990080,1.0188704,-0.41871345,0.42484185,1.3636401666666669,-0.0835418433333333,0.1158997857777777
885,1778412990090,1.0002243377777775,-0.5792241877777777,0.4435014944444445,1.3452468888888889,-0.1484273977777778,0.2737359211111111
886,1778412990100,0.99179566,-0.6168653,0.4133778,1.2836192,-0.09521582,0.30549997
887,1778412990110,0.9141861355555556,-0.4919697622222222,0.532324431111111,1.0128102333333333,0.30779065,0.3769691066666666
888,1778412990120,0.8574551888888888,-0.2080033248888889,0.5954514222222222,0.84116215,0.6274928333333334,0.5258122233333333
889,1778412990130,0.866922555,-0.0486674744,0.4988980329999999,0.9091698,0.397676842,0.717333188
890,1778412990140,0.9594970444444444,0.0980274022222222,0.2765777855555555,1.0409092,-0.35625121,0.9806898066666666
891,1778412990150,1.0359751,0.099670455,0.19251123,1.029140235,-0.6357545389999999,1.045113836
892,1778412990160,1.1431222555555556,0.127205935,0.2712692033333333,0.8694647133333333,-0.4499144399999999,0.8607601533333333
893,1778412990170,1.1341515666666666,0.15594406,0.3110547333333333,0.7185175866666667,-0.0928912,0.6776417088888889
894,1778412990180,1.16763828,0.159338567,0.369317301,0.5386298679999999,0.425668904,0.5306583
895,1778412990190,1.1656473,0.1534337533333333,0.3430992933333333,0.4470977777777778,0.7053419222222223,0.4557005288888888
896,1778412990200,1.0882037,0.1296722,0.33236694,0.40766418,0.530979,0.49608433
897,1778412990210,1.054592,0.0521920687999999,0.297837496,0.283601118,0.3096690199999999,0.633036274
898,1778412990220,1.1425565222222225,-0.1069676288888888,0.28287558,-0.0643340944444444,0.2081801388888889,0.7537940022222223
899,1778412990230,1.25435675,-0.0954537391,0.353715755,-0.2226843719999999,0.2977574879999999,0.65893623
900,1778412990240,1.2554187555555556,-0.0593191794444444,0.5302341944444444,-0.2504728366666666,0.4916811333333333,0.4172850433333333
901,1778412990250,1.2390052,-0.06433302,0.57469815,-0.14576343,0.5315898,0.33176643
902,1778412990260,1.23334632,-0.153850444,0.52003645,0.050929391,0.308348054,0.370310885
903,1778412990270,1.2127096666666666,-0.2737524355555555,0.5066217,0.1116068868888889,0.1562496311111111,0.3969234644444444
904,1778412990280,1.2148371666666666,-0.4141501833333333,0.5803997,-0.0606520406666666,0.2171731677777777,0.4191854355555555
905,1778412990290,1.25434756,-0.469737766,0.63192711,-0.17117467,0.419926942,0.39407284
906,1778412990300,1.2497375,-0.45895967,0.6549772,-0.17813833,0.56029963,0.3519244
907,1778412990310,1.24168828,-0.396236542,0.525109892,-0.047539188,0.505567713,0.355650556
908,1778412990320,1.210467,-0.35523415,0.56396586,0.10834903,0.28053162,0.37513658
909,1778412990330,1.1983287777777776,-0.2818050577777777,0.6090497666666667,0.2448394644444444,-0.0191992702222222,0.3951587888888889
910,1778412990340,1.2326634,-0.208091412,0.688277924,0.408519384,-0.190630164,0.325047092
911,1778412990350,1.2055887,-0.19345641,0.671594,0.46019706,-0.1220931,0.25907558
912,1778412990360,1.2516821666666669,-0.1706095533333333,0.7526658722222223,0.5278653455555555,0.0019088955555555,0.1075854765333333
913,1778412990370,1.3387061800000002,-0.136657367,0.81959965,0.5604981849999999,0.142732091,-0.08564842428
914,1778412990380,1.3123021333333336,-0.101357542,0.8746343333333333,0.5206709433333333,0.27421951,-0.3445178633333333
915,1778412990390,1.207238488888889,-0.103413896,0.9415217444444444,0.4410571766666666,0.3010968066666666,-0.51901656
916,1778412990400,1.1579944,-0.058722936,1.0198461,0.41377267,0.28236416,-0.60412794
917,1778412990410,1.1088756999999998,-0.0294529373333333,1.0804288888888889,0.48829604,0.4316145,-0.7212069833333333
918,1778412990420,1.0793923,-0.03433127,1.1230838,0.5261686,0.5480827,-0.75256383
919,1778412990430,1.0917473,-0.0464729022222222,1.0803747,0.5468695166666666,0.6583745888888889,-0.7478127800000001
920,1778412990440,1.076499111111111,-0.0057930210222222,1.0297179222222224,0.5472767,0.4686725555555556,-0.6627692555555557
921,1778412990450,1.050854,0.042807378,1.0427743,0.536064265,0.172037491,-0.581282276
922,1778412990460,1.0237691333333334,0.1170596793333333,1.0044692133333333,0.4848345466666667,-0.0091542255555555,-0.50211646
923,1778412990470,0.9866735,0.15381996,0.94542104,0.43087637,-0.115373775,-0.44408596
924,1778412990480,1.00629656,0.131452794,0.872645415,0.31420457,0.15339902,-0.4691307
925,1778412990490,1.0491467,0.12625737,0.82876784,0.2201340822222222,0.4579996877777778,-0.5565497333333334
926,1778412990500,1.0445122,0.12186686,0.7767831,0.12911785,0.73378026,-0.707972
927,1778412990510,0.9555096722222224,0.0811564935555555,0.6756830666666667,-0.0352679424444444,1.0181636066666668,-0.8895972155555556
928,1778412990520,0.9075834,0.040581636,0.6623252,-0.1506502,1.1247225,-0.98835087
929,1778412990530,0.8182032250000001,-0.0468228533,0.64956839,-0.281188262,0.8264458360000001,-0.949684224
930,1778412990540,0.8010223666666667,-0.0889889306666666,0.61903002,-0.46334462,0.0680076599999999,-0.7768619800000001
931,1778412990550,0.8348658,-0.046039272,0.58079606,-0.5270085,-0.5496862,-0.60534966
932,1778412990560,0.920023205,-0.0946274729,0.312929836,-0.586871528,-0.75419784,-0.539378132
933,1778412990570,0.97162174,-0.1156673199999999,0.1537183133333333,-0.6239974333333334,-0.8521234644444444,-0.5459616888888889
934,1778412990580,0.9284417133333334,-0.1145832477777777,0.1185197933333333,-0.58646425,-0.9098824666666666,-0.5900784333333333
935,1778412990590,0.826670164,-0.1108296375,0.12784282,-0.49182369,-0.917049716,-0.66411314
936,1778412990600,0.83145094,-0.09631659,0.13808732,-0.4573718999999999,-0.8074637,-0.6927008
937,1778412990610,0.771520612,-0.1074391899999999,0.0783521328,-0.5494876599999999,-0.218087736,-0.73203936
938,1778412990620,0.73504287,-0.109000266,-0.040795065,-0.6406261,0.22250111,-0.7366818
939,1778412990630,0.7533230722222223,-0.1028752442222222,-0.0141539425555555,-0.6629559266666667,0.3917736666666667,-0.7258901666666666
940,1778412990640,0.719105979,-0.094014632,-0.000759189,-0.63818268,0.370265054,-0.7143248
941,1778412990650,0.66086173,-0.06872352,-0.10497563,-0.6253549,0.2560977,-0.6835381
942,1778412990660,0.7272476766666666,-0.0144927150666666,-0.2233023233333333,-0.5969844277777778,-0.0266566983333333,-0.5859382555555556
943,1778412990670,0.7285424779999999,-0.0265533783,-0.334830523,-0.5902922800000001,-0.15404041,-0.5133559940000001
944,1778412990680,0.61023546,-0.0914348688888889,-0.4881992444444444,-0.5001312266666667,-0.3629705333333333,-0.2968717743333333
945,1778412990690,0.5759380733333334,-0.1306478566666666,-0.5083020333333333,-0.34436514,-0.5928527200000001,0.0317895113333333
946,1778412990700,0.60204733,-0.108024593,-0.44430945,-0.222111702,-0.47216966,0.2486911989999999
947,1778412990710,0.5353361133333334,-0.0976987906666666,-0.5420438233333332,-0.1431164166666666,-0.1017315233333333,0.3826703666666666
948,1778412990720,0.47173482,-0.10339018,-0.65137947,-0.12804885,0.15767495,0.4710396
949,1778412990730,0.49637718,-0.113045216,-0.6425205577777777,-0.1210580455555555,0.3940304266666667,0.5427123377777777
950,1778412990740,0.5978702444444445,-0.1887779488888888,-0.5728654,-0.09689565,1.0813524,0.7416449
951,1778412990750,0.6569682,-0.236312554,-0.535458064,-0.0180352665,1.57064094,0.91964579
952,1778412990760,0.9109271333333332,-0.22222842,-0.5595346600000001,0.0983718583333333,1.906878477777778,1.0430641666666665
953,1778412990770,1.0630498,-0.17781526,-0.5901259,0.2152473,1.9292084,1.0440143
954,1778412990780,1.1352949,-0.206124835,-0.73069815,0.5193270799999999,1.36393036,0.8530634560000001
955,1778412990790,1.1853232333333332,-0.23411936,-0.8126998999999999,0.7804846666666667,0.7262465,0.6243622333333333
956,1778412990800,1.2399809,-0.24519724,-0.7897717,0.9531508,0.334897,0.4850891
957,1778412990810,1.2799561222222222,-0.2340990311111111,-0.8220635544444445,1.0417236222222224,0.2673305155555556,0.42128949
958,1778412990820,1.3268762,-0.218092,-0.85907453,1.1724449,0.1827197,0.32687965
959,1778412990830,1.33883429,-0.227799871,-0.863608345,1.18649447,0.251027673,0.341967561
960,1778412990840,1.491594511111111,-0.2283093933333333,-0.8173613666666667,1.1606353,0.4383338133333333,0.3914258399999999
961,1778412990850,1.5342969,-0.2322391599999999,-0.8073337,1.1638931,0.5633539,0.38368842
962,1778412990860,1.5217107,-0.207445032,-0.7485741960000001,1.1585177,0.569706704,0.273002912
963,1778412990870,1.5254073666666668,-0.1815282066666666,-0.7314417666666667,1.1437352,0.53464407,0.19738002
964,1778412990880,1.4344129666666667,-0.170264,-0.6766756,1.034597166666667,0.1605764733333333,0.11125056
965,1778412990890,1.264586,-0.203847264,-0.5716735460000001,0.93097705,-0.23332839,0.147168381
966,1778412990900,1.1766404666666668,-0.2345224844444444,-0.4516218611111111,0.8655960055555556,-0.5101168666666667,0.24088593
967,1778412990910,1.15130192,-0.259734672,-0.397754895,0.812350475,-0.67582613,0.360781665
968,1778412990920,1.130049022222222,-0.2720281,-0.3797511377777778,0.7998281,-0.70361966,0.401403
969,1778412990930,1.1213764,-0.2720281,-0.38733968,0.79378752,-0.77685348,0.4573973311111111
970,1778412990940,1.06879404,-0.18283994,-0.4315953159999999,0.78309089,-0.8880344600000001,0.498710958
971,1778412990950,1.0133145244444444,-0.1679772844444444,-0.4340327722222222,0.7610732555555555,-0.9508091933333334,0.4976453777777778
972,1778412990960,0.9891667466666666,-0.1415529766666666,-0.3953008666666666,0.7166850155555555,-0.9765326655555556,0.4869894888888889
973,1778412990970,0.9876491,-0.13073933,-0.35145345,0.68437797,-0.9418501,0.46798536
974,1778412990980,0.96165838,-0.1224258344444444,-0.3166478944444444,0.6538356366666667,-0.8673267666666667,0.4419225333333333
975,1778412990990,0.89963174,-0.087828294,-0.231293986,0.48267623,-0.529283896,0.288396264
976,1778412991000,0.8804002866666667,-0.0729785133333333,-0.1809963288888888,0.39422554,-0.37987065,0.20776442
977,1778412991010,0.8861458777777779,-0.07025478,-0.1267655288888888,0.2667620822222222,-0.1619339084444444,0.0999838155555555
978,1778412991020,0.890265372,-0.07338843,-0.1132444142,0.19264595,-0.042682953,0.03489465
979,1778412991030,0.8996968399999999,-0.0832806077777777,-0.0480549723333333,0.0912453111111111,0.0564779195111111,-0.0779848331111111
980,1778412991040,0.90734293,-0.0918989977777777,-0.0093535272871111,0.0510651351111111,0.1048027233333333,-0.1339112944444444
981,1778412991050,0.920102475,-0.1023657288,-0.0014208145987999,0.0280837031999999,0.125788716,-0.184964554
982,1778412991060,0.9219507666666666,-0.1184892953333333,-0.0017650081555555,0.01977618,0.10330954,-0.19913621
983,1778412991070,0.9176145,-0.15732625,0.021434177,0.017943637,0.05993939,-0.2034121299999999
984,1778412991080,0.9273711711111112,-0.1611476133333333,0.0369533764444444,0.0220838246666666,0.0826764793333333,-0.17599188
985,1778412991090,0.9433883666666666,-0.1607410833333333,0.041780894,0.025477421,0.1092143973333333,-0.1325538566666666
986,1778412991100,0.974355592,-0.145667028,0.0207024268,0.0284502109999999,0.0984227656,-0.0968192935
987,1778412991110,0.99789354,-0.15114703,0.013303622,0.0495040798888888,0.0163656168888888,-0.0303896514644444
988,1778412991120,1.0144799,-0.16952209,0.019970678,0.080860905,-0.02069245,7.635591e-05
989,1778412991130,1.0643426,-0.174168703,0.0251051245,0.0763406375,0.0224333665999999,0.013148487573
990,1778412991140,1.1099665444444444,-0.1568384188888889,0.0035977706666666,0.056766376,0.0654370144444444,0.0236957835555555
991,1778412991150,1.11359553,-0.143715694,-0.0468685883,0.0256403142,0.0093001494,0.0287861776
992,1778412991160,1.111619711111111,-0.1226291033333333,-0.0564057301111111,-0.0258337493333333,-0.1090616873333333,0.045889899
993,1778412991170,1.1269051888888888,-0.0957474515555555,-0.0468116762222222,-0.04741702,-0.12697987,0.047111593
994,1778412991180,1.10501875,-0.147554337,-0.073967728,-0.0636655544,-0.17951274,0.0253654333999999
995,1778412991190,1.0800427333333331,-0.1861964944444444,-0.0779787988888889,-0.0732762186666666,-0.2605518133333333,0.0129041491333333
996,1778412991200,1.0669525,-0.20614007,-0.06299148,-0.085900396,-0.31267744,0.0055739814
997,1778412991210,1.0575861,-0.203115506,-0.030477388,-0.1218792992,-0.320923866,-0.05166240572
998,1778412991220,1.0584154,-0.19516383,-0.019543823,-0.14881766,-0.29740626,-0.10262234
999,1778412991230,1.07258698,-0.15822874,0.00587534266,-0.180039593,-0.196677548,-0.138051484
