id,timestamp,acc_x,acc_y,acc_z,gyro_x,gyro_y,gyro_z
0,1778412885470,-0.44246486,0.20653644,-1.034786,-0.3504736,1.7355697,0.6457419
1,1778412885480,-0.4416246977777778,0.2083285477777777,-1.0449017555555555,-0.2587107733333333,1.5835366333333336,0.6251088333333333
2,1778412885490,-0.4372612666666666,0.2229906344444444,-1.1324711444444444,-0.0950631063333333,1.3168000555555557,0.4963557866666666
3,1778412885500,-0.4665380822222222,0.2191896166666666,-1.207794011111111,0.0236448786666666,0.9656986233333332,0.3820595033333334
4,1778412885510,-0.5111307722222223,0.1925518811111111,-1.2886761333333334,0.10590564,0.5132389633333333,0.29063604
5,1778412885520,-0.50397757,0.174461395,-1.2727419,0.129606514,0.099155786,0.227678042
6,1778412885530,-0.4865358311111111,0.1606801055555555,-1.2251222777777775,0.13644801,-0.22776967,0.17294613
7,1778412885540,-0.4861564,0.15726528,-1.128511,0.14866495,-0.57106584,0.07154548
8,1778412885550,-0.496089941,0.140310021,-1.05489082,0.155628606,-0.7880388,-0.02241809432
9,1778412885560,-0.54692215,0.1033292,-1.0167361,0.1150683499999999,-0.94734776,-0.10017895
10,1778412885570,-0.604517,0.09134679,-0.923499,0.0026724567,-1.1727504,-0.1435491
11,1778412885580,-0.6380708,0.06535442,-0.7964794000000001,-0.02805315963,-1.23517902,-0.148191544
12,1778412885590,-0.6716246,0.03936205,-0.6694598,-0.037643462,-1.3053043,-0.14538164
13,1778412885600,-0.6854668266666667,0.0325323833333333,-0.63415284,-0.0118521336666666,-1.3212541333333334,-0.13995189
14,1778412885610,-0.76437387,-0.022729984,-0.562792005,0.147443255,-1.4189218,-0.0720799774999999
15,1778412885620,-0.78559464,-0.03945352,-0.53911686,0.19936527,-1.4519076,-0.034818295
16,1778412885630,-0.7557961044444444,-0.0136661092666666,-0.5398079111111111,0.3364665533333333,-1.5047797444444444,0.0559349434444444
17,1778412885640,-0.734780668,0.0019452353199999,-0.56290478,0.417559914,-1.56503644,0.08877138
18,1778412885650,-0.7263465888888889,0.0197132094444444,-0.5755450777777777,0.4537492122222222,-1.6165648666666668,0.09441832
19,1778412885660,-0.7257536855555555,0.0295240811111111,-0.5950042366666666,0.47607908,-1.658374,0.08681667
20,1778412885670,-0.761154142,0.0386364014,-0.5931504839999999,0.4573871539999999,-1.68549562,0.096712392
21,1778412885680,-0.7524118,0.0582554346666666,-0.5514142666666667,0.42374985,-1.7954073333333334,0.1226530433333333
22,1778412885690,-0.728292532,0.080858382,-0.5110664,0.43026555,-1.842239,0.11735903
23,1778412885700,-0.7320786333333333,0.0805331526666666,-0.4904554444444444,0.4758754466666667,-1.894364633333333,0.0813190383333333
24,1778412885710,-0.7518528333333333,0.0815088173333333,-0.4830769666666667,0.5256934422222223,-1.9528702111111111,0.0572923805555555
25,1778412885720,-0.7609590479999999,0.084578106,-0.49106524,0.560376,-1.9809014,0.06299362
26,1778412885730,-0.7343585388888889,0.1021638216666666,-0.486363071111111,0.55277436,-2.0894964666666667,0.0380167575555555
27,1778412885740,-0.718487,0.10528053,-0.47957066,0.53655297,-2.1452193,0.0086282175
28,1778412885750,-0.75412935,0.09402988,-0.4407879,0.4601970599999999,-2.1983628,-0.05131117
29,1778412885760,-0.8090072444444445,0.052042332,-0.3194020977777778,0.36734828,-2.141554,-0.05803049
30,1778412885770,-0.8485555999999999,0.022775719,-0.22528754,0.386040191,-2.10252091,-0.029992601
31,1778412885780,-0.8329720222222222,0.0245373396666666,-0.2000319866666666,0.5430686611111111,-2.076600722222222,0.0205058034444444
32,1778412885790,-0.8000162,0.0308249689999999,-0.25971028,0.60618955,-2.093908,0.023899399
33,1778412885800,-0.82670073,0.0335568366,-0.274052578,0.635876739,-2.18718439,0.01748550335
34,1778412885810,-0.832724811111111,0.0387420984444444,-0.2736406333333334,0.6541071311111111,-2.2451945333333336,0.0167728486666666
35,1778412885820,-0.7675990244444444,0.0724296975555555,-0.2825842577777778,0.6828848244444444,-2.358812155555556,0.0083397619999999
36,1778412885830,-0.756617307,0.0681990998,-0.277555848,0.66599151,-2.4244986,-0.0334133454
37,1778412885840,-0.78632635,0.04549046,-0.24236171,0.59947026,-2.4640815,-0.092237934
38,1778412885850,-0.80321759,0.02214763432,-0.244508174,0.487318692,-2.42205518,-0.0778219404
39,1778412885860,-0.81635857,0.0037502187999999,-0.25724062,0.3580498255555555,-2.3765266666666665,-0.0525922520955555
40,1778412885870,-0.8257358244444445,-0.0220812341111111,-0.1553274911111111,0.2228489544444444,-2.3383827555555556,0.0142615868866666
41,1778412885880,-0.8074220750000001,-0.0286724053,-0.079931488,0.203091451,-2.33415431,0.071301148
42,1778412885890,-0.79169255,-0.024574606,-0.02490999,0.21463646,-2.3431337,0.09353599
43,1778412885900,-0.7589399277777777,-0.0156716456888888,-0.0053966566666666,0.3560136577777777,-2.4134660111111113,0.1200739133333333
44,1778412885910,-0.7315121600000001,-0.00161594794,-0.0304773887999999,0.5471817000000001,-2.57301086,0.124689202
45,1778412885920,-0.7192188,0.0032623855,-0.07030898,0.6703285,-2.7640839,0.09536853
46,1778412885930,-0.69488503,0.0196779778,-0.130513709,0.619200586,-2.90299059,0.088221612
47,1778412885940,-0.6726002,0.03448372,-0.18427904,0.57014954,-2.947949,0.08742751
48,1778412885950,-0.6331331555555555,0.0502265084444444,-0.1624010677777777,0.3135258422222222,-3.005096988888889,0.0562743046666666
49,1778412885960,-0.5913455,0.050368793,-0.112049215,0.042988375,-3.0585122,0.0067956759999999
50,1778412885970,-0.5890689444444444,0.0385828751111111,0.0922004988888889,-0.2361688294444444,-3.067742688888889,-0.0627730404444444
51,1778412885980,-0.6268862,0.0037400556666666,0.2826587666666666,-0.30221668,-3.0487387,-0.09407048
52,1778412885990,-0.6779664,-0.0299407729999999,0.3814247,-0.28682333,-3.0439741,-0.090283226
53,1778412886000,-0.6779664,-0.029940773,0.3814247,-0.22524993,-3.0249157,-0.07513421
54,1778412886010,-0.63712254,-0.0096347084,0.4587767699999999,0.2994220555999999,-3.1031651699999996,0.0751494846
55,1778412886020,-0.5854508333333333,0.0304048905555555,0.4107251888888889,0.5029563666666667,-3.146270566666667,0.1047348533333333
56,1778412886030,-0.5361830555555556,0.0670161038888888,0.3186940777777778,0.6100582555555555,-3.2271738333333335,0.1097573744444444
57,1778412886040,-0.461033,0.12869653,0.2537648,0.6171848,-3.319344,0.091703445
58,1778412886050,-0.3280069333333333,0.1930668211111111,0.1264436972222222,0.2472828433333333,-3.548818988888889,-0.1075685061111111
59,1778412886060,-0.3211772666666667,0.1841232088888889,0.2985777277777777,-0.14637427,-3.696236799999999,-0.2779355
60,1778412886070,-0.325375685,0.1524784057,0.44369052,-0.504834725,-3.66972602,-0.425394027
61,1778412886080,-0.4271692333333333,0.0307538273333333,0.8299772666666666,-0.6119162666666667,-3.495268,-0.5122972433333334
62,1778412886090,-0.5112798,-0.021159772,1.008626,-0.5435014,-3.370655,-0.50578153
63,1778412886100,-0.6038191066666667,-0.0717995835555555,1.1450566222222225,0.02696212,-3.136361311111111,-0.3092244588888889
64,1778412886110,-0.6122308533333334,-0.0831383255555555,1.1105627666666666,0.54836268,-3.0279697999999997,-0.1286597073333333
65,1778412886120,-0.4782809719999999,-0.0259069983,0.8281916280000001,0.99022925,-3.0745774700000004,0.0082006251
66,1778412886130,-0.31183052,0.0501350378888888,0.5489141333333333,1.1779426333333332,-3.302647466666667,0.0012725999999999
67,1778412886140,-0.24919137,0.077931374,0.4797536,1.1693907,-3.467169,-0.07330167
68,1778412886150,-0.2302390479999999,0.071662723,0.40667922,0.89487597,-3.5327741099999996,-0.158514867
69,1778412886160,-0.23211719,0.07695571,0.4314581,0.6216643244444444,-3.542167488888889,-0.2052446766666666
70,1778412886170,-0.2474026299999999,0.044575772,0.5212601,0.34474692,-3.448233,-0.22967857
71,1778412886180,-0.272534183,0.0206048616,0.625173684,0.253486335,-3.40700067,-0.213735457
72,1778412886190,-0.25626495,0.010823802,0.67330146,0.20425205,-3.4048626,-0.18325418
73,1778412886200,-0.252188504,0.00411609375,0.684549074,0.202663846,-3.44627808,-0.156376898
74,1778412886210,-0.21915914,0.002286719,0.7394334,0.2048629,-3.5508552,-0.08185353
75,1778412886220,-0.1135736988888889,0.0222946612222222,0.8515232511111112,0.2635042366666666,-3.587845355555556,-0.0242811784444444
76,1778412886230,0.052996996,0.051759115,0.983715911,0.507598804,-3.608274760000001,0.0789978212
77,1778412886240,0.13738607,0.06866254,0.9666417,0.6391753,-3.5936143000000005,0.10575293
78,1778412886250,0.3172746233333333,0.1471359577777777,0.8355636333333334,0.7245581666666667,-3.807953966666667,0.0650128122222222
79,1778412886260,0.645946218,0.296026422,0.64455591,0.652369631,-4.523690670000001,-0.206710712
80,1778412886270,0.7833926,0.3690899733333333,0.9547305444444444,0.4343378663333334,-4.906741011111111,-0.4565743844444445
81,1778412886280,0.8477934,0.39593774,1.2262911,0.051540237,-5.2619147,-0.88878274
82,1778412886290,0.92138,0.3860438599999999,1.5035329000000002,-0.1002934814999999,-5.200181,-1.10410642
83,1778412886300,0.7944603111111112,0.2002555833333333,2.080551444444444,-0.3392068688888889,-4.680311622222223,-1.6100576222222225
84,1778412886310,0.5341978233333333,0.0453989884999999,2.2212067333333336,-0.3600435466666666,-4.276066722222222,-1.756864588888889
85,1778412886320,0.402303959,-0.0703150791499999,2.24324072,-0.295619528,-3.96513154,-1.6870379
86,1778412886330,0.2360300351111111,-0.2535479933333333,2.2443551888888886,-0.1934095166666666,-3.6036594,-1.592750322222222
87,1778412886340,0.047075916,-0.3459653,2.2942495,-0.13415733,-3.5032089999999996,-1.5265073
88,1778412886350,-0.2117603266666666,-0.5097959933333333,2.3525052,0.3420320433333333,-2.790010966666667,-1.038779688888889
89,1778412886360,-0.3064779133333333,-0.5238178244444445,2.293663711111111,0.5362814688888888,-2.508529088888889,-0.8112051388888889
90,1778412886370,-0.41939032,-0.493132432,2.15767472,0.72896984,-2.2508957,-0.5153107579999999
91,1778412886380,-0.371729,-0.3759873733333333,1.991897911111111,0.8876544000000001,-1.771244933333333,0.01829996
92,1778412886390,-0.29337075,-0.29666364,1.9586813,0.9012288,-1.5869048,0.19615832
93,1778412886400,-0.200456808,-0.1725771369,1.84418078,0.83385233,-1.223145244,0.2874189099999999
94,1778412886410,-0.1270331533333333,-0.0448434005555555,1.6835501555555554,0.6807129055555555,-0.6147753344444444,0.4022174622222222
95,1778412886420,-0.0986270274444444,-0.007768068,1.5944054111111112,0.57809055,-0.43179265,0.40873316
96,1778412886430,-0.0254496558,0.0382644278,1.5041395,0.321534736,-0.05599942,0.318083436
97,1778412886440,-0.067625895,0.017409554,1.4239855,0.15294088,0.16683766,0.25357798
98,1778412886450,-0.128239183,-0.0369594731999999,1.4153996599999998,0.0871526307999999,0.239062711,0.268421566
99,1778412886460,-0.14668538,-0.06969919,1.4130093,-0.066353284,0.40758783,0.3030566
100,1778412886470,-0.13766047,-0.07238227,1.4091066,-0.0428696006666666,0.42231603,0.3512456644444445
101,1778412886480,-0.077553302,-0.062381687,1.39378249,-0.01003316606,0.443811073,0.396027563
102,1778412886490,-0.0593327299999999,-0.04481969,1.3834648,0.0020616094,0.4674508599999999,0.40812233
103,1778412886500,-0.0289244517666666,-0.0290870640444444,1.349113233333333,-0.0476885045777777,0.5516799044444445,0.3690959733333333
104,1778412886510,0.002167809405,-0.0082748732,1.30125883,-0.11949699,0.64337486,0.3378749
105,1778412886520,0.0229383298611111,0.0194150903333333,1.2914372111111112,-0.19241688,0.7187126899999999,0.3138482233333333
106,1778412886530,0.0640789413333333,0.0334369113333333,1.2714462000000002,-0.2441183211111111,0.7659515844444444,0.2767901577777777
107,1778412886540,0.088328324,0.04549046,1.2675434,-0.29244313,0.7985301,0.22792238
108,1778412886550,0.0704885337777777,0.0206922643333333,1.2768664444444444,-0.4211282588888889,0.8908359044444444,0.1030380542222222
109,1778412886560,0.03878275,-0.0067381974999999,1.2831541,-0.487547713,0.948309814,0.0506545086
110,1778412886570,0.011951917,-0.025306353,1.293673,-0.54472303,0.9823951,0.027564483
111,1778412886580,-0.0284806585555555,-0.0737068784444444,1.3637007666666667,-0.6145632511111111,1.0465340777777778,0.0313653095555555
112,1778412886590,-0.0564484158,-0.121903448,1.44873694,-0.65064398,1.19826848,0.08009735
113,1778412886600,-0.0654577505555555,-0.1453472355555555,1.4652616333333333,-0.6614627666666667,1.3320711444444444,0.1361595533333333
114,1778412886610,-0.062015813,-0.15196009,1.4539872,-0.6620057,1.6909779,0.3305447
115,1778412886620,-0.0377400053,-0.150813674,1.46709178,-0.625171631,1.78975188,0.402197096
116,1778412886630,-0.0226334339999999,-0.1431790833333333,1.4849138999999998,-0.5614195466666667,1.914548,0.4641166533333333
117,1778412886640,-0.01905599,-0.13439809,1.4823121,-0.5276193,1.9841846,0.48814332
118,1778412886650,-0.0141776562222222,-0.1091967522222222,1.488464188888889,-0.4881857277777777,2.0781872333333333,0.4992743111111111
119,1778412886660,-0.001981823,-0.09729226,1.491093,-0.4329379933333333,2.2549935666666667,0.5034823844444445
120,1778412886670,0.019635292,-0.090340637,1.47194565,-0.432204984,2.42509424,0.49730602
121,1778412886680,0.0321427968888888,-0.0799470777777777,1.4656139555555556,-0.4482091811111111,2.5666614777777776,0.4945232711111111
122,1778412886690,0.0219525,-0.09143826,1.4471576,-0.48241663,2.7697341,0.4722612799999999
123,1778412886700,-0.0125860999,-0.102512081,1.43713267,-0.468794733,2.88157264,0.467313418
124,1778412886710,-0.034178823,-0.11290293,1.434474,-0.4465123777777778,2.9470919444444443,0.4647274977777778
125,1778412886720,-0.03503253,-0.121074138,1.4127501,-0.34302128,2.9616165800000003,0.4437958
126,1778412886730,-0.0454904586666666,-0.1258406773333333,1.3654049333333331,-0.2671947666666667,2.9848288000000003,0.4130091
127,1778412886740,-0.07835823,-0.134642,1.3180648,-0.2533489,3.020258,0.3946837
128,1778412886750,-0.1036401934,-0.131788175,1.29473407,-0.2825474,3.0657660800000004,0.424309781
129,1778412886760,-0.1073843166666666,-0.1308443533333333,1.285295177777778,-0.3205421,3.1295996,0.46248773
130,1778412886770,-0.09762765,-0.12973318,1.280715,-0.3400892,3.1705263,0.4753155
131,1778412886780,-0.1163695949999999,-0.139328248,1.2846756,-0.358048109,3.19215033,0.474215985
132,1778412886790,-0.1931650644444444,-0.1762162366666666,1.309012688888889,-0.4037530744444444,3.292560088888889,0.49771325
133,1778412886800,-0.2274624566666666,-0.1804983299999999,1.3211543,-0.3553603866666666,3.3928747333333336,0.5567618333333333
134,1778412886810,-0.247874228,-0.173180832,1.28898368,-0.297390972,3.45762457,0.59632436
135,1778412886820,-0.2577826599999999,-0.1475966911111111,1.250659,-0.2048629,3.532147866666667,0.6652890333333334
136,1778412886830,-0.260411551,-0.139642299,1.21737588,-0.1462521075,3.63684711,0.7029783000000001
137,1778412886840,-0.2661300433333333,-0.1369998733333333,1.1076695755555557,-0.110334285,3.7386143,0.7282063
138,1778412886850,-0.2848438666666666,-0.1188009673333333,0.9638096666666668,-0.13782241,3.800377888888889,0.8112815111111111
139,1778412886860,-0.2906877,-0.103878014,0.9261212,-0.15003936,3.784428,0.8326611500000001
140,1778412886870,-0.3035610733333333,-0.0879556733333333,0.9018649655555556,-0.1216688944444444,3.7515099333333337,0.8709409
141,1778412886880,-0.30288354,-0.06896744,0.90172946,-0.09750649,3.7471662,0.8864157
142,1778412886890,-0.296517309,-0.063918359,0.8799690800000001,-0.073316941,3.76659108,0.89227986
143,1778412886900,-0.3455791088888889,-0.0632489455555555,0.7373770511111112,-0.0046577102222222,3.8421868888888886,0.9398309388888888
144,1778412886910,-0.36950326,-0.0540885199999999,0.6310734,0.024052111,3.844291,0.9762103
145,1778412886920,-0.3628362155555555,-0.033430136,0.5356138955555555,-0.02549438736,3.740854133333334,0.9756672977777776
146,1778412886930,-0.3778032122222222,-0.0177178362222222,0.4908450155555555,-0.1377630177777777,3.578775955555555,0.9435638822222222
147,1778412886940,-0.4991449699999999,-0.0526860019999999,0.58915022,-0.232274667,3.5256118799999996,0.925509968
148,1778412886950,-0.5444016666666667,-0.0515782160333333,0.6516538533333334,-0.1932652822222222,3.546400933333333,0.9855087444444444
149,1778412886960,-0.5227744,-0.0030794481,0.66012996,-0.079181075,3.587735,1.0458468
150,1778412886970,-0.464283188,0.06329637638,0.551135802,-0.0242048225,3.60386123,1.014327165
151,1778412886980,-0.447831,0.13040395,0.4658503499999999,-0.037643462,3.6268291,0.94322455
152,1778412886990,-0.4464650559999999,0.1719917499999999,0.38189423,-0.1099677724,3.63611414,0.8445116300000001
153,1778412887000,-0.4459609622222222,0.18783956,0.3516871822222221,-0.1519482477777777,3.6298156666666666,0.7956031222222223
154,1778412887010,-0.4446601,0.2314464399999999,0.27794304,-0.34314343,3.5608578,0.6017609
155,1778412887020,-0.475417996,0.2797663199999999,0.274723356,-0.5158910459999999,3.4526156400000003,0.3894304
156,1778412887030,-0.4915226,0.30904242,0.27306473,-0.6246083177777777,3.3869020666666665,0.2523562688888889
157,1778412887040,-0.4987113477777777,0.3081175577777778,0.2799858577777778,-0.68216366,3.3586674,0.18394138
158,1778412887050,-0.6272347659999999,0.200353155,0.457712692,-0.83249317,3.5259173400000003,0.0603058965
159,1778412887060,-0.66089225,0.13918495,0.5110054,-0.82693446,3.7471662,0.05993939
160,1778412887070,-0.6197556860000001,0.13079422,0.3934681,-0.574043705,3.8284088,0.122551235
161,1778412887080,-0.5954649422222222,0.1279918877777777,0.2965857455555556,-0.4368745688888888,3.8009886777777777,0.1326302166666666
162,1778412887090,-0.6203512222222222,0.1147661766666666,0.2101918077777778,-0.3151802077777777,3.755989455555555,0.1408427133333333
163,1778412887100,-0.6383542999999999,0.123013268,0.0661258067,-0.22341739,3.7044067,0.1674485
164,1778412887110,-0.6506477,0.1245499499999999,0.028050419,-0.26923093,3.671421,0.23036577
165,1778412887120,-0.5360170599999999,0.2019121833333333,0.0350325301666666,-0.1910085433333333,3.6073499333333334,0.1967013033333333
166,1778412887130,-0.497340008,0.22153121,-0.0285809356999999,-0.120657601,3.58993406,0.1171146931
167,1778412887140,-0.5353225755555555,0.2095989444444444,-0.11930913,-0.08773294,3.612169,0.058106847
168,1778412887150,-0.5731940266666666,0.1966171533333333,-0.3023245533333333,-0.2278545088888889,3.6271006888888895,0.0353018816666666
169,1778412887160,-0.6003704,0.1884866,-0.3714546,-0.34497598,3.6268291000000006,0.03061872
170,1778412887170,-0.6135588444444444,0.1654771355555555,-0.2956744288888889,-0.5552431955555556,3.6921898666666664,0.1072461122222222
171,1778412887180,-0.592321139,0.1604758299999999,-0.26509167,-0.5321395979999999,3.69414451,0.157186268
172,1778412887190,-0.59402853,0.14406328,-0.24748394,-0.4457658,3.6701994,0.1802763
173,1778412887200,-0.5124994,0.17141244,-0.37364984,-0.3379851866666666,3.630562155555556,0.2087824999999999
174,1778412887210,-0.497864415,0.1722661499999999,-0.4258784949999999,-0.196043788,3.5728913400000004,0.2430103019999999
175,1778412887220,-0.46525074,0.1860474399999999,-0.5378972333333333,-0.0882759157777777,3.4205665111111108,0.23280916
176,1778412887230,-0.4214033311111111,0.2162964888888889,-0.67776313,-0.0179606065555555,3.2873339222222224,0.2264291982222222
177,1778412887240,-0.35920998,0.255307576,-0.856543836,0.0173938761,3.02593882,0.0842511069
178,1778412887250,-0.3675519233333333,0.2683794533333333,-0.9684101666666668,0.0295497366666666,2.8585616,0.007584688
179,1778412887260,-0.37682077,0.2636434,-1.0601839,0.03077143,2.6768854,-0.03970507
180,1778412887270,-0.40806921,0.2366499777777778,-1.124713322222222,-0.06318027,2.4257593111111113,-0.0839575655555555
181,1778412887280,-0.40559954,0.21791583,-1.1493048777777777,-0.2188699611111111,2.266667511111111,-0.0582341111111111
182,1778412887290,-0.394337049,0.2001214409999999,-1.18708451,-0.3236574129999999,2.25619491,-0.0156300557
183,1778412887300,-0.4038345299999999,0.1750711966666666,-1.2504489333333335,-0.4402002866666666,2.197913222222222,0.0780611878888888
184,1778412887310,-0.39291927,0.16141187,-1.254189,-0.4805840800000001,2.0843635,0.18638477
185,1778412887320,-0.377552523,0.157158563,-1.26363777,-0.335790376,1.81003201,0.2613357289999999
186,1778412887330,-0.3708583644444444,0.1547752888888889,-1.306126388888889,-0.0941807644444444,1.4015041555555556,0.3261330533333333
187,1778412887340,-0.33412011,0.178851895,-1.4051278,0.21524731,0.8040276800000001,0.35681115
188,1778412887350,-0.30908986,0.2007705211111111,-1.4566297555555556,0.3585249311111111,0.4297649817777778,0.3369246688888889
189,1778412887360,-0.3009322,0.21388443,-1.4870075,0.46874893,0.022066858,0.27801186
190,1778412887370,-0.294346438,0.2117257679999999,-1.4978374799999998,0.409191315,-0.57137125,0.11338852
191,1778412887380,-0.3141849933333333,0.1939340866666666,-1.4492716,0.3201094277777778,-0.7408813477777778,0.0540939151111111
192,1778412887390,-0.3646215355555555,0.1681195733333333,-1.3245284888888889,0.1246382866666666,-0.9469404822222224,-0.0255198418888888
193,1778412887400,-0.40838967,0.146941507,-1.20458864,-0.066047859,-1.16407631,-0.0974912245
194,1778412887410,-0.4507579799999999,0.13333096,-1.074575,-0.14026581,-1.3004174,-0.13927318
195,1778412887420,-0.528881493,0.1067592805,-0.937591316,-0.1178477105,-1.4944836,-0.153261583
196,1778412887430,-0.5958714833333334,0.0858451161111111,-0.8250820222222222,-0.052303795,-1.6846404,-0.14721419
197,1778412887440,-0.6274587222222222,0.0881216744444444,-0.7631170111111111,0.0831006786666666,-1.8310400666666664,-0.0969210923333333
198,1778412887450,-0.63454009,0.1026736758,-0.7261033699999999,0.248843902,-1.9831003199999997,-0.0112090469999999
199,1778412887460,-0.6225668,0.1211351159999999,-0.7324208,0.29832253,-2.0193846,0.019623468
200,1778412887470,-0.5798814,0.16653411,-0.74632406,0.3186841077777778,-2.028547322222222,0.0328584913333333
201,1778412887480,-0.5757774999999999,0.171851492,-0.76013584,0.320862795,-2.03386177,0.038865156
202,1778412887490,-0.5608796244444444,0.2200331666666666,-0.8130115422222222,0.1883021522222222,-2.1049033333333336,-0.0049037457777777
203,1778412887500,-0.5632375022222222,0.2217439688888889,-0.7814209733333333,0.1376697,-2.1892002,-0.032374904
204,1778412887510,-0.570826,0.2182749199999999,-0.7224202,0.14622156,-2.273497,-0.0452027
205,1778412887520,-0.5273546222222222,0.2363247633333333,-0.6556242777777778,0.2526447333333333,-2.480676155555555,-0.1000432066666666
206,1778412887530,-0.52375005,0.24059331,-0.6268657999999999,0.3193967649999999,-2.6034309500000004,-0.154849785
207,1778412887540,-0.5412917222222222,0.2346647833333333,-0.615333951111111,0.3391135577777777,-2.647954966666666,-0.1782316644444444
208,1778412887550,-0.5873682577777778,0.2015497011111111,-0.6095816344444445,0.3712848466666666,-2.782748655555556,-0.2279138977777778
209,1778412887560,-0.63235396,0.18068127,-0.5828084,0.3679591,-2.8459375,-0.21746163
210,1778412887570,-0.63994248,0.1497038566666666,-0.52867922,0.3617149011111111,-2.858290144444444,-0.1284815433333333
211,1778412887580,-0.6404303277777778,0.1271517255555555,-0.4840153888888889,0.3532987877777778,-2.8402361666666667,-0.0760844211111111
212,1778412887590,-0.6462572,0.11733002,-0.476350976,0.319580026,-2.76860412,0.014927581
213,1778412887600,-0.6220179866666666,0.1303328133333333,-0.46005731,0.2826441266666666,-2.671642266666667,0.18984624
214,1778412887610,-0.57353956,0.1589727,-0.44151965,0.30626354,-2.659018,0.25907558
215,1778412887620,-0.5022183179999999,0.194224751,-0.4879095749999999,0.355131318,-2.72541728,0.272880745
216,1778412887630,-0.39071385,0.2652830877777777,-0.5345095166666667,0.3883885555555555,-2.8472270666666666,0.2479446033333333
217,1778412887640,-0.368747124,0.2685674919999999,-0.533775082,0.323672695,-3.0230831,0.095979375
218,1778412887650,-0.3692593511111111,0.2324627555555555,-0.5112967955555555,0.1598638233333333,-3.081928,-0.0060575683333333
219,1778412887660,-0.37779644,0.20507295,-0.48810774,-0.04497363,-3.0664532,-0.061084725
220,1778412887670,-0.4422057,0.1318948929999999,-0.363173644,-0.418155496,-2.9784911999999997,-0.0494480843999999
221,1778412887680,-0.47444844,0.09991437,-0.22821455,-0.5954912333333334,-2.9886720111111114,-0.005624885
222,1778412887690,-0.5097451799999999,0.0688149926666666,-0.04307162,-0.4437296133333333,-3.1806817,0.0175873113333333
223,1778412887700,-0.499827922,0.0573813943999999,0.0534665372,-0.102087846,-3.55219898,0.034772482
224,1778412887710,-0.39828545,0.1606801,0.073175006,0.24151373,-3.9191961,0.022066858
225,1778412887720,-0.338800262,0.19765788,0.0453563034,0.298689037,-4.30598441,-0.2340690402
226,1778412887730,-0.3634087311111111,0.1811657199999999,0.14896532,0.2288895582222222,-4.508595611111111,-0.42962925
227,1778412887740,-0.4898151666666666,0.0754210740333333,0.43298258,0.0126496293333333,-4.362060266666666,-0.5177948766666667
228,1778412887750,-0.60921238,-0.02362942874,0.708340116,-0.110334285,-3.96409325,-0.4312581599999999
229,1778412887760,-0.6491842,-0.059942525,0.7528488,-0.09078717,-3.8287907,-0.37689275
230,1778412887770,-0.5542396466666667,0.0107424973333333,0.6745921899999999,0.0112243222222222,-3.8558036777777778,-0.3559203355555556
231,1778412887780,-0.44856274,0.069638215,0.5598192,0.10101887,-3.9057574,-0.35978904
232,1778412887790,-0.5002798444444445,0.0442878177777777,0.7075717366666666,0.10101887,-3.9057574000000006,-0.35978904
233,1778412887800,-0.6075354133333333,-0.017562,0.9349834,0.1551127833333333,-3.9981309777777785,-0.4327513544444444
234,1778412887810,-0.65259904,-0.04164877,0.9405122,0.43148723,-3.922861,-0.39643988
235,1778412887820,-0.5680616044444444,0.0025577371111111,0.8715345722222222,0.5210781622222223,-3.909897611111111,-0.3445857322222222
236,1778412887830,-0.465765,0.045295324,0.7892290080000001,0.5258631599999999,-3.94369105,-0.363148687
237,1778412887840,-0.5161785,0.0174197166666666,0.9206736333333334,0.4261932333333333,-3.8393786666666663,-0.3832048566666667
238,1778412887850,-0.5979617111111111,-0.0459884544444444,1.0359717444444445,0.38384116,-3.626260666666667,-0.30406619
239,1778412887860,-0.670405,-0.10412193,1.0420425,0.41377267,-3.498933,-0.17531316
240,1778412887870,-0.5627937111111111,-0.0434645944444444,0.9472165333333334,0.5785657022222223,-3.4725308444444445,0.0193180477777777
241,1778412887880,-0.4063652,0.03765464,0.7599224,0.86824304,-3.6302652,0.26151899
242,1778412887890,-0.203563705,0.159201355,0.69537595,0.737643864,-3.87387114,0.1219709252
243,1778412887900,-0.1180929388888888,0.2003301133333333,0.7615349677777777,0.5070286566666666,-4.024669033333333,-0.068618508
244,1778412887910,-0.11961064,0.19482844,0.85340345,0.38811707,-4.0205965,-0.1447708
245,1778412887920,-0.129977096,0.166061522,1.04959485,0.2884878789999999,-3.91430929,-0.26406926
246,1778412887930,-0.16229606,0.12942828,1.1238157,0.30259845,-3.8599439,-0.3500155
247,1778412887940,-0.1555883422222222,0.1406484533333333,1.166589077777778,0.35513133,-3.8898754,-0.36528665
248,1778412887950,-0.0965788079999999,0.147990347,1.1784103,0.493427142,-3.87881895,-0.400654714
249,1778412887960,-0.08713923,0.15040511,1.1887279,0.4516452,-3.823293000000001,-0.40010494
250,1778412887970,-0.054088523,0.126940332,1.18695644,0.38432982,-3.63802295,-0.376953853
251,1778412887980,-0.0535634255555555,0.1067372566666666,1.1604572666666666,0.3344303822222222,-3.520991466666666,-0.3671192022222222
252,1778412887990,-0.0650952613333333,0.09281029,1.1408084,0.3194985777777777,-3.548954622222222,-0.3339977
253,1778412888000,-0.0036770451999999,0.0935420428,1.17368428,0.335217716,-3.61377236,-0.302125046
254,1778412888010,0.1124760699999999,0.098420374,1.245347,0.40216658,-3.6382062,-0.31580803
255,1778412888020,0.11696482,0.1137498551111111,1.2576783333333337,0.4713959244444445,-3.692503866666667,-0.3426174355555555
256,1778412888030,0.149996554,0.145721916,1.25134736,0.61755126,-3.78535932,-0.40633561
257,1778412888040,0.1668864266666666,0.1334122577777778,1.259169,0.6328632166666667,-3.7953975999999994,-0.4361449433333333
258,1778412888050,0.2219065788888888,0.1526139266666666,1.2546158555555555,0.6153522666666666,-3.8420256,-0.5053742855555555
259,1778412888060,0.273211058,0.17297351,1.23455984,0.541989494,-3.86568582,-0.57529593
260,1778412888070,0.28014507,0.1667509255555555,1.240370488888889,0.3510590033333333,-3.855668,-0.69392248
261,1778412888080,0.3068098999999999,0.1499342277777778,1.332435466666667,0.1508368511111111,-3.786574311111111,-0.7984452422222222
262,1778412888090,0.280305991,0.0561313254,1.38222091,-0.0710797155,-3.61358907,-0.91297232
263,1778412888100,0.2185222322222222,-0.034880083,1.391405711111111,-0.2316977644444444,-3.4626215222222223,-0.968532291111111
264,1778412888110,0.15055756,-0.089730844,1.3859041,-0.3278722779999999,-3.36564618,-0.975889588
265,1778412888120,0.15055756,-0.089730844,1.3859041,-0.37429667,-3.2894125,-0.9578085
266,1778412888130,0.0457072728888888,-0.1030107535555555,1.4787109222222223,-0.3933007988888889,-3.1986677666666665,-0.8946197333333333
267,1778412888140,0.0186840161,0.0054942245,1.63154647,-0.440573587,-2.92217117,-0.787015608
268,1778412888150,0.0359370552222222,0.0907844331111111,1.7424357222222222,-0.5331169566666667,-2.5421171666666664,-0.7802555666666666
269,1778412888160,0.047319833,0.1238182,1.8286128,-0.6282733611111111,-2.141214788888889,-0.8785341
270,1778412888170,-0.11979967,0.029465138,2.00622072,-0.6764216949999999,-1.75836965,-0.92237931
271,1778412888180,-0.2242373255555555,-0.04607315,2.0701614888888886,-0.6761909366666666,-1.3365932222222223,-0.8684890222222222
272,1778412888190,-0.35462433,-0.17122951,2.093171,-0.59908843,-0.8392278,-0.6768188
273,1778412888200,-0.4260377166666667,-0.21380651,2.021798177777778,-0.2564540433333333,-0.4505931733333333,-0.2845021088888889
274,1778412888210,-0.3678771333333333,-0.18962489,1.9107008666666667,0.2893634433333333,-0.234489,0.1755931333333333
275,1778412888220,-0.26343,-0.1360018439999999,1.83022872,0.490250753,-0.1654632512,0.311547364
276,1778412888230,-0.17891288,-0.10046318,1.6697316,0.6672743,0.037948888,0.45393586
277,1778412888240,-0.0792559813333333,0.0089842638888888,1.4496612,0.5953300344444444,0.4105657153333333,0.6185931344444444
278,1778412888250,0.0462587956,0.0926761379999999,1.27009854,0.3938590299999999,0.6992063159999999,0.7037724200000001
279,1778412888260,0.1171782477777777,0.1335545355555555,1.2426368444444449,0.2746352177777778,0.7671053544444444,0.6842253044444445
280,1778412888270,0.18972314,0.1961022177777777,1.2466209,0.1783928522222222,0.7600466899999999,0.5679607055555556
281,1778412888280,0.19449306,0.21214652,1.2724217,0.14255647,0.72095245,0.41972843
282,1778412888290,0.2028946333333333,0.2351831022222222,1.300174,0.114525375,0.7004551555555555,0.1779686533333333
283,1778412888300,0.1968742859999999,0.221802576,1.29156616,0.080860906,0.70140537,0.014843588
284,1778412888310,0.1316032086666666,0.1535963566666666,1.3087857333333333,0.0009077859999999,0.7339838611111111,-0.1268526155555555
285,1778412888320,0.064820856,0.081031149,1.382499266666667,-0.056579728,0.7795938,-0.18814096
286,1778412888330,0.0299041826999999,0.0352368129,1.43494036,-0.0862669048,0.879100824,-0.197486911
287,1778412888340,-0.0054542483333333,-0.0306725219999999,1.4526017777777778,-0.0957418222222222,1.0028245444444446,-0.1949960166666666
288,1778412888350,-0.0685812353333333,-0.07361202,1.4102347666666666,-0.1262163166666666,1.2369147666666669,-0.1620781366666666
289,1778412888360,-0.102384019,-0.0747208205999999,1.38157151,-0.21040634,1.41438628,-0.0780510054
290,1778412888370,-0.0626527111111111,-0.0472859593333333,1.4326987555555557,-0.33377712,1.6201197,0.0538309153333333
291,1778412888380,-0.026861325,-0.031160356,1.4615792,-0.3892963533333333,1.7614289777777778,0.1143726688888888
292,1778412888390,0.0094609179,-0.0183455824,1.50556655,-0.416322936,1.9560856,0.14130425
293,1778412888400,0.0278065019999999,-0.011860448,1.5369799,-0.41583428,2.122236,0.14912309
294,1778412888410,0.027318668,-0.0062503646999999,1.5384434,-0.4092371179999999,2.24318394,0.14912309
295,1778412888420,0.0476179527777777,0.0102546627777777,1.4939387555555554,-0.4242503955555555,2.447003255555556,0.1466797055555555
296,1778412888430,0.050734665,9.146875e-05,1.4776777,-0.45187426,2.6060271,0.14851224
297,1778412888440,0.0356606162999999,-0.0252026906499999,1.46994551,-0.486203882,2.75662384,0.162500639
298,1778412888450,-0.005295024,-0.0589770186666666,1.4557963,-0.5135698233333333,2.9127487333333333,0.18597754
299,1778412888460,-0.0519982911111111,-0.0811666611111111,1.4353954333333334,-0.5210357211111112,3.004918866666667,0.2298228044444444
300,1778412888470,-0.051518252,-0.082404202,1.42749799,-0.5155856200000001,3.1099913,0.325047094
301,1778412888480,-0.01905599,-0.07043094,1.4391084,-0.5117373,3.171137,0.37208232
302,1778412888490,-0.015006973,-0.070555946,1.46684479,-0.4903576249999999,3.2714381799999996,0.3989596219999999
303,1778412888500,-0.054352766,-0.0860720933333333,1.4488853333333334,-0.3983911855555556,3.462850622222222,0.5118984777777777
304,1778412888510,-0.0579979666666666,-0.0784530793333333,1.422603322222222,-0.3379851866666666,3.5164695444444445,0.5759016888888888
305,1778412888520,0.0093664,-0.0310079062,1.38948972,-0.242536911,3.5532221999999996,0.6002338
306,1778412888530,0.040978,-0.006982115,1.348097,-0.19165333,3.5724637999999995,0.5638884
307,1778412888540,-0.0559924248888888,-0.0156682577555555,1.2628345555555558,-0.1759918855555555,3.6491590666666665,0.5011747333333333
308,1778412888550,-0.139075182,-0.0419414699999999,1.192533,-0.1955627499999999,3.74447848,0.49400744
309,1778412888560,-0.1683160455555555,-0.0526792242222222,1.1667719333333335,-0.2325800933333333,3.7677313666666663,0.5530967466666667
310,1778412888570,-0.1870332666666666,-0.0346463325,1.1319462,-0.2733032399999999,3.7549035333333336,0.6382081266666667
311,1778412888580,-0.14766106,-0.0094212815,1.1325966,-0.27900448,3.739835999999999,0.6561263
312,1778412888590,-0.0942941188888888,0.045202505,1.1203567222222222,-0.2899318622222222,3.6716926111111112,0.5419657533333333
313,1778412888600,-0.143898644,0.052795766,1.13596266,-0.310157684,3.6820498,0.432067532
314,1778412888610,-0.21037814,0.03814247,1.1406459,-0.33493094,3.744587000000001,0.3707248977777778
315,1778412888620,-0.31654286,-0.009665198,1.1374749,-0.37185326,3.831463,0.38429928
316,1778412888630,-0.36535668,-0.035794772,1.1450363,-0.3633014,3.9182034,0.4539358599999999
317,1778412888640,-0.3769935511111111,-0.03321332,1.1083268555555554,-0.1786558511111111,3.9715506888888887,0.6192718555555555
318,1778412888650,-0.3144187566666667,0.0098481366666666,0.9952003533333332,-0.0240012076666666,3.9601482666666663,0.69929284
319,1778412888660,-0.274436739,0.0523231752,0.932972072,0.0198983483999999,3.92003596,0.6705422999999999
320,1778412888670,-0.2844881333333333,0.0762239566666666,0.8695222666666667,0.0097990076666666,3.925737199999999,0.56103776
321,1778412888680,-0.3302022,0.06695513,0.8348658,-0.026037365,3.961573599999999,0.5101338
322,1778412888690,-0.38883977,0.056978934,0.766480705,-0.0898709025,4.04825296,0.524733063
323,1778412888700,-0.3991798033333333,0.0605590866666666,0.7141168666666666,-0.1291432911111111,4.085575700000001,0.5435946733333333
324,1778412888710,-0.383869963,0.089185081,0.66293501,-0.24265907,4.1069553,0.5180748000000001
325,1778412888720,-0.3958632177777778,0.0937995077777777,0.6504376555555555,-0.3091396222222222,4.144352722222222,0.4803380333333333
326,1778412888730,-0.41051176,0.08695629,0.6383909,-0.3345916,4.176592,0.45760095
327,1778412888740,-0.439836644,0.095685461,0.578725855,-0.357131854,4.18404426,0.435427199
328,1778412888750,-0.5038437733333333,0.0686354416666666,0.5650228222222222,-0.3316052111111111,4.138312166666667,0.4269228511111111
329,1778412888760,-0.5232588744444444,0.0619717728888888,0.5651007377777777,-0.2623588844444444,4.107091011111111,0.4628949644444444
330,1778412888770,-0.465170433,0.115403067,0.473180039,-0.10312629,4.00384416,0.5194187
331,1778412888780,-0.42075628,0.14186803,0.41508517,-0.06696413,3.9139276,0.4661528199999999
332,1778412888790,-0.4582245888888889,0.1238182033333333,0.3927464788888889,-0.0937735377777777,3.978338022222222,0.4020138655555555
333,1778412888800,-0.490351798,0.107475786,0.324842124,-0.142777913,4.115995700000001,0.371288245
334,1778412888810,-0.5274189944444445,0.0912011211111111,0.2412031044444444,-0.26393693,4.200618333333334,0.3802269666666666
335,1778412888820,-0.55006872,0.0838433087999999,0.265308161,-0.3093025159999999,4.20255249,0.417529374
336,1778412888830,-0.5266771,0.108451456,0.25574663,-0.21181129,4.1662073,0.45515758
337,1778412888840,-0.5075838111111111,0.1220565786666666,0.1699353855555555,-0.1553588166666666,4.0973853,0.43153814
338,1778412888850,-0.53492142,0.1416729,0.104176814,-0.14368654,4.0586984,0.4220496299999999
339,1778412888860,-0.5230183,0.1486977,0.07976075,-0.2035563577777777,4.108652177777778,0.4324204833333333
340,1778412888870,-0.5145828922222222,0.1178015844444444,0.0392163791111111,-0.2488693433333333,4.165189466666666,0.4459269999999999
341,1778412888880,-0.48079026,0.13942887,0.0629305,-0.19837265,4.215686,0.4942517999999999
342,1778412888890,-0.4313531,0.1650807644444444,-0.1548396544444444,-0.0155172167777777,4.167089722222222,0.4599086022222222
343,1778412888900,-0.44283072,0.185730345,-0.3049019309999999,-0.0041690336,4.09901424,0.437687328
344,1778412888910,-0.45295325,0.2071970466666666,-0.37741024,-0.1264453866666667,3.939990166666666,0.3969234533333333
345,1778412888920,-0.4113044833333333,0.2486120733333333,-0.3477946899999999,-0.2443898066666666,3.835738966666666,0.3625124
346,1778412888930,-0.32507995,0.29270002,-0.37023503,-0.25701398,3.7648807,0.31405184
347,1778412888940,-0.3304054522222222,0.3182977044444444,-0.3906427322222222,-0.2024788955555555,3.602599055555556,0.0700862404444444
348,1778412888950,-0.3758789733333333,0.30324264,-0.4590952344444445,-0.1588627088888889,3.5066960222222225,-0.0851113813333333
349,1778412888960,-0.412707,0.27952853,-0.5496357,-0.2134605719999999,3.4460183200000003,-0.150268424
350,1778412888970,-0.5006660666666667,0.2294171922222222,-0.5829168288888888,-0.3827127755555555,3.4308150666666664,-0.1106312266666666
351,1778412888980,-0.5081089,0.22168978,-0.58622324,-0.40544987,3.4301364,-0.08551861
352,1778412888990,-0.3953753733333333,0.2425039922222222,-0.5647856733333333,-0.41257642,3.3953181333333333,0.0410031226666666
353,1778412889000,-0.3496850288888888,0.2615294877777778,-0.5817581977777777,-0.3242072,3.3562238,0.07521057
354,1778412889010,-0.314054912,0.26677775,-0.69600403,-0.1457023399999999,3.2098648699999996,0.0718509109999999
355,1778412889020,-0.2691552833333333,0.2871441277777778,-0.8617677577777778,-0.0696111344444444,3.0765916,0.0700523055555555
356,1778412889030,-0.22821455,0.30489585,-0.96792233,-0.037032615,2.9897156,0.057496
357,1778412889040,-0.223519148,0.318030764,-1.046603752,-0.0049020496999999,2.8143031599999997,0.0023593982
358,1778412889050,-0.2541781111111111,0.3067116688888889,-1.1600642333333333,0.059277635,2.4100130555555555,-0.1026902133333333
359,1778412889060,-0.2734475377777777,0.2902269666666666,-1.1866477777777775,0.0699335277777777,2.116467044444444,-0.0770346271111111
360,1778412889070,-0.2435812879999999,0.26052129,-1.21781496,0.05105156,1.9290862,-0.0082769807999999
361,1778412889080,-0.2284178022222222,0.24128441,-1.2376670666666667,0.03749075,1.8821731,0.034283802
362,1778412889090,-0.23600767,0.215573556,-1.29572196,0.0570378644,1.7859036,0.1624395556
363,1778412889100,-0.24398781,0.2028776866666666,-1.3427714666666668,0.0849332199999999,1.682222433333333,0.26314791
364,1778412889110,-0.2370734555555556,0.1967526677777777,-1.3987367333333334,0.1158828133333333,1.4739235,0.3698425666666666
365,1778412889120,-0.1878006,0.2339923,-1.4749336,0.16784556,1.1008995,0.424981696
366,1778412889130,-0.16522306,0.26559475,-1.4626158,0.22135578,0.8608365,0.41361994
367,1778412889140,-0.15156372,0.27911181,-1.5024758666666669,0.3121683933333333,0.5602996533333333,0.3342098
368,1778412889150,-0.180983115,0.299944324,-1.5439924900000002,0.398379315,-0.19001167,0.0873511581999999
369,1778412889160,-0.22103933,0.2665094333333334,-1.5057992666666666,0.318209,-0.657670388888889,-0.1000432083333333
370,1778412889170,-0.255542357,0.228924932,-1.40824682,0.1975327302,-0.8389223579999999,-0.193027738
371,1778412889180,-0.2987708222222222,0.1865827,-1.2782657333333334,0.0273099624444444,-0.9942472355555556,-0.2903560733333333
372,1778412889190,-0.3634155066666666,0.138859722,-1.1425666666666665,-0.0707649578888888,-1.0811233333333332,-0.3325045277777778
373,1778412889200,-0.40538952,0.1113784459999999,-1.088722,-0.1100899485,-1.15680731,-0.32600917
374,1778412889210,-0.4770231033333333,0.09064215,-0.9780888777777778,-0.0452451172222222,-1.3076119555555554,-0.2575060544444444
375,1778412889220,-0.4947748133333333,0.09395874,-0.9098396133333332,0.0784175199999999,-1.4704367,-0.18121802
376,1778412889230,-0.4915226,0.10357312,-0.91569364,0.16149275,-1.5612493,-0.14538164
377,1778412889240,-0.5118083111111111,0.1118120844444444,-0.9355457822222222,0.2638435955555555,-1.7666975333333332,-0.0703831788888889
378,1778412889250,-0.5188717,0.1160128699999999,-0.95060426,0.2812188,-1.8318546,-0.04459185
379,1778412889260,-0.502453126,0.149243465,-0.927526676,0.277370472,-1.90717209,-0.022601349
380,1778412889270,-0.4685842466666666,0.1939442466666666,-0.8873079333333334,0.2461968888888888,-2.031940988888889,-0.0139391951111111
381,1778412889280,-0.4480749,0.2219337,-0.8637089999999998,0.22746424,-2.0804694,-0.0311532099999999
382,1778412889290,-0.4407574066666666,0.2547811166666667,-0.8421527433333333,0.2123966866666666,-2.1822774,-0.11646821
383,1778412889300,-0.4449311066666666,0.2625864611111111,-0.8312442566666667,0.2122609444444444,-2.252999911111111,-0.1785031388888888
384,1778412889310,-0.4635568355555555,0.2472739155555555,-0.8249465188888888,0.2020801566666666,-2.3213469,-0.2347689566666667
385,1778412889320,-0.51197498,0.215335738,-0.775075716,0.163080954,-2.4258730999999996,-0.283310952
386,1778412889330,-0.52765274,0.19702369,-0.7424214,0.14805411,-2.475764,-0.28770906
387,1778412889340,-0.542507264,0.17946169,-0.680039682,0.179390571,-2.54210192,-0.275247774
388,1778412889350,-0.5520986222222223,0.1716563566666666,-0.6482322833333334,0.2071705477777777,-2.5828659333333333,-0.2534337388888888
389,1778412889360,-0.5552966555555555,0.1763415888888889,-0.5918061933333334,0.2755854322222222,-2.6562354666666668,-0.2316468522222222
390,1778412889370,-0.571569956,0.1458194799999999,-0.552843204,0.464839491,-2.8274288,-0.209826034
391,1778412889380,-0.58622324,0.13747753,-0.51813996,0.5212818,-2.89114,-0.19058435
392,1778412889390,-0.5938117422222223,0.1192108822222222,-0.5168119955555555,0.6194245977777778,-2.9287410777777776,-0.1242056144444444
393,1778412889400,-0.6069561,0.10406094,-0.52618927,0.6593333,-2.9363427,-0.07452337
394,1778412889410,-0.5805216400000001,0.1080449233333333,-0.5863960066666666,0.60340684,-2.8791267555555553,-0.0272081541555555
395,1778412889420,-0.550288196,0.100097302,-0.68277154,0.2859834178,-2.6633552000000003,0.00679567572
396,1778412889430,-0.5454587,0.08793196,-0.749251,-0.015042114,-2.4867592,0.023899399
397,1778412889440,-0.5053208333333333,0.0603964791111111,-0.7822339955555555,-0.6225551486666667,-2.2418857555555554,0.0415460976666666
398,1778412889450,-0.4363181359999999,0.0109152718,-0.7352929039999999,-1.012632,-2.0884104,0.04161397
399,1778412889460,-0.4591189111111111,-0.0180837107777777,-0.56599848,-1.3614936888888889,-2.1492236444444446,0.0141937153955555
400,1778412889470,-0.4668598811111111,-0.0150889561111111,-0.3717662622222222,-1.4372387111111111,-2.3443639111111114,-0.00861973332
401,1778412889480,-0.491437184,-0.0377948876,-0.125464636,-1.100594,-2.6767328,-0.083075225
402,1778412889490,-0.6350742888888888,-0.0570697255555555,-0.0988912706666666,-0.60397524,-3.1171536,-0.102011494
403,1778412889500,-0.6808934,-0.03823394,-0.079089984,-0.1311031,-3.5685697,0.033062108
404,1778412889510,-0.6029281133333334,0.007578357,-0.0679782208888888,0.2039805722222222,-3.874604111111111,0.1419286688888889
405,1778412889520,-0.5053716277777778,0.0758479255555555,-0.0659726846666666,0.4720067799999999,-4.081545777777778,0.2224247544444444
406,1778412889530,-0.468810875,0.13065091,-0.078897899,0.470642554,-4.0863238,0.229449498
407,1778412889540,-0.4265018288888889,0.1784047211111111,-0.1221040133333333,0.27429589,-3.988221766666667,0.19371494
408,1778412889550,-0.43295208,0.18409611,-0.12570857,0.11140327,-3.9503493,0.17172444
409,1778412889560,-0.405139486,0.2006885399999999,-0.056985036,-0.068674502,-3.99762884,0.14735163
410,1778412889570,-0.3465683211111111,0.2393059622222222,0.1242450577777777,-0.174948356,-4.160548555555556,0.0593200577777777
411,1778412889580,-0.284696485,0.267439385,0.273903175,-0.04680617196,-4.56938178,-0.1830098379999999
412,1778412889590,-0.2574845466666666,0.2831059533333333,0.39539908,0.0878517118888888,-4.783476966666666,-0.3399025611111111
413,1778412889600,-0.2482157,0.27904066,0.47268,0.19508934,-4.9063253,-0.4563029
414,1778412889610,-0.271052396,0.271375594,0.497327796,0.2792640979999999,-4.97119732,-0.57285256
415,1778412889620,-0.3632325766666666,0.2172077933333333,0.5090439333333333,0.3150190266666667,-4.994694433333334,-0.7719073
416,1778412889630,-0.4269354733333333,0.1571738066666667,0.6181356666666667,0.2109035022222222,-4.9131123444444444,-0.7670205377777778
417,1778412889640,-0.385738965,0.13137962,0.6516996,0.15721681,-4.7501928,-0.663746642
418,1778412889650,-0.34340417,0.12772086,0.6135114,0.13156123,-4.675425,-0.62856185
419,1778412889660,-0.32767461,0.1299405109999999,0.62870742,0.097781372,-4.7087772,-0.624713495
420,1778412889670,-0.2306841877777777,0.1330599411111111,0.8560458666666667,0.2109034988888889,-4.879447888888889,-0.6344666888888889
421,1778412889680,-0.1605750872222222,0.1453912766666666,0.9138846,0.4017593322222222,-4.977794333333334,-0.7412970866666666
422,1778412889690,-0.178574442,0.125013393,0.911071492,0.6028909600000001,-5.0756521999999995,-0.8871945880000001
423,1778412889700,-0.20062146,0.10674403,0.8958755000000002,0.5970268,-5.107905,-0.88572854
424,1778412889710,-0.1972066311111111,0.0740253166666666,0.9631151444444446,0.5170737177777778,-5.046548444444444,-0.8473130155555555
425,1778412889720,-0.21013421,0.03936205,1.113571,0.449323961,-4.8760879,-0.7523805670000001
426,1778412889730,-0.1880733011111111,0.0086285519555555,1.1516220444444445,0.52739024,-4.647937,-0.61329067
427,1778412889740,-0.153569932,0.0243977651999999,1.13976774,0.63923635,-4.61208007,-0.428814778
428,1778412889750,-0.08591965,0.05353971,1.151622,0.7106444,-4.6296115,-0.32619244
429,1778412889760,0.0613789188888888,0.1101554788888889,1.1455512444444444,0.7665708888888889,-4.715401455555556,-0.2990436577777777
430,1778412889770,0.15797263,0.180095876,1.2465483,0.727381656,-4.6955832,-0.363209774
431,1778412889780,0.1610188788888888,0.1996525677777777,1.2882560444444442,0.6568898333333333,-4.566626333333334,-0.3867342
432,1778412889790,0.1696440466666666,0.2072139888888889,1.3442654777777776,0.5018704088888888,-4.298125222222222,-0.4315296666666667
433,1778412889800,0.17327231,0.19848719,1.4598718,0.45531029,-4.164146,-0.4495836000000001
434,1778412889810,0.1672455366666666,0.1572551133333333,1.487027833333333,0.5016668000000001,-3.87005681111111,-0.4388598222222222
435,1778412889820,0.1273275518,0.127111068,1.44127612,0.56055928,-3.73392604,-0.415681564
436,1778412889830,0.0978918887777777,0.1045724966666666,1.3975544444444443,0.6121623111111112,-3.695082888888889,-0.3866663244444444
437,1778412889840,0.0279691116666666,0.0790798133333333,1.3213881,0.7014817,-3.7133404999999993,-0.2569630899999999
438,1778412889850,0.047319833,0.1018657,1.2836419,0.7454627,-3.7487695,-0.15393351
439,1778412889860,0.1144917746666666,0.1536810533333333,1.2233165777777777,0.6456910011111111,-3.8108723666666666,-0.1146356688888888
440,1778412889870,0.2411014666666666,0.23412951,1.160403,0.4488624544444444,-3.9181101,-0.0971247155555555
441,1778412889880,0.299612002,0.239763979,1.18197449,0.277798053,-4.0367843699999995,-0.1670667309999999
442,1778412889890,0.3904326933333333,0.233533271111111,1.3412809444444445,0.1682120633333333,-4.3225587999999995,-0.4300364666666667
443,1778412889900,0.5249392,0.26974136,1.5894525,0.19753273,-4.382829,-0.6206208
444,1778412889910,0.4305434111111111,0.16063945,1.6327511111111113,0.1421492430222222,-4.120300488888889,-0.9612021111111112
445,1778412889920,0.30431655,0.1169885249999999,1.6157955,-0.0022143214,-3.8813236,-1.1306783
446,1778412889930,0.150459992,0.0038050979999999,1.6732561,-0.427562528,-3.4203782000000005,-1.08236022
447,1778412889940,0.0973634,-0.0784903533333333,1.7887426,-0.6349248066666667,-3.1181715333333333,-1.0203185666666663
448,1778412889950,0.04414892,-0.12095218,1.8964522,-0.6956023,-2.9687176,-0.9706363
449,1778412889960,0.0377528813333333,-0.1259524688888889,1.956225311111111,-0.6738832955555556,-2.839218044444445,-0.9361573666666668
450,1778412889970,-0.0147230807333333,-0.1790890333333333,2.042622633333333,-0.64673454,-2.6773436,-0.8930587
451,1778412889980,-0.0682021486,-0.176156612,2.0362835,-0.33781381,-2.0335792699999997,-0.560879965
452,1778412889990,-0.050765157,-0.1683025,2.0402105,-0.08712209,-1.5294852,-0.2736596
453,1778412890000,-0.047838156,-0.163619299,1.99086311,-0.02738123,-1.34904092,-0.201320008
454,1778412890010,-0.0215900112222222,-0.1342490255555555,1.8060809333333336,0.2272606266666666,-0.4910448533333333,0.15095563
455,1778412890020,0.0240766076666666,-0.0985931566666666,1.6821814333333334,0.2555632233333333,-0.1031568266666666,0.3246398666666666
456,1778412890030,0.0725713072,-0.05229573543,1.58527244,0.248233054,0.193974552,0.443184948
457,1778412890040,0.0904964733333333,0.0047258852555555,1.5177308333333333,0.2528483366666667,0.5183548,0.5568297
458,1778412890050,0.10662207,0.032044552,1.4708481,0.26472592,0.59267455,0.5846572
459,1778412890060,0.110945497,0.0434659495,1.44370317,0.307729572,0.6779488300000001,0.6337693
460,1778412890070,0.13080032,0.07744354,1.3944411,0.39666894,0.77226365,0.7129351
461,1778412890080,0.197054181,0.148804418,1.27746783,0.45714283,0.77898294,0.70071816
462,1778412890090,0.2488255033333333,0.2055709399999999,1.2328972,0.4215100699999999,0.72482119,0.6304707133333333
463,1778412890100,0.29602337,0.2480327599999999,1.2114122,0.37345675,0.69102097,0.55839074
464,1778412890110,0.342437673,0.26932364,1.25086265,0.16760121768,0.761329496,0.307454694
465,1778412890120,0.33669988,0.2657539711111111,1.2904750555555555,-0.0217020462666666,0.8809266111111111,0.0955636588888888
466,1778412890130,0.24623388,0.21019518,1.2980635,-0.21669807,1.0856283,-0.03970507
467,1778412890140,0.1493227329999999,0.149569704,1.31650368,-0.361835373,1.27731219,-0.0507003223
468,1778412890150,0.092718825,0.10893929,1.3283092,-0.4524850999999999,1.4277028,-0.026266431
469,1778412890160,0.0991704234,0.079352194,1.33856588,-0.456394532,1.46557528,0.029992601
470,1778412890170,0.1202305964444444,0.0682018144444444,1.3625998333333331,-0.4400645422222222,1.4602812777777778,0.058514078
471,1778412890180,0.14494748,0.07817529,1.4142289,-0.37002072,1.4374763,0.05688515
472,1778412890190,0.1778762239999999,0.0847366498,1.41693632,-0.261167743,1.47925829,0.0020310668
473,1778412890200,0.18229721,0.085004956,1.4025208,-0.22219568,1.5517048,-0.033596598
474,1778412890210,0.1351637166666666,0.0763594644444444,1.3545201444444444,-0.3453832333333333,1.7948219333333333,-0.0380761456666666
475,1778412890220,0.1123266759999999,0.0600766721999999,1.3497068,-0.4945114,2.0017769999999997,-0.0079104713999999
476,1778412890230,0.0824201155555555,0.033524992,1.3541406333333337,-0.6148347044444445,2.173207866666667,0.0454826705555555
477,1778412890240,0.083108505,0.0238001688,1.36492716,-0.65895146,2.2346319,0.1060583599999999
478,1778412890250,0.09247491,0.025702719,1.3766352,-0.65895146,2.2315776,0.13201937
479,1778412890260,0.1587524922222222,0.024185015,1.5213319555555556,-0.5830028088888889,2.184270933333333,0.1401639911111111
480,1778412890270,0.17790672,0.016921718,1.5796958,-0.49219018,2.2456272,0.12835428
481,1778412890280,0.1832694944444444,-0.0073920302222222,1.5945476555555558,-0.4600188888888889,2.4634962,0.1461367244444444
482,1778412890290,0.1303531377777778,-0.0616838142222222,1.604819233333333,-0.4450191922222222,2.8043573000000004,0.2124475933333333
483,1778412890300,0.05195425,-0.096804425,1.6014044000000005,-0.4194993699999999,3.0227013,0.30366746
484,1778412890310,0.0474146913333333,-0.1000566494444444,1.5874199111111111,-0.3409036822222222,3.2684654666666666,0.5195680111111112
485,1778412890320,0.0658392088,-0.091383378,1.582379,-0.306981292,3.35536872,0.59834016
486,1778412890330,0.1130316644444444,-0.0535397102444444,1.572886488888889,-0.2285586866666666,3.5432110666666667,0.734654111111111
487,1778412890340,0.1730284,0.0030184689,1.5362481,-0.14393088,3.7251756,0.8234985
488,1778412890350,0.2374529,0.07305304,1.4203267,-0.055358034,3.8809416,0.82594186
489,1778412890360,0.2414571799999999,0.1310781088888889,1.3223874111111111,-0.055358034,3.8809416,0.82594186
490,1778412890370,0.2276657199999999,0.19897503,1.2319317,-0.0283450091111111,3.9569583,0.6961028966666667
491,1778412890380,0.232800159,0.2569845089999999,1.14224041,-0.067574978,3.98130391,0.527420792
492,1778412890390,0.2247929166666666,0.3049229533333333,1.0870349777777777,-0.1162391411111111,3.9713471333333334,0.3821273733333333
493,1778412890400,0.2096158899999999,0.32123825,1.0967103,-0.11949699,3.9029322,0.23280916
494,1778412890410,0.1348317122222222,0.3005222666666667,1.1510935333333334,-0.0048613256666666,3.901710533333333,0.0479006033333333
495,1778412890420,0.08491349,0.26559475,1.122352,0.12362021,3.9377506,-0.13072132
496,1778412890430,-0.0325415323999999,0.187315802,0.92845963,0.1888587,4.06761658,-0.31739624
497,1778412890440,-0.1221141677777777,0.1290420766666666,0.8049520555555555,0.1124892144444444,4.149171333333333,-0.40539897
498,1778412890450,-0.2502855944444444,0.0571916842222222,0.6872521333333333,-0.0158565766666666,4.15623,-0.4149689
499,1778412890460,-0.36668297,-0.0256569855,0.60654455,-0.2157436049999999,4.10634415,-0.33627142
500,1778412890470,-0.39712682,-0.0466355133333333,0.6028908888888889,-0.3191167777777777,4.069761188888888,-0.2644968688888889
501,1778412890480,-0.41168255,-0.0540885199999999,0.66108734,-0.430738948,4.02974398,-0.151734454
502,1778412890490,-0.4085604266666667,-0.0668534913333333,0.7168914333333333,-0.47406838,4.012680933333333,-0.0706546669999999
503,1778412890500,-0.4134862022222222,-0.0671787122222222,0.7520832,-0.46103698,4.0159388,-0.028709821
504,1778412890510,-0.400636181,-0.0743915332,0.703108107,-0.389201338,3.99468137,0.0364141337
505,1778412890520,-0.4300251,-0.08192551,0.69866884,-0.3694099,3.9756231,0.05505261
506,1778412890530,-0.4823350799999999,-0.0781041533333333,0.7053358533333334,-0.2820417588888889,3.9505783333333335,0.1288972594444444
507,1778412890540,-0.506279565,-0.077379513,0.679707338,-0.130308988,3.93463522,0.246125631
508,1778412890550,-0.5016857755555555,-0.0594241972222222,0.62624252,-0.06574243,3.927366,0.29572642
509,1778412890560,-0.439751268,0.0034575194,0.48405264,-0.00221432066,3.81997912,0.322909133
510,1778412890570,-0.4122192,0.0300932209999999,0.4224027,-0.0046577104,3.7581613,0.30488914
511,1778412890580,-0.4022761888888889,0.0561685888888888,0.3617419655555556,-0.1091295635555555,3.7213748111111102,0.2175379733333333
512,1778412890590,-0.517042362,0.0346910473999999,0.3386112179999999,-0.346197685,3.78228985,0.1127776775
513,1778412890600,-0.55863017,0.022775719,0.35431945,-0.42499697,3.8223004,0.10208785
514,1778412890610,-0.5974129188888889,0.0044548669111111,0.3808995788888889,-0.4646341788888889,3.9002173333333334,0.1867920011111111
515,1778412890620,-0.5845158,0.0025306356,0.35529512,-0.44943088,3.9090407,0.22242476
516,1778412890630,-0.5555405666666666,0.042299216,0.2981881333333333,-0.3761292,3.813341333333333,0.2450260966666666
517,1778412890640,-0.55465432,0.0508810169,0.273543403,-0.335752206,3.75773383,0.215888688
518,1778412890650,-0.5681429,0.043539125,0.2479108099999999,-0.30710346,3.7154021,0.18210883
519,1778412890660,-0.5942623333333333,0.04784832,0.2356336666666666,-0.2539597466666666,3.720288866666667,0.1819052166666666
520,1778412890670,-0.6101271,0.04622221,0.21083546,-0.19592926,3.7337275,0.18577392
521,1778412890680,-0.6194229911111111,0.0456530711111111,0.14780333,-0.1763906344444444,3.7527315666666663,0.1990768133333333
522,1778412890690,-0.6447395,0.0505314033333333,0.0503518507777777,-0.1707402955555555,3.813205511111111,0.2680346822222222
523,1778412890700,-0.6325979,0.05963763,0.018019345,-0.15553698,3.8381824,0.31038678
524,1778412890710,-0.5786855311111112,0.0890261973333333,-0.0595258333333333,-0.1277094933333333,3.8024818,0.33468492
525,1778412890720,-0.541458413,0.1154030695999999,-0.099877778,-0.0997055446,3.78112931,0.32602447
526,1778412890730,-0.54513341,0.13121701,-0.1638611866666666,-0.0575299333333333,3.7397681222222223,0.2950477088888889
527,1778412890740,-0.5648161655555556,0.14048585,-0.2117095133333333,-0.0088657691111111,3.653435188888889,0.2718355133333333
528,1778412890750,-0.58646715,0.13137962,-0.2247997,0.03077143,3.5975087,0.2761793
529,1778412890760,-0.5634678444444445,0.1524275933333333,-0.2613025066666666,0.1511762133333333,3.5174197777777776,0.3005453333333333
530,1778412890770,-0.53057975,0.16897328,-0.33120835,0.24273543,3.4509053,0.3018349
531,1778412890780,-0.519822995,0.198609146,-0.3452579349999999,0.293863341,3.41407109,0.305683237
532,1778412890790,-0.5186278,0.20190202,-0.346819,0.29954422,3.4099784,0.30611083
533,1778412890800,-0.445251592,0.249346879,-0.49354402,0.396852184,3.2917794199999997,0.203305243
534,1778412890810,-0.4528008122222222,0.24716552,-0.6430659822222222,0.3752214066666666,3.2342580222222224,0.1510235022222222
535,1778412890820,-0.4701663044444444,0.2346444577777777,-0.7307404666666666,0.304431,3.1338756,0.0782648
536,1778412890830,-0.467606532,0.2363247679999999,-0.79448536,0.282745926,2.91125984,0.0325505247999999
537,1778412890840,-0.4246589066666666,0.2475449333333333,-0.8319794,0.2441607322222222,2.636230088888889,-0.0796816311111111
538,1778412890850,-0.4110266955555555,0.2332588644444444,-0.8516248277777778,0.21463646,2.5693762,-0.14721419
539,1778412890860,-0.451450126,0.191233723,-0.92558138,0.080433314,2.5264337,-0.2484315719999999
540,1778412890870,-0.481522,0.15040511,-0.97767895,-0.1076872844444444,2.4736089777777774,-0.3458752833333333
541,1778412890880,-0.52125299,0.119247808,-0.966263669,-0.183597783,2.39168082,-0.348182945
542,1778412890890,-0.5380327488888889,0.0856825033333333,-0.9531789244444444,-0.1906946366666666,2.259473266666667,-0.3202875777777778
543,1778412890900,-0.52082306,0.08012662,-0.95426303,-0.13415733,2.1014674,-0.3023694
544,1778412890910,-0.5260916800000001,0.0531372482,-1.02136448,-0.0316571611,1.8822342,-0.2687728029999999
545,1778412890920,-0.5261892466666667,0.0370041913333333,-1.076688833333333,0.017943637,1.7398458,-0.23456535
546,1778412890930,-0.5203250466666667,0.026353163,-1.1250758,0.0442100687777777,1.595278566666667,-0.1753810355555555
547,1778412890940,-0.503425696,0.0196535862,-1.17769676,0.0767071425,1.39318985,-0.0964527852
548,1778412890950,-0.49274215,0.018629136,-1.1929355,0.1238917,1.1860787333333334,-0.0402480466666666
549,1778412890960,-0.4774567044444444,0.0117994692111111,-1.255578,0.15070111,1.0170098333333333,-0.002825168
550,1778412890970,-0.46929871,0.00387217728,-1.29800262,0.1525743789999999,0.87317561,0.0280531604
551,1778412890980,-0.4514897799999999,0.0005793021,-1.3210527,0.1156792,0.5925388444444445,0.0683555055555555
552,1778412890990,-0.4609787999999999,0.0019614965222222,-1.3428697444444446,0.0930778544444444,0.3965247266666666,0.0814547833333333
553,1778412891000,-0.47030184,0.0032623855,-1.3378829,0.084037311,0.0990259709999999,0.091581274
554,1778412891010,-0.4688112377777778,0.0062435889444444,-1.2976536,0.0680331126666666,-0.2151454966666666,0.0943504466666666
555,1778412891020,-0.467130944,0.0229220686,-1.24559704,0.058259558,-0.38414657,0.09475768
556,1778412891030,-0.4704915488888889,0.0294156727777777,-1.1960453777777778,0.037083519,-0.5686224433333334,0.066047859
557,1778412891040,-0.4924982499999999,0.033020217,-1.142902,0.0032154316666666,-0.7874415244444444,0.0253925812222222
558,1778412891050,-0.520725513,0.0227513266999999,-1.10750372,-0.016263809,-0.8435037,0.0135149959999999
559,1778412891060,-0.5847190577777778,0.0025577372222222,-0.9808905555555554,-0.1045651733333333,-1.0581147444444443,0.0175194387222222
560,1778412891070,-0.5962238,-0.0011281146,-0.9518238,-0.11949699,-1.1110548,0.029397024
561,1778412891080,-0.60788306,-0.0057137482479999,-0.86126364,-0.1075243894,-1.19913896,0.0739888772
562,1778412891090,-0.6253616922222222,6.436689777777778e-05,-0.8068458555555555,-0.043751936,-1.255961311111111,0.1262502522222222
563,1778412891100,-0.656135815,0.010945761,-0.82148088,0.0098804535,-1.32582874,0.196769172
564,1778412891110,-0.6544080666666666,0.0207430811111111,-0.8142175577777777,0.0429205011111111,-1.3939450222222225,0.2561570977777778
565,1778412891120,-0.6257377,0.03667897,-0.7990405,0.0831685477777777,-1.4535364555555554,0.2929436711111111
566,1778412891130,-0.612663828,0.0615889592,-0.80050408,0.134615465,-1.5508647999999998,0.31802236
567,1778412891140,-0.592883508888889,0.0923834368888888,-0.811561611111111,0.1586421222222222,-1.6224018333333334,0.3226037155555555
568,1778412891150,-0.5648093666666667,0.12438734,-0.8222227866666666,0.17859647,-1.6974682,0.30977592
569,1778412891160,-0.5597034200000001,0.141721684,-0.8482934480000001,0.16741796,-1.81218529,0.243071385
570,1778412891170,-0.567899,0.14918554,-0.85883063,0.13156123,-1.8831657,0.19860171
571,1778412891180,-0.58207667,0.15503953,-0.8302618,0.0819604312,-1.9391804,0.169097788
572,1778412891190,-0.589882,0.15872878,-0.7853812,0.014889402,-2.057868,0.10819632
573,1778412891200,-0.5841905944444444,0.1515298466666667,-0.7513514222222222,-0.0005853953333333,-2.1364636666666668,0.0837624266666666
574,1778412891210,-0.611477747,0.126501275,-0.654718055,-0.0124765552,-2.2124735,0.0432632569
575,1778412891220,-0.6512168644444445,0.1126488517777777,-0.6334922333333334,-0.015042114,-2.2154667,0.047111593
576,1778412891230,-0.6728441333333334,0.0980240073333333,-0.6195077,-0.0236618473333333,-2.2319595666666667,0.0942825777777777
577,1778412891240,-0.667331615,0.099768011,-0.604934655,-0.026037365,-2.2618911,0.12896512
578,1778412891250,-0.66162395,0.10503662,-0.57329565,-0.0046577104,-2.3193107,0.15278818
579,1778412891260,-0.6569896,0.12576954,-0.49496788,0.1332580321777777,-2.4371363,0.1674485088888888
580,1778412891270,-0.665526618,0.1223547062,-0.518530244,0.2214779479999999,-2.51178107,0.173129384
581,1778412891280,-0.6808900111111111,0.1119746888888889,-0.5448149666666667,0.3029378111111111,-2.6096752444444444,0.2002985188888889
582,1778412891290,-0.6543065,0.1174763699999999,-0.5698808,0.3042952588888888,-2.686574066666667,0.2417682588888888
583,1778412891300,-0.609861799,0.139892308,-0.57310052,0.26600872,-2.73635128,0.25632678
584,1778412891310,-0.5879848333333333,0.1499443788888889,-0.5599852644444445,0.1223306523333333,-2.8101688333333334,0.2220853977777777
585,1778412891320,-0.5981751,0.14625853,-0.5354581,0.024052111,-2.8465483,0.19004986
586,1778412891330,-0.6415415277777777,0.1082448011111111,-0.4594035111111111,-0.1641906522222222,-2.877226277777778,0.1962261944444444
587,1778412891340,-0.6403964722222222,0.10016167,-0.4073340577777777,-0.2375347477777777,-2.896434,0.2262934511111111
588,1778412891350,-0.59689764,0.1215985549999999,-0.32854052,-0.213628558,-2.95295772,0.2271893599999999
589,1778412891360,-0.5526406333333334,0.1454725744444444,-0.2946174555555556,-0.0710364496,-3.1784419333333336,0.1627653466666666
590,1778412891370,-0.5505809,0.15186861,-0.28702894,0.0038941511999999,-3.3254526,0.11796988
591,1778412891380,-0.5733658100000001,0.1302088159999999,-0.265856984,0.0866028722399999,-3.5144486200000005,0.074477551
592,1778412891390,-0.5795290733333334,0.1183436266666666,-0.2602794188888889,0.1188013051111111,-3.678861555555556,0.0557313266666666
593,1778412891400,-0.577076331,0.1062958418,-0.247919955,-0.0069178448,-3.69788614,0.081807718
594,1778412891410,-0.5738546033333333,0.0797201023333333,-0.1973082599999999,-0.2113531533333333,-3.6520522,0.1289651233333333
595,1778412891420,-0.56570375,0.069638215,-0.17501022,-0.30466008,-3.621102599999999,0.14973393
596,1778412891430,-0.542235885,0.0644427815,-0.0546769725,-0.5018415540000001,-3.58188612,0.208192023
597,1778412891440,-0.4954726333333333,0.0872306933333333,0.0294631008888888,-0.5819847,-3.622324199999999,0.2602973
598,1778412891450,-0.3899922688888889,0.1437922622222222,0.1362579444444444,-0.5067826688888889,-3.747683788888888,0.1996113083333333
599,1778412891460,-0.4319764199999999,0.122720575,0.26353671,-0.2579608,-4.09915174,-0.028831991
600,1778412891470,-0.47566798,0.10259745,0.31014004,-0.16408885,-4.1849146,-0.05375456
601,1778412891480,-0.500126732,0.0866270064,0.354807284,0.0637571824,-4.29315664,0.0179894516
602,1778412891490,-0.4588851755555555,0.0991216418888888,0.3348738677777778,0.1585742511111111,-4.319911722222222,0.0714776124444444
603,1778412891500,-0.4057282944444444,0.0937317577777777,0.2846338155555555,0.1376697,-4.33274,0.10330954
604,1778412891510,-0.36925935,0.084614692,0.400700224,-0.0039857783999999,-4.3204616,0.181009309
605,1778412891520,-0.34730685,0.07744354,0.51417637,-0.04253024,-4.285704,0.23769593
606,1778412891530,-0.29849303,0.09183463,0.5951871,0.1618321005555555,-4.338440777777778,0.26138324
607,1778412891540,-0.19013305,0.14308763,0.5146642,0.24395712,-4.421923,0.23830679
608,1778412891550,-0.1052331095555555,0.1983550744444444,0.4739876922222222,0.2077135180555555,-4.501061866666666,0.1706978766666666
609,1778412891560,-0.015153322,0.25486243,0.46682605,-0.0052685575,-4.679701,-0.05131117
610,1778412891570,-0.0006890644,0.256228374,0.4648746659999999,-0.0653759275,-4.6894746,-0.092360106
611,1778412891580,-0.0521337988888888,0.1906581488888888,0.7282335644444444,-0.4393603677777777,-4.6950400000000005,-0.3037947044444444
612,1778412891590,-0.140014266,0.099755824,1.11493096,-0.632623964,-4.62979464,-0.429120199
613,1778412891600,-0.1375893273333333,0.1077027622222222,1.1919801444444442,-0.4660594866666666,-4.605449088888888,-0.3834084544444444
614,1778412891610,0.0459478033333333,0.1919691866666666,1.2005443333333332,-0.2313584,-4.687642,-0.32924667
615,1778412891620,0.12445848,0.2182749199999999,1.197021,-0.14820682,-4.839132,-0.4355341
616,1778412891630,0.1459502466666666,0.2201991622222222,1.3731153111111112,-0.1944615288888889,-4.636874,-0.6073179400000001
617,1778412891640,0.15641156,0.21876277,1.476702,-0.21181129,-4.472624,-0.66704524
618,1778412891650,0.0662111788,0.164869382,1.59228184,-0.1579727344,-4.04869558,-0.74346219
619,1778412891660,-0.0560229143333333,0.0766880806666666,1.656590488888889,0.1093671066666666,-3.5182086666666668,-0.7313199
620,1778412891670,-0.120830216,0.025702719,1.6038436,0.2580066,-3.346832,-0.6963659
621,1778412891680,-0.1018352126,0.0225805858,1.4494626199999998,0.557932588,-3.32166517,-0.560941037
622,1778412891690,0.055704467,0.0392096053333333,1.1721212333333333,0.8541935,-3.4286857,-0.45813546
623,1778412891700,0.1100216605,0.0490028601,1.08239239,0.783518512,-3.52232858,-0.502055372
624,1778412891710,0.1220701355555555,0.0442945908888888,1.0631277444444445,0.568452768888889,-3.5061953777777775,-0.557364188888889
625,1778412891720,0.06393666,0.009360302,1.0442377,0.3300866,-3.363936,-0.5546493
626,1778412891730,0.03948096345,-0.0075492211,1.11516263,0.258006617,-3.32801811,-0.504071143
627,1778412891740,0.0297883236666666,-0.036770437,1.2676553222222222,0.1640718844444444,-3.240816222222222,-0.2839082244444444
628,1778412891750,0.1340525446666666,0.010569722,1.3198636,0.2711737711111111,-3.2447526666666664,-0.1826433244444444
629,1778412891760,0.319384508,0.100481472,1.34101116,0.5334987179999999,-3.2831818,-0.078554958
630,1778412891770,0.37898555,0.14601462,1.3358706,0.65261394,-3.3059053,-0.0891837
631,1778412891780,0.3747901729999999,0.1719155259999999,1.27308648,0.673321664,-3.2868468899999996,-0.15765968
632,1778412891790,0.3546988977777777,0.1837437911111111,1.1980746333333334,0.6553288222222222,-3.253711855555556,-0.2643611266666666
633,1778412891800,0.3468495099999999,0.1983550666666666,1.1504058555555554,0.4686131733333333,-3.2638926444444447,-0.3282964577777778
634,1778412891810,0.459968919,0.2165827639999999,1.2383100800000002,0.072492303,-3.17597807,-0.5066367300000001
635,1778412891820,0.4490201,0.18873052,1.2885509,-0.15370443,-3.0139203,-0.6212317
636,1778412891830,0.3876039177777777,0.1196987164444444,1.3891461555555555,-0.3462316133333333,-2.831412744444444,-0.7102796222222223
637,1778412891840,0.32602513,0.049637042,1.4832878,-0.5819847300000001,-2.54207906,-0.8471229499999999
638,1778412891850,0.2205006622222222,-0.0367772141111111,1.5663176777777776,-0.6349248,-2.360237533333333,-0.8592584866666666
639,1778412891860,0.11585432,-0.1084636423999999,1.6787259200000002,-0.625354885,-2.0874941999999996,-0.8084563599999999
640,1778412891870,0.0746554415555555,-0.1260540977777778,1.6959966444444443,-0.62413319,-1.8646367666666663,-0.74482644
641,1778412891880,-0.042980152,-0.1674996066666666,1.7369306666666668,-0.6149025877777778,-1.6238271222222225,-0.6329735111111111
642,1778412891890,-0.11765931,-0.19077332,1.7751646,-0.56121594,-1.4323604,-0.4966188000000001
643,1778412891900,-0.16215377,-0.1912510066666666,1.8173926,-0.3227564266666667,-1.2159169333333333,-0.2070517636666666
644,1778412891910,-0.0462594762222222,-0.1193294595555555,1.8313771333333335,-0.0596339644444444,-1.0455583933333332,0.0382882457777777
645,1778412891920,0.057320416,-0.066040434,1.8110508,0.1260636,-0.80990714,0.1338519
646,1778412891930,0.094090852,-0.0143910817777777,1.7346608666666663,0.1866732277777777,-0.5846402388888889,0.15068414
647,1778412891940,0.11247607,0.040093806,1.6470474,0.2286859499999999,-0.24853848,0.15400986
648,1778412891950,0.0686422152777777,0.0190627656666666,1.5865763222222222,0.2634363677777778,0.0243066293333333,0.1909321844444444
649,1778412891960,0.0133883150555555,-0.0082016977333333,1.504742277777778,0.3309010533333333,0.2024958633333333,0.2574466633333333
650,1778412891970,0.014147166,-0.0064942813,1.449109,0.38506284,0.25304347,0.30794337
651,1778412891980,0.1004022013333333,0.0403749846,1.3577961,0.3801760666666667,0.3348969966666666,0.3447978299999999
652,1778412891990,0.1841435333333333,0.0943584866666666,1.2904988,0.33069744,0.4419310155555556,0.3452729411111111
653,1778412892000,0.257307696,0.170814844,1.2483228599999998,0.2299076299999999,0.5068505,0.252661695
654,1778412892010,0.2728208,0.18751094,1.2436397,0.18042901,0.5328115,0.20043425
655,1778412892020,0.2675088266666667,0.1884595022222222,1.2449675999999998,0.0901593588888888,0.5864982333333333,0.0707310205555555
656,1778412892030,0.187876811,0.139749004,1.23347438,0.0156224178,0.61961293,-0.0022677707
657,1778412892040,0.1417765533333333,0.1008798633333333,1.2504692333333334,-0.098117344,0.6610894,-0.086129464
658,1778412892050,0.113741389,0.0651653879,1.26894297,-0.170823446,0.71692088,-0.0835639066
659,1778412892060,0.06775802,0.021962664,1.3045680000000002,-0.26943455,0.8541850666666666,-0.0165268121111111
660,1778412892070,0.06564408,0.017897386,1.3283092,-0.2857238,0.8993198999999998,0.020845164
661,1778412892080,0.1030608879999999,0.0503687924,1.36765908,-0.282364145,1.01403702,0.06409315
662,1778412892090,0.1164634366666666,0.0687709477777777,1.3532428555555556,-0.2747285466666667,1.1346997666666665,0.0866809246666666
663,1778412892100,0.1290115933333333,0.0851777333333333,1.3219674,-0.2952937466666667,1.2393582,0.0870202833333333
664,1778412892110,0.128068448,0.103475548,1.32508952,-0.32732249,1.33149437,0.0620773522
665,1778412892120,0.1186790133333333,0.1007748511111111,1.3298539777777778,-0.3626905555555555,1.4031331666666669,0.039577812
666,1778412892130,0.1140920228,0.097152012,1.33255948,-0.414123912,1.48182384,0.02328855188
667,1778412892140,0.118604474,0.09793254,1.3524874,-0.46592376,1.5419312,0.0037414393999999
668,1778412892150,0.1191736221111111,0.0771725233333333,1.396788777777778,-0.5181172388888888,1.6707521222222224,-0.0331808834
669,1778412892160,0.1101039876,0.059344926,1.41510696,-0.569706691,1.8413684999999995,-0.0623675054999999
670,1778412892170,0.09954849,0.051588375,1.4295957,-0.600921,1.9114938,-0.06536066
671,1778412892180,0.09954849,0.051588375,1.4295957,-0.600921,1.9114938,-0.06536066
672,1778412892190,0.09954849,0.051588375,1.4295957,-0.600921,1.9114938,-0.06536066
673,1778412892200,0.09954849,0.051588375,1.4295957,-0.600921,1.9114938,-0.06536066
674,1778412892210,0.0406944473,-0.0008720022,1.4403035599999998,-0.658951488,2.2975492799999997,0.030534726
675,1778412892220,0.033416584,-0.027013771,1.454475,-0.6404224544444443,2.634940666666667,0.1793939622222222
676,1778412892230,0.0468048988888888,-0.0149568346666666,1.4364794222222224,-0.5739079877777777,2.7459790666666666,0.20111298
677,1778412892240,0.05049075,-0.010396948,1.4217902,-0.55388576,2.7972224,0.20654273
678,1778412892250,0.0401920464444444,-0.0095025866666666,1.4029917222222223,-0.5493383199999999,2.8547861666666665,0.2217460355555555
679,1778412892260,0.0422788895555555,0.01209759,1.359398411111111,-0.5540214888888889,3.007837411111111,0.2626049244444444
680,1778412892270,0.0605035323999999,0.0277516199999999,1.3447187,-0.5484492080000001,3.0348571499999997,0.244537423
681,1778412892280,0.0387149988888888,0.01020046,1.327929777777778,-0.5586368222222222,3.080324522222222,0.1659553311111111
682,1778412892290,-6.7753333333336885e-06,-0.0091265487777777,1.3217234222222225,-0.5746546,3.1088307,0.13934954
683,1778412892300,-0.102539521,-0.0559026534999999,1.34592915,-0.6186355600000001,3.22428088,0.19224891
684,1778412892310,-0.14156314,-0.07851068,1.3780174,-0.6082511666666667,3.3374912666666665,0.30122406
685,1778412892320,-0.14205098,-0.07655934,1.3929776,-0.545456076,3.40277046,0.379168171
686,1778412892330,-0.0857367122222222,-0.0562634435555555,1.3379168444444445,-0.3740930377777778,3.4677374666666667,0.4231220111111111
687,1778412892340,-0.0768473024444444,-0.0549625555555555,1.293124266666667,-0.3142300022222222,3.5061529333333334,0.4178280088888889
688,1778412892350,-0.1194642829999999,-0.0730134072,1.23973703,-0.21727074,3.5529167,0.446911125
689,1778412892360,-0.1173476322222222,-0.0724635771111111,1.2209960333333332,-0.1110130066666666,3.5468081999999996,0.4766051
690,1778412892370,-0.0895512933333333,-0.0811531104444444,1.1308315333333332,0.006133925,3.5599753888888888,0.487803971111111
691,1778412892380,-0.0726505799999999,-0.0650342844,1.0508418,0.0665059968,3.56391201,0.4939463669999999
692,1778412892390,-0.06518673,-0.03091644,1.0237488,0.081471756,3.5168767,0.50036025
693,1778412892400,-0.0684220127777777,0.0247541527222222,0.9806432711111112,0.1361086444444444,3.4497513333333334,0.38843947
694,1778412892410,-0.0899686609999999,0.0445361316999999,0.940317064,0.1114032669999999,3.42983105,0.2874799899999999
695,1778412892420,-0.0732359855555555,0.0947379066666666,0.8270536333333334,0.074141584,3.4197521,0.2340308599999999
696,1778412892430,-0.1041737589999999,0.114378628,0.745848418,-0.1818797706,3.4828525800000003,0.0855186151
697,1778412892440,-0.14449014,0.13333096,0.74772656,-0.42988375,3.5620794,-0.031764057
698,1778412892450,-0.2741623399999999,0.0762341186666666,0.7398399,-0.7274342433333333,3.7686815333333334,-0.155290953
699,1778412892460,-0.4264273239999999,0.01326296908,0.699955476,-0.871465247,3.84245828,-0.17323629
700,1778412892470,-0.4619239644444444,-0.0032454469333333,0.6822993022222222,-0.92643469,3.780898411111111,-0.1368976555555555
701,1778412892480,-0.4397275333333333,-0.0202925124444444,0.7113050444444444,-0.9527011555555556,3.669384955555555,-0.1237305033333333
702,1778412892490,-0.4463674999999999,-0.027501604,0.7452874,-0.9631534,3.6665344000000006,-0.1142284349999999
703,1778412892500,-0.4553449888888889,-0.0248456228888888,0.7639131422222223,-0.86969378,3.673457333333334,-0.0775776013333333
704,1778412892510,-0.489775515,-0.0345751883,0.79288163,-0.6430694499999999,3.6610368,-0.06658235
705,1778412892520,-0.5266771,-0.05847902,0.7741,-0.5276193,3.6616476,-0.056808796
706,1778412892530,-0.5686375044444445,-0.0804078044444444,0.63038911,-0.3682560511111111,3.6958549111111103,0.0285146893333333
707,1778412892540,-0.5983458629999999,-0.094438438,0.584869466,-0.34925193,3.7728217,0.104531236
708,1778412892550,-0.6099373333333333,-0.0909707528888889,0.5252169488888889,-0.2857916788888889,3.9390400222222217,0.2746861411111111
709,1778412892560,-0.5759787,-0.0611621029999999,0.41093862,-0.21547636,3.9542434000000006,0.38491014
710,1778412892570,-0.500437694,-0.0052137199,0.310530308,-0.1555827959999999,3.8380602,0.37049413
711,1778412892580,-0.4157220777777778,0.0683102133333333,0.1609917777777777,-0.1388659433333333,3.680583833333333,0.2888034933333333
712,1778412892590,-0.46298432,0.06793079,0.16080207,-0.21181129,3.6573715,0.2163162799999999
713,1778412892600,-0.5240956266666666,0.0462798024444444,0.16801116,-0.2680092433333333,3.706239366666667,0.1992125599999999
714,1778412892610,-0.58882504,0.0133984777777777,0.1337781288888889,-0.3229855,3.779541,0.20776442
715,1778412892620,-0.599931352,0.00838463488,0.1186166756,-0.29610822,3.7575505,0.22242476
716,1778412892630,-0.59394729,0.0089537749333333,0.0268105086666666,-0.0232037177777777,3.491492711111111,0.2568358244444444
717,1778412892640,-0.57963747,0.01984872,-0.04006331,0.12667444,3.3275142,0.26701662
718,1778412892650,-0.553148133,0.051045662,-0.117418434,0.0962542552,3.24853149,0.251073501
719,1778412892660,-0.5379785233333334,0.0761697566666666,-0.1667238133333333,0.0230340313333333,3.2228555666666665,0.20124872
720,1778412892670,-0.558401485,0.0736628375,-0.2280925749999999,-0.081013622,3.2334436500000003,0.13751699
721,1778412892680,-0.5960882944444444,0.0573475211111111,-0.2479988911111111,-0.1380939077777777,3.236701533333333,0.1202096555555555
722,1778412892690,-0.6169567,0.039849885,-0.25382578,-0.17752749,3.2181723,0.11735903
723,1778412892700,-0.64757131,0.0329836312999999,-0.238312678,-0.124750282,3.12801138,0.1388608539999999
724,1778412892710,-0.6393936688888888,0.0453820515555555,-0.2568137655555555,-0.06207735,3.0587413,0.15400986
725,1778412892720,-0.5958985733333333,0.0739575666666666,-0.32509012,0.011224318,2.95673,0.14912309
726,1778412892730,-0.5749542599999999,0.1071830799999999,-0.379711196,0.00419957496,2.85104565,0.0802195148
727,1778412892740,-0.5718321,0.11772028,-0.4361535,-0.02481567,2.7996657,0.022066858
728,1778412892750,-0.584906065,0.121257076,-0.440007375,-0.0585344402,2.7432844899999997,-0.0184857649999999
729,1778412892760,-0.5822392611111111,0.1229509444444444,-0.475573121111111,-0.0717830355555555,2.658424244444445,-0.0872154177777777
730,1778412892770,-0.5822663622222222,0.1193734966666666,-0.5204978266666667,-0.09791372,2.6046017666666668,-0.14802866
731,1778412892780,-0.627112812,0.1154274669999999,-0.54156516,-0.124078345,2.51940893,-0.19724259
732,1778412892790,-0.6325979,0.10723186,-0.54670876,-0.10911259,2.4356008,-0.21990502
733,1778412892800,-0.6325979,0.10723186,-0.54670876,-0.0865791133333333,2.4110990222222224,-0.2226877688888889
734,1778412892810,-0.644013188,0.0961641474999999,-0.512728108,0.0819604325,2.22210954,-0.2451940989999999
735,1778412892820,-0.5961187555555555,0.0928915955555555,-0.5652192755555555,0.0995935588888888,2.2355821777777773,-0.2737274533333333
736,1778412892830,-0.6104048644444444,0.0835346862222222,-0.6665091022222223,0.0926706233333333,2.2132524,-0.3526624866666666
737,1778412892840,-0.6489403,0.039118133,-0.70751077,0.05764871,2.1875968,-0.38239038
738,1778412892850,-0.6627893333333333,0.0212851173333333,-0.7149332822222222,0.0519474689999999,2.1286839444444445,-0.3790646644444444
739,1778412892860,-0.6667462,0.01618997,-0.717054,0.050318543,2.1118517,-0.37811446
740,1778412892870,-0.6667462,0.01618997,-0.717054,0.050318543,2.1118517,-0.37811446
741,1778412892880,-0.6652284933333333,-0.0133171708888888,-0.7674837888888889,-0.0092730003333333,1.9687777,-0.3293824244444444
742,1778412892890,-0.66479486,-0.034087352,-0.78782034,-0.039476003,1.8638477,-0.30175856
743,1778412892900,-0.66479486,-0.034087352,-0.78782034,-0.039476003,1.8638477,-0.30175856
744,1778412892910,-0.66479486,-0.034087352,-0.78782034,-0.039476003,1.8638477,-0.30175856
745,1778412892920,-0.63494252,-0.0539970546,-0.844070582,0.0148283190999999,1.81168132,-0.288930766
746,1778412892930,-0.6239218977777778,-0.0770200811111111,-0.9104901111111112,0.0775351877777777,1.6607749222222223,-0.2178688599999999
747,1778412892940,-0.6172006,-0.09241393,-0.935207,0.15680959,1.5288998,-0.20015429
748,1778412892950,-0.6172006,-0.09241393,-0.935207,0.21219307,1.430757,-0.17897825
749,1778412892960,-0.6172006,-0.09241393,-0.935207,0.21219307,1.430757,-0.17897825
750,1778412892970,-0.6164993911111111,-0.1977656111111111,-1.0784775555555557,0.3820764777777777,1.096691477777778,-0.0089506086666666
751,1778412892980,-0.624588262,-0.2294341219999999,-1.13315757,0.479499806,0.933527326,0.062627116
752,1778412892990,-0.6064683,-0.2319952399999999,-1.1924475,0.57381463,0.72828263,0.1466797
753,1778412893000,-0.5687188177777778,-0.2108015977777778,-1.2596906222222222,0.5971625666666667,0.5395987066666668,0.1690095588888888
754,1778412893010,-0.561173018,-0.195060152,-1.35796344,0.5177389,0.2729418332,0.163661252
755,1778412893020,-0.5671096611111112,-0.1729640133333333,-1.3757679555555553,0.3284576511111111,0.0433107691111111,0.1521773199999999
756,1778412893030,-0.5455562599999999,-0.1524966999999999,-1.3215831999999998,0.0800057199999999,-0.175969824,0.115892998
757,1778412893040,-0.5459465,-0.1419595,-1.2407736,-0.03581092,-0.28152424,0.09048175
758,1778412893050,-0.5768527444444445,-0.1459976822222222,-1.060116022222222,-0.1118274733333333,-0.4195078411111111,0.0627900083333333
759,1778412893060,-0.6064683,-0.15147226,-0.948409,-0.162744985,-0.5900021,0.0488830515
760,1778412893070,-0.6544690666666667,-0.14326039,-0.8471937233333333,-0.1457634244444444,-0.6959501377777778,0.0838303027777777
761,1778412893080,-0.6662854888888889,-0.1344251855555555,-0.7952394988888889,-0.1254018577777778,-0.7425781622222222,0.1151871333333333
762,1778412893090,-0.6706489,-0.13537374,-0.76998395,-0.09933904,-0.7659261,0.14179292
763,1778412893100,-0.6706489,-0.13537374,-0.76998395,-0.09933904,-0.7659261,0.14179292
764,1778412893110,-0.68420152,-0.1297484219999999,-0.751080395,-0.007406525,-0.7964684500000001,0.19493663
765,1778412893120,-0.6982419711111112,-0.1207895726666666,-0.7395485422222223,0.1270138144444444,-0.858096148888889,0.2707495622222222
766,1778412893130,-0.6940954,-0.11192726,-0.7653495,0.2757212,-0.96689487,0.35009184
767,1778412893140,-0.677429766,-0.0870416639999999,-0.8085044800000001,0.33314082,-1.0615761,0.39040774
768,1778412893150,-0.6663667855555555,-0.0678562577777777,-0.8268232888888889,0.3464437177777777,-1.1709857,0.3982808866666666
769,1778412893160,-0.64967203,-0.03945352,-0.8500496,0.34657946,-1.2478846,0.401403
770,1778412893170,-0.604559653,-0.0017409549999999,-0.866230436,0.312494179,-1.31110735,0.361575774
771,1778412893180,-0.5782857800000001,0.0323155708888888,-0.9259923622222224,0.2288216811111111,-1.3556652666666666,0.2763829266666666
772,1778412893190,-0.61378586,0.031556718,-0.94496363,0.09307785,-1.3871578,0.2242573
773,1778412893200,-0.6231122466666668,0.0245644413333333,-0.92007738,-0.0155935744444444,-1.4242837333333334,0.2069499622222222
774,1778412893210,-0.64796466,0.005701552,-0.8244079,-0.2417428,-1.5197116,0.17294613
775,1778412893220,-0.638759835,-0.00166473151,-0.702400755,-0.236550598,-1.57670368,0.171785518
776,1778412893230,-0.6364565177777778,0.0045090701777777,-0.6023928888888889,-0.1465015411111111,-1.6829436,0.1526524299999999
777,1778412893240,-0.65259904,-0.0018598646,-0.5884185,0.000839915,-1.786041,0.11796988
778,1778412893250,-0.65259904,-0.0018598646,-0.5884185,0.058320642,-1.82739537,0.1179698778
779,1778412893260,-0.6899488,-0.0294529389999999,-0.61942637,0.18531579,-1.9338660000000003,0.13996038
780,1778412893270,-0.700772567,-0.0268430287,-0.609687987,0.2677801709999999,-2.04033678,0.1971356849999999
781,1778412893280,-0.6656621577777777,-0.0226503724444444,-0.593276488888889,0.3883885888888889,-2.168363444444444,0.2114973788888888
782,1778412893290,-0.6601605,-0.023598937,-0.6094258,0.4437042,-2.21791,0.20471019
783,1778412893300,-0.6601605,-0.023598937,-0.6094258,0.4437042,-2.21791,0.20471019
784,1778412893310,-0.6994310422222223,-0.0476653841111111,-0.6946611155555557,0.3926644933333333,-2.337907511111111,0.2063391144444444
785,1778412893320,-0.6941665,-0.0533567726666666,-0.6679861500000001,0.27511034,-2.4135848666666666,0.2238500733333333
786,1778412893330,-0.6811373,-0.055795938,-0.64211065,0.20791714,-2.454308,0.23280916
787,1778412893340,-0.65552604,-0.043356188,-0.56744164,0.21219307,-2.5912142,0.22059222
788,1778412893350,-0.641525227,-0.0392096055999999,-0.487565016,0.358429906,-2.78967842,0.173984576
789,1778412893360,-0.6463927,-0.0422992176666666,-0.4504632522222222,0.5115082277777777,-2.974351022222222,0.1374491244444444
790,1778412893370,-0.6717871666666667,-0.055714632,-0.4605451733333333,0.5931580999999999,-3.1026968666666668,0.1454580033333333
791,1778412893380,-0.67584432,-0.0682356862,-0.479424317,0.552434965,-3.13718936,0.198051947
792,1778412893390,-0.6606483,-0.06140602,-0.4790828499999999,0.47546825,-3.139755,0.25235626
793,1778412893400,-0.6063395566666666,-0.0353340396666666,-0.4136352477777777,0.4068497233333333,-3.1971745666666664,0.2672202133333333
794,1778412893410,-0.59597987,-0.035550855,-0.39563283,0.36246148,-3.2619242999999996,0.25907558
795,1778412893420,-0.6596692188888889,-0.0656643961111111,-0.3800729844444445,0.3619185044444444,-3.298235788888889,0.2776724877777778
796,1778412893430,-0.6622405466666668,-0.0770946055555555,-0.3306053266666666,0.3642261477777778,-3.608817777777778,0.4343887644444444
797,1778412893440,-0.62768906,-0.04481969,-0.28239453,0.4174377299999999,-3.769538400000001,0.49791688
798,1778412893450,-0.4936568566666666,0.0113150226666666,-0.2112182911111111,0.5019382688888888,-3.873043066666667,0.4582118077777777
799,1778412893460,-0.3865347609999999,0.0523902526,-0.193721673,0.61290884,-3.9863892,0.21020782
800,1778412893470,-0.57815366,-0.0260279393333333,-0.1853360133333333,0.4742465466666666,-4.005461211111111,0.1832626633333333
801,1778412893480,-0.6683723333333333,-0.1011136216666666,-0.0634081733333333,0.2569885355555555,-4.053039333333333,0.2900251866666667
802,1778412893490,-0.55286762,-0.09977411963,-0.08771549,0.17676392,-4.19090066,0.455646232
803,1778412893500,-0.39161839,0.0222167458,0.2055505999999999,0.2844766533333333,-4.344752966666666,0.52296162
804,1778412893510,-0.26504597,0.0693943,0.31895152,0.44614756,-4.3895483,0.47287214
805,1778412893520,-0.282614048,0.0853464428,0.219024966,0.5925676599999999,-4.4542373,0.35009182
806,1778412893530,-0.3283558766666667,0.0829757057777777,0.1598501083333333,0.5287477222222221,-4.531672244444445,0.2911790066666666
807,1778412893540,-0.24919137,0.12333036,0.111256495,0.3068744,-4.5886846,0.29450473
808,1778412893550,-0.10882038,0.1904470979999999,0.344907328,-0.0033138455999999,-4.64915866,0.234641707
809,1778412893560,-0.05860098,0.22290936,0.6144871,-0.1738624,-4.7346773,0.119802415
810,1778412893570,-0.081431586,0.1840259759999999,0.771310237,-0.05505261,-4.72869076,-0.0007788306
811,1778412893580,-0.1995644866666666,0.14154281,0.8061344333333333,0.2996799688888888,-4.727821955555555,-0.1392053044444444
812,1778412893590,-0.19086479,0.1230864477777777,0.6766891833333333,0.3579819377777777,-4.713229766666667,-0.1523724555555555
813,1778412893600,-0.191377018,0.0991978655,0.7279571060000001,0.1542847488,-4.6347425,-0.151978795
814,1778412893610,-0.2088096144444444,0.0636215975555555,0.8383687222222221,0.044820916,-4.4970574,-0.12888877
815,1778412893620,-0.2190744433333333,0.0393857688888888,0.9450144866666668,0.0911095686666666,-4.385747755555555,-0.0521765364444444
816,1778412893630,-0.163488193,0.032468359,0.93270378,0.318724836,-4.3973674,0.0165692324
817,1778412893640,-0.0938232217777777,0.0591294687777777,0.9053407333333332,0.39789063,-4.460407,0.031229567
818,1778412893650,0.0198426219,0.121671737,1.00702821,0.472291835,-4.56113534,0.04301891826
819,1778412893660,0.0777552164444444,0.1448763366666666,1.0811267,0.5689279,-4.5483685,-0.0005344914
820,1778412893670,0.0043227457777777,0.1366373811111111,1.1119280333333337,0.7128163666666666,-4.438348366666667,-0.0709940277777777
821,1778412893680,-0.0233977062,0.126598852,1.11472966,0.79634633,-4.34568969,-0.0557703536
822,1778412893690,-0.027349155,0.1062562,1.0579276,0.8352573,-4.291813,-0.030542362
823,1778412893700,-0.0003455479999999,0.12650129,1.1548506555555555,0.8451665788888889,-4.174122888888889,0.0563252045555555
824,1778412893710,0.0243886189,0.130623481,1.2113908800000002,0.858286226,-4.05810256,0.105814011
825,1778412893720,0.0307233379999999,0.137569,1.189540933333333,0.8774736,-3.816234333333333,0.1760682388888889
826,1778412893730,0.147749482,0.1795684,1.1101500999999998,0.8771613800000001,-3.7038112399999994,0.258709078
827,1778412893740,0.3035746333333333,0.25942571,1.1579638666666667,0.8150993,-3.7463262,0.30611083
828,1778412893750,0.3765463511111111,0.3106685411111111,1.2609578,0.8405512733333333,-3.8081575222222224,0.2343023355555555
829,1778412893760,0.39410836,0.31196943,1.2843738,0.95131826,-3.755488900000001,0.09964446
830,1778412893770,0.29957033,0.3077245966666667,1.173838788888889,1.0305926244444443,-3.7463941333333337,0.0354376247777777
831,1778412893780,0.3607730877777778,0.3399148033333333,0.9987743444444444,0.9605488444444444,-3.7670271,-0.0072707788333333
832,1778412893790,0.384254126,0.35112414,0.95536674,0.59702684,-3.84613864,-0.094070478
833,1778412893800,0.3760348244444444,0.3274174933333333,1.0632463555555554,0.1000686555555555,-3.893404711111112,-0.1725304166666666
834,1778412893810,0.4109691,0.29465136,1.2036068,-0.10850175,-3.875826,-0.19058435
835,1778412893820,0.5027461288888888,0.2556212755555556,1.403544,-0.2878787366666666,-3.7616654,-0.23402237
836,1778412893830,0.58911973,0.19409668,1.5816472,-0.39201123,-3.464115,-0.34329617
837,1778412893840,0.595769515,0.176525539,1.63099453,-0.301651644,-3.32985058,-0.417697359
838,1778412893850,0.54346666,0.1234929866666666,1.616212166666667,-0.06207735,-3.1263163,-0.55281675
839,1778412893860,0.4927117,0.09942654,1.5438095,0.16271444,-3.095774,-0.55770355
840,1778412893870,0.50083411,0.064494615,1.41840593,0.283112426,-3.1177644200000003,-0.5318646850000001
841,1778412893880,0.4657453411111111,0.0280063773333333,1.326174888888889,0.22074494,-3.1933057999999996,-0.4809404133333333
842,1778412893890,0.46441734,0.038630303,1.3827331,0.14377818,-3.2100024,-0.4434751
843,1778412893900,0.464383801,0.01109211088,1.56453638,0.0343143453999999,-3.04678392,-0.402426174
844,1778412893910,0.41194475,0.041313387,1.6777807,0.016721943,-2.875258,-0.37506023
845,1778412893920,0.4009075219999999,0.0636866456,1.74168084,0.01574458788,-2.63162164,-0.405602586
846,1778412893930,0.3780030888888889,0.0421501571111111,1.779473711111111,0.0038941511999999,-2.4152138,-0.4495836
847,1778412893940,0.33529395,0.026190553,1.7954096000000002,-0.0216256897333333,-2.222728988888889,-0.4491763688888889
848,1778412893950,0.182333804,-0.0565886719999999,1.9741701,-0.102393277,-1.56888479,-0.360094466
849,1778412893960,0.11909231,-0.09290177,2.0585043,-0.04741702,-1.0658522,-0.21440738
850,1778412893970,0.080207932,-0.1267452033333333,1.996346233333333,0.1278961444444444,-0.6415847977777778,-0.0633244977777777
851,1778412893980,0.0741110279,-0.1007863674,1.76530734,0.410351906,-0.249576926,0.198212296
852,1778412893990,0.1604870111111111,-0.0247575413333333,1.549738111111111,0.5389963111111111,-0.0886322422222222,0.3294587722222222
853,1778412894000,0.31403358,0.098194752,1.3893554499999998,0.59928697,0.136990138,0.463098576
854,1778412894010,0.3731315,0.1562896,1.3187965,0.5689279,0.25548688,0.47592637
855,1778412894020,0.4090990533333333,0.1995441633333333,1.2049077333333331,0.4701742233333333,0.38274671,0.4150452733333333
856,1778412894030,0.4152132219999999,0.204829035,1.15674129,0.423179708,0.368249264,0.32553578
857,1778412894040,0.41657916,0.20653644,1.1179615,0.3727101522222222,0.3315712822222222,0.22507176
858,1778412894050,0.3905309088888888,0.2110421211111111,0.9944821111111112,0.1790036946666666,0.2764593044444444,0.1357523186666666
859,1778412894060,0.37459502,0.2148601,1.002284,-0.016263809,0.2622062,0.091092594
860,1778412894070,0.3664644755555555,0.1920200088888889,1.1375832888888888,-0.1859181484444444,0.3302138511111111,0.0861379451111111
861,1778412894080,0.3399182166666666,0.1524546955555555,1.2796986888888888,-0.34538322,0.4641930166666666,0.0847805066666666
862,1778412894090,0.306219086,0.133038256,1.31430846,-0.29610822,0.51876205,0.09292514
863,1778412894100,0.30187737,0.1465126133333333,1.3192029666666665,-0.0706970852222222,0.4821790822222223,0.1248928177777777
864,1778412894110,0.323296285,0.158216543,1.29884101,0.0778066696,0.4311054549999999,0.1200467605
865,1778412894120,0.3376721533333333,0.1796243033333333,1.2516786666666666,0.1318327144444444,0.4688761833333333,0.0794865026666666
866,1778412894130,0.32334206,0.18775485,1.1872644,0.0240521133333333,0.5873805466666666,0.065844244
867,1778412894140,0.3150976499999999,0.207365752,1.18497152,-0.186957441,0.752044587,0.0640931455
868,1778412894150,0.2937061522222222,0.1716428088888889,1.2626617777777778,-0.37429667,0.91581273,0.066658705
869,1778412894160,0.28013828,0.14967337,1.3102595,-0.4275761144444445,0.9911505466666666,0.0832873244444444
870,1778412894170,0.275308736,0.120979621,1.3705830799999998,-0.4527905259999999,1.18428009,0.125177871
871,1778412894180,0.2589446333333333,0.08925995,1.4316282444444444,-0.3877353,1.3415732,0.15217732
872,1778412894190,0.24784372,0.09521287,1.4308152399999998,-0.293405212,1.40913298,0.1764890519999999
873,1778412894200,0.2486764255555555,0.1122186066666666,1.4264518,-0.1469851133333333,1.527338766666667,0.2374923222222222
874,1778412894210,0.29748687,0.14040454,1.4149606,-0.09139802,1.6195087,0.2474695
875,1778412894220,0.29748687,0.14040454,1.4149606,-0.09139802,1.6195087,0.2474695
876,1778412894230,0.2932013888888889,0.1408381644444444,1.3516337444444444,-0.12663203,1.9392534444444445,0.2087825077777777
877,1778412894240,0.2572914333333334,0.1238724,1.2103720999999998,-0.3138227788888889,2.2279805,0.2160448022222222
878,1778412894250,0.261603682,0.1148664579999999,1.19297505,-0.431471972,2.28227796,0.231953984
879,1778412894260,0.31870762,0.12650128,1.2377856,-0.5477773,2.3311458,0.2358634
880,1778412894270,0.30015471,0.11209495,1.2890234,-0.605196938,2.3990109,0.210024563
881,1778412894280,0.2786748,0.0960083055555555,1.3415112666666669,-0.7046293,2.5806429333333334,0.1434218533333333
882,1778412894290,0.2552588,0.08256579,1.3515118,-0.7084301,2.6072488,0.14179292
883,1778412894300,0.235160064,0.0531006588,1.3544388399999998,-0.70018367,2.69521084,0.171480095
884,1778412894310,0.22839747,0.038630303,1.3549267,-0.697095488888889,2.7201876,0.1796654522222222
885,1778412894320,0.2250097422222222,0.035838812,1.3151987333333333,-0.6878649111111111,2.783325511111111,0.1956153555555555
886,1778412894330,0.2296170599999999,0.038386386,1.2897704,-0.67910945,2.876098,0.21937053
887,1778412894340,0.2109167733333333,0.0365163586666666,1.2678686666666663,-0.6967561833333333,2.896731022222222,0.2100041977777778
888,1778412894350,0.1743225022222222,0.0310417844444444,1.2816432444444446,-0.7707365211111111,2.9549650666666665,0.1851630755555555
889,1778412894360,0.15665549,0.026678385,1.3053811,-0.79211617,2.991548,0.18943901
890,1778412894370,0.1584442122222222,0.0290633485555555,1.3303215666666666,-0.7738586377777777,3.022158277777778,0.1974478922222222
891,1778412894380,0.1656804,0.039849885,1.3702934,-0.7420267,3.039194,0.19493663
892,1778412894390,0.1312237799999999,0.0291886963111111,1.3599032222222225,-0.6711684,3.1236268444444444,0.1694167922222222
893,1778412894400,0.060105133,-0.0018598646,1.2880528,-0.6083868944444445,3.255501988888889,0.16032195
894,1778412894410,0.0170741678,-0.0191474586,1.24881066,-0.6164365039999999,3.3206726000000004,0.218148828
895,1778412894420,-0.0021816987777777,-0.0235176321111111,1.225684611111111,-0.6387935066666667,3.3926711,0.2635551466666667
896,1778412894430,-0.0221456004444444,-0.0210242618888888,1.211493422222222,-0.6584763555555555,3.4568780111111113,0.2999344977777778
897,1778412894440,-0.0317884396,-0.0066589254,1.21999806,-0.548510288,3.5052706,0.3502140099999999
898,1778412894450,-0.01978774,0.010335969,1.2182418,-0.4606297377777777,3.5196594444444447,0.3531460855555555
899,1778412894460,-0.0029574896,0.03936205,1.0989056,-0.39078954,3.5058815,0.31038678
900,1778412894470,-0.03672774976,0.0350691179999999,1.06581832,-0.378267165,3.4798594,0.2757517319999999
901,1778412894480,-0.0899307148888888,0.0277624606666666,1.0152659333333334,-0.3487089433333333,3.4182589333333335,0.2093254777777777
902,1778412894490,-0.1212235337999999,0.0228001113,1.00020166,-0.349618431,3.43080824,0.1885838189999999
903,1778412894500,-0.1735839755555555,0.0181955067777777,0.9410440444444446,-0.3628941666666667,3.5180984000000004,0.1639870366666666
904,1778412894510,-0.20720722,0.006677219,0.8895336,-0.3877353,3.6011736000000005,0.15584241
905,1778412894520,-0.26986635,0.0002866020999999,0.821380238,-0.439840568,3.60349488,0.200373174
906,1778412894530,-0.2596798,0.005945469,0.7599224,-0.4738647599999999,3.5468082,0.24930204
907,1778412894540,-0.2475381577777778,0.0193608852222222,0.7852693633333333,-0.4754936844444444,3.499569355555556,0.2525598888888888
908,1778412894550,-0.256899144,0.0375570708,0.875941296,-0.312417833,3.36355408,0.227494795
909,1778412894560,-0.2395871633333333,0.0624731573333333,0.8514419433333332,-0.23074755,3.3104103,0.21692713
910,1778412894570,-0.216287026,0.109378328,0.780332104,-0.0812808627499999,3.2220207700000003,0.1195428071999999
911,1778412894580,-0.2404374755555555,0.1182352188888888,0.6622912933333334,-0.04253024,3.2303894,-0.025655584
912,1778412894590,-0.3226373777777778,0.1087902277777777,0.5642232888888888,-0.2123712311111111,3.2911346999999997,-0.1151786426666666
913,1778412894600,-0.394102264,0.0756385639999999,0.54970281,-0.407648916,3.32812496,-0.1870414249999999
914,1778412894610,-0.4369360566666667,0.0394636853333333,0.5752672999999999,-0.49829865,3.3495045,-0.21013145
915,1778412894620,-0.4477225922222222,0.0183581173333333,0.5563366555555556,-0.5154023611111112,3.3562917,-0.2125748455555555
916,1778412894630,-0.439757375,0.0123604773,0.523933014,-0.54814376,3.34706116,-0.227968202
917,1778412894640,-0.4918240866666667,-0.0210378118888888,0.5237974955555555,-0.6233187133333333,3.2808861333333335,-0.2966681433333333
918,1778412894650,-0.55210235,-0.0619029991,0.541918828,-0.693769786,3.3134646000000005,-0.326070252
919,1778412894660,-0.6262357333333334,-0.10884781,0.5672180866666667,-0.7271627611111111,3.4663121111111113,-0.2376195755555555
920,1778412894670,-0.6638192,-0.13098325,0.57372254,-0.6803311533333333,3.5451792666666666,-0.1301104646666666
921,1778412894680,-0.630372126,-0.1062897375,0.515639817,-0.592491316,3.5320258000000004,-0.0310157683999999
922,1778412894690,-0.5560012599999999,-0.0495625116666666,0.5003543866666667,-0.4689779766666666,3.4464257000000003,0.0116824540333333
923,1778412894700,-0.5659883,-0.0373124747777777,0.4801770755555555,-0.3548174188888889,3.478732788888889,0.0006872031222222
924,1778412894710,-0.5889063,-0.036770437,0.43950737,-0.31443363,3.5242069000000003,0.0037414394
925,1778412894720,-0.5899361811111111,-0.01942864,0.3547666266666666,-0.3329626588888889,3.5726674333333333,0.0291934085333333
926,1778412894730,-0.59963864,-0.013080033,0.3333426,-0.36269057,3.6329377,0.04344651
927,1778412894740,-0.638668379,-0.01085124332,0.293511015,-0.309974439,3.69579393,0.102881947
928,1778412894750,-0.6447937333333332,-0.0007215868333333,0.2325440566666666,-0.2541633533333333,3.7131622666666666,0.1637834233333333
929,1778412894760,-0.646745,0.0005793021,0.2252265699999999,-0.228915,3.719678000000001,0.19432579
930,1778412894770,-0.6072576444444445,0.0223217633666666,0.2007197077777777,-0.143481228,3.6995879333333335,0.2152303388888888
931,1778412894780,-0.5572479666666666,0.039301075,0.1529865733333333,-0.014431266,3.673253499999999,0.21020782
932,1778412894790,-0.556239785,0.0386394515,0.0554361639999999,0.1129303884,3.6305554,0.1482679
933,1778412894800,-0.5643316866666667,0.0511005433333333,-0.1235133033333333,0.1570131966666667,3.5406999,0.0705274093333333
934,1778412894810,-0.59280896,0.04183171,-0.14009963,0.08330429,3.5211527,0.033062108
935,1778412894820,-0.613590666,0.0234129511999999,-0.1271964466,0.0118962495,3.5575592,0.0226166201
936,1778412894830,-0.6093953,0.023751386,-0.13888006,-0.027055442,3.586920644444445,0.0160262568444444
937,1778412894840,-0.6140873222222223,0.0211767104444444,-0.2073867666666666,-0.0966326388888888,3.6287974777777783,-0.0016883139666666
938,1778412894850,-0.6232193,0.0118970348,-0.262570196,-0.20668017,3.664823900000001,0.0174244185
939,1778412894860,-0.5813347333333333,0.0339145793333333,-0.29842187,-0.2224671822222222,3.658321755555556,0.0210996833333333
940,1778412894870,-0.57244804,0.03199577,-0.346965354,-0.22769332,3.631716,-0.012216945
941,1778412894880,-0.589882,0.02716622,-0.36803976,-0.1854685,3.599952,-0.03970507
942,1778412894890,-0.5919688333333333,0.0481464422222222,-0.48858205,-0.0888188871111111,3.412353988888889,-0.0561300755555555
943,1778412894900,-0.58439385,0.0440269575,-0.5260673,0.0036498119,3.21010924,-0.086862479
944,1778412894910,-0.5674619555555556,0.0419604404444444,-0.5520511666666666,0.0576487087777777,3.1137176333333336,-0.1054050833333333
945,1778412894920,-0.5347263333333333,0.0235074676666666,-0.6196601133333333,0.0727841444444444,3.076727366666667,-0.15121863
946,1778412894930,-0.5186278,0.004481969,-0.66263014,0.064978875,3.0892837,-0.17225893
947,1778412894940,-0.5362440111111112,-0.0249506423333333,-0.7889721955555555,0.0408843461111111,3.007294422222222,-0.1833220455555555
948,1778412894950,-0.5820055222222222,-0.0555791215555555,-0.9010959555555556,0.021201491,2.903967866666667,-0.16961192
949,1778412894960,-0.603931574,-0.0729249848,-0.92818222,0.0043828290399999,2.7835393,-0.1230246359999999
950,1778412894970,-0.5754875288888889,-0.0793237355555555,-0.9412812333333334,0.0005684272888888,2.6695552888888887,-0.0495380153999999
951,1778412894980,-0.5227744,-0.07412018,-0.9820695,0.01305686,2.58648,-0.0011453386
952,1778412894990,-0.4894120177777778,-0.0756717566666666,-1.0420052555555557,0.0773315661111111,2.4632246222222225,0.0252568377777777
953,1778412895000,-0.47444844,-0.10314626,-1.1426581,0.1483934622222222,2.3457382,0.0444645916666666
954,1778412895010,-0.47449718,-0.1314954719999999,-1.29683786,0.205290491,2.10714815,0.1006828995
955,1778412895020,-0.4834733133333333,-0.14578086,-1.3854874,0.22827871,1.9047744333333336,0.13609168
956,1778412895030,-0.48932734,-0.15635058,-1.4420964,0.24945475,1.7215203,0.16500512
957,1778412895040,-0.48176286,-0.161594787,-1.47912598,0.2632598929999999,1.43094029,0.202450055
958,1778412895050,-0.4449582333333333,-0.15410113,-1.4902867555555557,0.3022591133333333,0.8407464088888889,0.2497771455555555
959,1778412895060,-0.4337109533333333,-0.1530983722222222,-1.475434988888889,0.33191912,0.6377330133333333,0.2455690844444444
960,1778412895070,-0.454618004,-0.14625243,-1.46242066,0.3886057639999999,0.132385876,0.2124068659999999
961,1778412895080,-0.4671309,-0.14488651,-1.4606645,0.3807869,-0.10560022,0.19921257
962,1778412895090,-0.478155963,-0.1261689495,-1.42597649,0.2344890012,-0.473024848,0.1582857935
963,1778412895100,-0.47444843,-0.1163177633333333,-1.2976976666666666,0.0487574904444444,-0.7760390333333334,0.0904817478888889
964,1778412895110,-0.4921798055555555,-0.1248887155555555,-1.1845745333333335,-0.015042114,-0.8795437,0.053830914
965,1778412895120,-0.55802951,-0.148398899,-1.09151802,-0.0977737422,-1.00721073,0.025609771456
966,1778412895130,-0.6067122,-0.16513158,-1.0342982,-0.1873774,-1.1348778,0.03061872
967,1778412895140,-0.6485337933333333,-0.1814841666666666,-0.8852650666666667,-0.1938082655555555,-1.1942658,0.0947576816666666
968,1778412895150,-0.668795101,-0.190739785,-0.819895378,-0.1244448660999999,-1.25741384,0.184002464
969,1778412895160,-0.68113728,-0.1787096066666666,-0.7822001066666666,-0.0183678387777777,-1.3424980555555557,0.2591434711111111
970,1778412895170,-0.6714619333333334,-0.1583019166666666,-0.7647905666666666,0.1445247666666666,-1.470300877777778,0.3263366777777777
971,1778412895180,-0.6628436,-0.14708175,-0.7885521,0.26900187,-1.5667468,0.3586437
972,1778412895190,-0.6625183444444445,-0.1279376788888889,-0.8352993777777777,0.3361271799999999,-1.6691655555555556,0.4138235711111111
973,1778412895200,-0.6530869,-0.11143943,-0.8705386,0.356353,-1.7371732000000002,0.46065518
974,1778412895210,-0.5852204866666667,-0.0491559832222222,-0.8957196433333334,0.2928249,-1.7823758999999997,0.4869216
975,1778412895220,-0.5871718111111112,-0.0491830855555555,-0.8991818433333333,0.1230093692222222,-1.815090188888889,0.4506780099999999
976,1778412895230,-0.6032974,-0.04994194,-0.85419625,-0.018707197,-1.8520125,0.43927553
977,1778412895240,-0.6135249833333334,-0.0523269027777777,-0.8270841711111111,-0.1476214166666666,-1.8906995333333336,0.4354068333333333
978,1778412895250,-0.6325166,-0.0602677477777777,-0.7798761155555556,-0.2415391866666666,-1.9456758,0.4358140666666666
979,1778412895260,-0.6403758359999999,-0.0596254375,-0.73185366,-0.2533489,-1.9717385999999997,0.4398863999999999
980,1778412895270,-0.6087719777777778,-0.0220676836666666,-0.6239117288888889,-0.1604746613333333,-2.1792230666666668,0.4219682
981,1778412895280,-0.60524875,-0.011616532,-0.59963864,-0.088343784,-2.2557826,0.3910186
982,1778412895290,-0.613108964,-0.0124001143,-0.5979556159999999,-0.0561521336999999,-2.2977554299999996,0.381794807
983,1778412895300,-0.6569895766666667,-0.0180498336666666,-0.5905425666666667,0.1264708344444444,-2.542617744444444,0.3395716855555555
984,1778412895310,-0.66089225,-0.023598937,-0.6050353,0.1492758,-2.5948792,0.33909658
985,1778412895320,-0.6631687655555556,-0.0335724192222222,-0.5616317,0.0993899417777777,-2.6887459333333332,0.3662453544444444
986,1778412895330,-0.66479486,-0.039209604,-0.5286284,0.045431767,-2.7054424,0.38796437
987,1778412895340,-0.673069752,-0.02502889928,-0.4869247579999999,-0.0268925502,-2.6961576000000003,0.442574116
988,1778412895350,-0.6633043,0.0065417096444444,-0.4026793399999999,-0.0696111356666666,-2.724989666666666,0.49608433
989,1778412895360,-0.6512710333333334,0.0227011887777777,-0.3682532044444444,-0.0125308522222222,-2.7879747444444445,0.4826456777777778
990,1778412895370,-0.64937933,0.039136431,-0.33847706,0.1594769462,-2.9505144000000003,0.423515671
991,1778412895380,-0.6599165,0.034727637,-0.335111,0.24029204,-3.0206397,0.39957047
992,1778412895390,-0.6857920166666667,0.0172469414999999,-0.3715460633333333,0.27857179,-3.068082066666667,0.4136199466666667
993,1778412895400,-0.69237577,0.0046283189,-0.451855612,0.1977770635999999,-3.08978748,0.4661528
994,1778412895410,-0.6427475555555555,0.0308656225555555,-0.4709963055555556,-0.004861324,-3.086000266666667,0.5144097466666666
995,1778412895420,-0.5887911444444445,0.061101127,-0.4121277088888889,-0.1630792444444444,-3.110502055555555,0.5275090633333333
996,1778412895430,-0.5593619,0.061101127,-0.32803744,-0.2625116,-3.1501393,0.47592637
997,1778412895440,-0.5805148777777778,0.0488375372222222,-0.2994043377777778,-0.2647513744444444,-3.1518361,0.4744331877777777
998,1778412895450,-0.6075415,0.0338983167999999,-0.249599942,-0.28266957,-3.1654105,0.46248773
999,1778412895460,-0.5890960166666667,0.0408153881111111,-0.1721374166666666,-0.0794610488888888,-3.386808655555556,0.5252692333333333
1000,1778412895470,-0.5858980166666666,0.0464661238333333,-0.163744315,0.011224318,-3.4818294,0.5345677
