id,timestamp,acc_x,acc_y,acc_z,gyro_x,gyro_y,gyro_z
0,1778289945110,0.021947145,0.031777475,0.94839513,0.08421326,-0.36901855,-0.018722534
1,1778289945120,0.055382715,0.0420277716666666,1.01396491,0.0135447199999999,-0.2053222633333333,-0.014816284
2,1778289945130,0.0710564577777777,0.033960265,1.0706671666666667,-0.0263468424444444,0.0459764277777777,-0.0373111303333333
3,1778289945140,0.0555729942222222,0.0224352056666666,1.0657319444444446,-0.0019039576666666,0.1121419255555555,-0.0502132844444444
4,1778289945150,0.0304899665,0.0143877465,1.039306275,0.0194931032499999,0.1203498814999999,-0.0532150275
5,1778289945160,0.0013656693333333,0.0242922193333333,0.9939926533333332,-0.003677368,0.1020151786666666,-0.0338083899999999
6,1778289945170,-0.0041424269,0.0255044192,0.990567254,-0.0232818598,0.1073791519999999,-0.0247863763999999
7,1778289945180,0.0011214664444444,0.0108821478888888,1.0116590200000002,-0.0471801757777777,0.0796491866666666,-0.0070054795555555
8,1778289945190,0.0151955339999999,0.0107464796666666,1.030804466666667,-0.039367676,0.0205230733333333,-0.0038096109999999
9,1778289945200,0.04842734,0.01904471,1.0565940333333337,-0.005101522,-0.1060740166666666,-0.0080668133333333
10,1778289945210,0.0472887653333333,-0.0017006053333333,1.059766166666667,0.0556284586666666,-0.28220113,-0.0300801606666666
11,1778289945220,0.0404958453333333,0.0128763848888888,1.0678882888888888,0.0904337583333333,-0.3537445033333333,-0.0403798433333333
12,1778289945230,0.035614727,0.0265302265,1.0723763,0.08634949,-0.330665585,-0.043754578
13,1778289945240,0.0371244696249999,0.03270781875,1.0926783875,0.059982300625,-0.222478865,-0.0457496635
14,1778289945250,0.041105404,0.030190935,1.1025167,0.051193237,-0.16495323125,-0.04681396375
15,1778289945260,0.0397507931111111,0.0265166588888888,1.1467044222222222,0.0727335615555555,-0.0004323333333333,-0.0566643604444444
16,1778289945270,0.0374727773333333,0.0228282111111111,1.159734455555555,0.0933922677777777,0.0732557511111111,-0.0547688803333333
17,1778289945280,0.0209027591111111,0.0108425711111111,1.1682217555555556,0.1422729466666666,0.1427900566666666,-0.0405036081111111
18,1778289945290,0.0087275288666666,0.009323778,1.1675166,0.1749369266666666,0.14196269,-0.0204976403333333
19,1778289945300,0.0067345025333333,0.0145303273333333,1.1672319666666668,0.1962415888888888,0.1270514611111111,-0.0074768068888888
20,1778289945310,0.0205505418888888,0.0288079832222222,1.1490239111111111,0.2426452655555555,0.0640801323333333,0.016555786
21,1778289945320,0.0236149157777777,0.0308416244444444,1.144386988888889,0.24560547,0.048692491,0.0175052216666666
22,1778289945330,0.0392606594999999,0.0479452224999999,1.1708522625,0.257858275,-0.023597718,0.01483917225
23,1778289945340,0.0545467791428571,0.0654743565714285,1.1873781428571426,0.29232788,-0.1210392557142857,-0.0054016111428571
24,1778289945350,0.0505512312,0.0694593739999999,1.21668666,0.33008423,-0.1709838899999999,-0.0268157955999999
25,1778289945360,0.0472081409999999,0.068141145,1.2566389999999998,0.37929535,-0.17167664,-0.034172058
26,1778289945370,0.0523741622222222,0.0707443322222222,1.2841494555555557,0.4232059055555555,-0.1573893255555555,-0.0394388833333333
27,1778289945380,0.0543372408571428,0.0710525787142857,1.3139581285714286,0.5101732628571428,-0.0823146268571428,-0.0542493544285714
28,1778289945390,0.0492812726666666,0.0687516493333333,1.3204601666666669,0.5776113,-0.0389658613333333,-0.0618591306666666
29,1778289945400,0.0518031477777777,0.0765077255555555,1.3150090666666665,0.664725411111111,-0.0190158422222222,-0.0614522298888888
30,1778289945410,0.055626916,0.087117415,1.3232667,0.7308273200000001,-0.0044250487999999,-0.0674591065
31,1778289945420,0.055871118,0.09327926,1.3302226,0.7675781,0.0032958984,-0.074645996
32,1778289945430,0.0703653264444444,0.0996793488888889,1.3615290111111111,0.891627,0.0143059627111111,-0.1019914417777777
33,1778289945440,0.0749344966666666,0.0997199622222222,1.376240111111111,0.960988377777778,0.0182715523333333,-0.1162516268888888
34,1778289945450,0.0594107664444444,0.0987433188888888,1.3709801111111113,1.0875786777777778,0.0711873353333333,-0.1368475999999999
35,1778289945460,0.0375128731111111,0.1030147077777777,1.3457605555555554,1.2124549333333334,0.09816657,-0.1495717344444444
36,1778289945470,0.0252825099999999,0.1048724133333333,1.3307100333333333,1.2744751333333335,0.0881601966666666,-0.1472676566666666
37,1778289945480,0.0068978226111111,0.1133740575555555,1.3240805444444446,1.416449688888889,0.0927242702222222,-0.1163720033333333
38,1778289945490,0.0117466227,0.1194428684,1.32009394,1.46704104,0.1101531976,-0.107138062
39,1778289945500,0.0378109966666666,0.1408703,1.3128536333333334,1.5569491999999998,0.2182532422222222,-0.1079644077777777
40,1778289945510,0.0534444715555555,0.1531680644444444,1.3138706555555557,1.7028333555555557,0.4718983988888888,-0.12128703
41,1778289945520,0.0544344178888888,0.1546324166666667,1.3095182000000003,1.7356787333333332,0.527765911111111,-0.1244252555555555
42,1778289945530,0.030814665,0.15498533,1.1867573333333334,1.9120330666666665,0.7365569999999999,-0.13021342
43,1778289945540,0.0261367894444444,0.1464297611111111,1.1190448444444443,1.9726884555555553,0.7680426666666667,-0.1241268577777777
44,1778289945550,0.0372010961111111,0.1546189344444444,1.0581928444444444,1.9707963666666664,0.7356126666666667,-0.1156090622222222
45,1778289945560,0.048233015,0.175526462,1.00787076,1.9507782,0.708718888,-0.1114013659999999
46,1778289945570,0.048428375,0.18675295,1.0080662,1.9452362,0.71595764,-0.11352539
47,1778289945580,0.0125239936666666,0.2158906833333333,1.0507762555555555,1.973821011111111,0.845982871111111,-0.1193915466666666
48,1778289945590,-0.027596994,0.23109002,1.0095303333333334,1.9961904,0.87930298,-0.1181488033333333
49,1778289945600,-0.04967117,0.2448116966666666,0.9579254644444444,1.9925113444444444,0.9348110633333332,-0.0858408605555555
50,1778289945610,-0.0562333633333333,0.2472519966666666,0.9281506777777776,1.9856482555555557,0.9180060388888888,-0.0638207332222222
51,1778289945620,-0.07006288,0.25362408,0.9011691,1.9782561999999997,0.878952,-0.044281006
52,1778289945630,-0.1159864933333333,0.2724577666666666,0.8848993,1.9851735666666663,0.6696268666666667,0.0435943603333333
53,1778289945640,-0.1225357255555555,0.2752779333333333,0.8735639888888889,1.995946277777778,0.6031697611111111,0.0664418537777777
54,1778289945650,-0.1270098433333333,0.29564304,0.8218503666666667,2.0462595666666665,0.3285624166666667,0.12776184
55,1778289945660,-0.1173696177777777,0.3105444244444444,0.7932822666666666,2.0697547,0.1884240022222222,0.148710461111111
56,1778289945670,-0.095505858,0.323364985,0.73588192,2.06784666,0.0514556889,0.159606934
57,1778289945680,-0.074781542,0.3611319133333333,0.6427538133333334,1.9724019666666668,-0.0765940328333333,0.1488850966666667
58,1778289945690,-0.06945315,0.376385,0.6142806,1.9292603,-0.12080383,0.1437378
59,1778289945700,-0.0569792786666666,0.4076526533333333,0.6430522799999999,1.7408243666666663,-0.4445885322222223,0.1209530288888888
60,1778289945710,-0.0557451296666666,0.4180794066666666,0.6666711666666667,1.692057266666667,-0.5280965,0.1137339253333333
61,1778289945720,-0.0755946868888888,0.4326550011111111,0.6941815666666666,1.6562448777777776,-0.5683983666666665,0.102730648
62,1778289945730,-0.0810589226666666,0.4362750088888888,0.6980463111111112,1.6492631666666666,-0.5696970599999999,0.1015438533333333
63,1778289945740,-0.0749844444444444,0.4411286488888888,0.6860065777777777,1.6369561444444445,-0.5373840355555556,0.1028408491111111
64,1778289945750,-0.0340781337777777,0.4850727044444444,0.6402587,1.5242699888888889,-0.3530392222222222,0.0804697668888888
65,1778289945760,-0.0307429408888888,0.4978721800000001,0.6469840555555555,1.4887644666666668,-0.3097178233333333,0.0700531
66,1778289945770,-0.0110986293399999,0.508957272,0.68442278,1.4313568,-0.143923952,0.053936768
67,1778289945780,0.0063815923777777,0.5258841333333333,0.6866709111111111,1.3999989666666666,0.0018785266666666,0.0306413444444444
68,1778289945790,0.008767971,0.53673136,0.673709,1.3907623,0.0501709,0.016433716
69,1778289945800,-0.0027294376888888,0.5600798044444445,0.6189031444444445,1.3675570888888888,0.09651184,-0.0116221108888888
70,1778289945810,-0.0101056421333333,0.5710214,0.5940635799999999,1.3538309666666666,0.0959777833333333,-0.0196075436666666
71,1778289945820,-0.0262679626666666,0.5791972777777779,0.5452256122222222,1.2732239,0.08674113,-0.0178273516666666
72,1778289945830,-0.0386333013333333,0.5838755222222223,0.5372127333333334,1.1967061777777777,0.0940229622222222,-0.0162963864444444
73,1778289945840,-0.044070211,0.5855432,0.5587331600000001,1.1267975199999998,0.1423187239999999,-0.01287231406
74,1778289945850,-0.0551480175555555,0.5648112333333334,0.6521365333333333,1.0173323,0.4468638066666666,0.0198703342666666
75,1778289945860,-0.0486528793333333,0.5730688777777778,0.6611663166666667,0.9943084888888888,0.5443403422222223,0.0359157984444444
76,1778289945870,-0.0411695211111111,0.6495408422222222,0.66659025,1.0142551222222222,0.6074829133333334,0.0902387833333333
77,1778289945880,-0.0299154522222222,0.6431137933333333,0.6443807444444444,1.0346137444444443,0.5100691055555555,0.131366306
78,1778289945890,-0.02112899,0.6311819,0.6264829,1.0445557,0.42674255,0.15385437
79,1778289945900,-0.0582256995555555,0.635493188888889,0.5931559,1.0436028555555557,0.4502987322222222,0.1401248522222222
80,1778289945910,-0.0994169973333333,0.6369573555555557,0.5451853555555556,1.0368516666666665,0.4833238377777778,0.1305406366666666
81,1778289945920,-0.1194436986666666,0.6549903666666667,0.5215522666666668,1.0037163577777777,0.3880360888888889,0.1843973766666666
82,1778289945930,-0.086805242,0.6702306950000001,0.52764048,0.996719364,0.3355560199999999,0.201473998
83,1778289945940,-0.04304019,0.7037339866666668,0.5313416333333334,0.9799262333333332,0.2860683777777777,0.1885375955555555
84,1778289945950,-0.032654222,0.7372787422222222,0.5571025355555556,0.9341227266666668,0.2582499133333333,0.1620279933333333
85,1778289945960,-0.040572407,0.740845,0.5757592533333333,0.9055379266666668,0.23978678,0.1481780999999999
86,1778289945970,-0.014878917,0.7268924555555556,0.5778471755555556,0.8990868555555556,0.1117231566666666,0.1483544277777777
87,1778289945980,0.0103812995555555,0.7293599,0.5660378055555556,0.9039391444444446,0.0425940613777777,0.1387719073333333
88,1778289945990,0.0304353113333333,0.7325466311111112,0.4926041111111111,0.8937598311111111,-0.1272006598666666,0.0843878851111111
89,1778289946000,0.0269100113333333,0.7455631533333333,0.4487281533333333,0.85884094,-0.1861470533333333,0.041656494
90,1778289946010,0.02377789,0.75211203,0.43660668,0.84321594,-0.19804382,0.026031494
91,1778289946020,-0.0736008027444444,0.7133204422222222,0.3615046977777778,0.6913028255555556,-0.3076409233333333,0.0336049387777777
92,1778289946030,-0.09849463,0.70366657,0.3437427,0.62431335,-0.35409546,0.04307556
93,1778289946040,-0.0534261544444444,0.7804634255555556,0.4615138133333333,0.5348866755555556,-0.2864566377777777,0.0605875644444444
94,1778289946050,-0.059055712,0.79099008,0.6279963919999999,0.482836914,-0.284857176,0.0928192112
95,1778289946060,-0.0666461166666666,0.7867681200000001,0.6727321666666666,0.51795451,-0.25644938,0.10716756
96,1778289946070,-0.0411691744444444,0.7771142555555556,0.6328428888888888,0.6590999933333334,-0.0861239955555555,0.1313730911111111
97,1778289946080,-0.0254676068888888,0.7770599888888889,0.5927086,0.6821814666666667,-0.0491977262222222,0.1319597044444444
98,1778289946090,-0.0391623235555555,0.7925849111111112,0.5490485111111112,0.6975759111111111,-0.0708058673333333,0.1322479211111111
99,1778289946100,-0.0661445744444444,0.792625,0.5377005955555556,0.7187042333333333,-0.1095631928888888,0.14036221
100,1778289946110,-0.0445586344444444,0.7900894888888889,0.5569538777777778,0.7331390333333334,-0.07854716,0.126520794
101,1778289946120,-0.02651094,0.80349838,0.564090035,0.748358152,0.0218353271,0.0973403948
102,1778289946130,-0.0319359582222222,0.8115131111111111,0.56042547,0.756342568888889,0.0637834337777777,0.0893419077777777
103,1778289946140,-0.05143347,0.8569352,0.5342292099999999,0.7931467666666667,0.0874582933333333,0.0981140166666666
104,1778289946150,-0.0437185272222222,0.8589825111111111,0.5240601377777777,0.8094261944444444,0.0502912728888888,0.0989396844444444
105,1778289946160,-0.0083424731412222,0.8546567088888889,0.4976616911111111,0.876356311111111,-0.0165252681111111,0.0587548133333333
106,1778289946170,0.0231681607489999,0.8875233133333333,0.4865158066666667,0.8964843666666668,0.0095163983333333,0.0127003983333333
107,1778289946180,0.0291202808888888,0.8969468,0.48128195,0.8992089188888889,0.0330708824444444,-0.0062425401111111
108,1778289946190,-0.0375419075,0.8447317999999999,0.4355691999999999,0.905633544,0.092892456,-0.00817565904
109,1778289946200,-0.059079975,0.8482704,0.41708133,0.90393066,0.11036682,-0.0022125244
110,1778289946210,-0.0740764166666666,0.8765813611111111,0.3686227166666667,0.8401980944444445,0.0641343869777777,0.0408749055555555
111,1778289946220,-0.068883347,0.8707640666666667,0.3530576666666667,0.7606608166666667,-0.0718078612666666,0.11977132
112,1778289946230,-0.062253058,0.8602286,0.3549698,0.7484131,-0.105895996,0.13894653
113,1778289946240,-0.0232580297777777,0.8885392088888888,0.36660272,0.70355225,-0.2934451633333333,0.1729753288888889
114,1778289946250,-0.0157872893333333,0.8971488666666667,0.3773680366666666,0.6902974433333333,-0.3488379611111111,0.1741621222222222
115,1778289946260,-0.0413862444444444,0.8904791111111111,0.4022348922222222,0.6842566444444445,-0.3462270133333333,0.1740400522222222
116,1778289946270,-0.0193956159599999,0.883170902,0.405196276,0.6824645979999999,-0.289013676,0.172717286
117,1778289946280,0.0064097624222222,0.8913332655555555,0.4014753333333333,0.6814676922222221,-0.2546149399999999,0.1561686211111111
118,1778289946290,0.0440883743333333,0.901868008888889,0.39843878,0.68395998,-0.1448364288888889,0.0612962522222222
119,1778289946300,0.0420137736666666,0.9017867733333332,0.3970694822222222,0.6850281,-0.1293335,0.04626465
120,1778289946310,-0.0267829843333333,0.9007024800000001,0.3522446866666666,0.6949666266666666,-0.1286163333333333,-0.0158843991333333
121,1778289946320,-0.0585787811111111,0.907563511111111,0.3221707633333333,0.6751386844444445,-0.1582082122222222,-0.0194363062222222
122,1778289946330,-0.06920895,0.9133124,0.31018427,0.6599884,-0.17832947,-0.014465332
123,1778289946340,-0.0559074136666666,0.9378399666666666,0.26198402,0.5641174133333333,-0.2530721033333333,0.0293884274999999
124,1778289946350,-0.0488298522222222,0.9433852611111112,0.2463640277777777,0.5209163888888889,-0.2535434311111111,0.0403391516666666
125,1778289946360,-0.0191224822222222,0.94234125,0.2336455955555555,0.3142005088888889,-0.2489980044444444,0.0734863255555555
126,1778289946370,-0.010146602,0.9369445833333332,0.29208422,0.1971384666666666,-0.2507680266666667,0.0835469533333333
127,1778289946380,-0.008438219,0.9339343,0.32104585,0.16038513,-0.251297,0.08514404
128,1778289946390,-0.00542793946,0.9229109444444444,0.36295575,0.1479543033333333,-0.23088074,0.0867411266666666
129,1778289946400,-0.0006954509177777,0.9112230666666667,0.4175296288888889,0.1635742166666666,-0.1087341323333333,0.0883382133333333
130,1778289946410,-0.001104356708,0.91023651,0.481110373,0.327305595,0.2011657738999999,0.0683639514999999
131,1778289946420,-0.0019164651466666,0.9134202222222222,0.4756557844444444,0.3677486755555555,0.2719777455555555,0.0608181422222222
132,1778289946430,-0.017834066,0.9269784,0.3799853,0.50162252,0.4350941966666666,0.0430704759999999
133,1778289946440,0.0182462553333333,0.9565093,0.2786203866666666,0.5753072133333333,0.4624328533333333,0.0160827637999999
134,1778289946450,0.0412419361111111,0.9678579055555556,0.2410629266666667,0.5883856900000001,0.4513041088888889,-0.0035095214555555
135,1778289946460,0.0324421646666666,0.9509372333333334,0.1887661966666666,0.5598551433333333,0.48852538,-0.0609741213333333
136,1778289946470,0.0145581523555555,0.9409716,0.1664353788888889,0.5360632988888888,0.5148654555555555,-0.0715671117777777
137,1778289946480,-0.0186337310444444,0.9574320444444444,0.0743852544444444,0.4547475133333333,0.4867553799999999,-0.0455373126666666
138,1778289946490,-0.032440869,0.96680882,-0.0002681566,0.323735043,0.34642029,-0.0055221556
139,1778289946500,-0.0354470866666666,0.9688884777777778,-0.0268989504444444,0.2664896622222222,0.2768927711111111,0.0096181233333333
140,1778289946510,-0.030810516,0.95720094,-0.0717251233333333,-0.0120137533333333,0.0403951016666666,0.0301055899999999
141,1778289946520,-0.0291425749999999,0.94821159,-0.0727423766666666,-0.12689209,-0.0329284666666666,0.0274403886666666
142,1778289946530,-0.0393119903333333,0.9434125833333334,0.0358641133333333,-0.3133205844444444,-0.1567281111111111,0.0163184272777777
143,1778289946540,-0.0458064367777777,0.9297857944444444,0.1193728394444444,-0.4345753911111111,-0.2110612688888888,-0.0011427138666666
144,1778289946550,-0.045765303,0.9102200111111112,0.1681980233333333,-0.4637451044444444,-0.2056766099999999,-0.009490967
145,1778289946560,0.0017721556666666,0.8843507266666667,0.23070427,-0.4631602088888889,-0.1463216166666666,-0.0474870468888888
146,1778289946570,0.0180430115,0.87804527,0.22897515,-0.45774842,-0.11708832,-0.0629272469999999
147,1778289946580,0.0060972937333333,0.8785467222222222,0.1766308888888889,-0.4838138266666666,-0.0822770864444444,-0.0857153988888888
148,1778289946590,-0.0089670655111111,0.8872792777777777,0.1511129966666666,-0.53062948,-0.0927530926666666,-0.07926432
149,1778289946600,-0.0143364169999999,0.8898284666666666,0.1434659755555555,-0.5629442,-0.1002705893333333,-0.0731082458888889
150,1778289946610,-0.0222276422222222,0.8951428555555556,0.1211755877777777,-0.7409583088888889,-0.1160753037777777,-0.0349934892222222
151,1778289946620,-0.0171296271111111,0.8950885888888889,0.1202533899999999,-0.7835676333333333,-0.1157192646666666,-0.0275370276666666
152,1778289946630,0.0073851916666666,0.8756455066666667,0.14691107,-0.9329427133333332,-0.061864216,-0.0275980633333333
153,1778289946640,0.010436085,0.8656115822222222,0.1645920155555555,-0.99691602,-0.0030314128888888,-0.0355275475555555
154,1778289946650,0.0251448026,0.85937468,0.185862308,-1.08880917,0.1004592852,-0.0541976931
155,1778289946660,0.0320761196666666,0.85038529,0.2038165566666666,-1.1506093333333334,0.1416066466666666,-0.0858357723333333
156,1778289946670,0.0208899712444444,0.8421556777777778,0.2205479922222222,-1.1754642,0.1593000611111111,-0.1130557588888889
157,1778289946680,-0.0014823266444444,0.8357153277777778,0.2425132922222222,-1.1997341444444445,0.1930389388888889,-0.1473795588888889
158,1778289946690,-0.0068516782,0.83484703,0.25026903,-1.2084961,0.20677185,-0.16040039
159,1778289946700,-0.0198682246888888,0.8253298833333333,0.2637463188888889,-1.2103220555555556,0.1692454044444444,-0.1714070655555555
160,1778289946710,-0.058567926,0.803949938,0.29559028,-1.1995392,0.098529052,-0.181811522
161,1778289946720,-0.06335119,0.80043465,0.29578564,-1.1999664,0.09597778,-0.17584229
162,1778289946730,-0.0312040416666666,0.7828361722222222,0.2512183577777778,-1.2074313555555554,0.0814751488888888,-0.0760091144444444
163,1778289946740,-0.024871186,0.7838530777777778,0.2017424722222222,-1.2762501666666666,0.0106336795555555,-0.0122731523111111
164,1778289946750,-0.0101063333111111,0.7815615888888889,0.2026377111111111,-1.3698696333333331,-0.0498538546666666,0.0139516192444444
165,1778289946760,-0.0118008905333333,0.7677583111111111,0.2038310766666666,-1.4823201333333331,-0.1014607775555555,0.0148315431111111
166,1778289946770,-0.0139294126666666,0.76110088,0.2083324933333333,-1.5607350666666668,-0.1231180866666666,0.0047098796666666
167,1778289946780,-0.0114350176666666,0.7276385200000001,0.2504997277777778,-1.774441188888889,-0.1656748511111111,-0.0477786604444444
168,1778289946790,-0.0067295765999999,0.7097685300000001,0.2776034049999999,-1.84839174,-0.180575562,-0.074539186
169,1778289946800,0.0036981261222222,0.6695796344444445,0.38266981,-1.9854821555555553,-0.1113433831111111,-0.1467251288888889
170,1778289946810,0.0120224528333333,0.6342730366666667,0.47508601,-2.0392202666666663,0.0240732853333333,-0.1996358266666666
171,1778289946820,0.015235457,0.62093157,0.5088472,-2.050583,0.08106995,-0.21739197
172,1778289946830,-0.0278411968888888,0.5790348266666666,0.5521818333333334,-2.033187933333333,0.1879425033333333,-0.22413635
173,1778289946840,-0.0516641926666666,0.5626694488888888,0.5613343266666667,-2.0054338666666665,0.2423282177777778,-0.2084520088888889
174,1778289946850,-0.0830797711111111,0.5830760044444445,0.4962251488888889,-1.9476115,0.1530303977777777,-0.0763617622222222
175,1778289946860,-0.0832693622222222,0.5944240666666667,0.4600904111111111,-2.0395711,-0.0567169213333333,0.0114644366666666
176,1778289946870,-0.08055738,0.5976234,0.4434397,-2.0820007,-0.12454224,0.029220581
177,1778289946880,-0.0577106755555555,0.5531099044444444,0.5652514477777778,-2.2988467000000004,-0.1946716311111111,0.0613013365555555
178,1778289946890,-0.0281699614999999,0.53461958,0.641406687,-2.3768157000000003,-0.1634231579999999,0.061184691
179,1778289946900,-0.0082349749999999,0.5102517,0.6501161999999999,-2.5047353333333335,0.0302836106666666,-0.0556488033333333
180,1778289946910,-0.0123841767777777,0.4782664777777777,0.7125268777777778,-2.586291833333333,0.1465793226666666,-0.1300404844444444
181,1778289946920,-0.0118555032666666,0.4440163866666666,0.8272883666666666,-2.613396511111111,0.2741699222222222,-0.1992797844444444
182,1778289946930,-0.0315420863333333,0.4179570266666667,0.8860788333333334,-2.550314977777778,0.2103135866666666,-0.2240176711111111
183,1778289946940,-0.0507003433333333,0.4094555533333334,0.9307005333333334,-2.4779358,0.1309509293333333,-0.2237803133333333
184,1778289946950,-0.10162796,0.3912860511111111,0.9634989,-2.1450992555555555,-0.1562550882222222,-0.17466736
185,1778289946960,-0.1165428244444444,0.3830968777777778,0.9534926555555556,-2.0279219,-0.2228953055555555,-0.1370290133333333
186,1778289946970,-0.1167999833333333,0.39542246,0.9300089,-1.9175415111111112,-0.1746690555555555,-0.0627526183333333
187,1778289946980,-0.092833474,0.40098728,0.93426406,-1.87534335,-0.02519989,-0.0109939575
188,1778289946990,-0.0672563662222222,0.3997342977777778,0.9478665,-1.8661753666666665,0.0972849555555555,0.0066731771111111
189,1778289947000,-0.018567538,0.3844535466666666,0.9855462788888888,-1.828886211111111,0.2501441111111111,-0.0227474635555555
190,1778289947010,-0.0187573006666666,0.37767428,0.9875797455555556,-1.8158653666666664,0.2623341888888889,-0.0336354571111111
191,1778289947020,-0.035081215,0.3577561133333333,0.9462792266666666,-1.789774566666667,0.1906127966666667,-0.069320681
192,1778289947030,-0.0352441894444444,0.35010892,0.9363679955555556,-1.7850935222222222,0.16066827,-0.0854220955555555
193,1778289947040,-0.0246077125,0.33672615,0.9490655,-1.7624282999999998,0.14178467,-0.14442444
194,1778289947050,-0.0555818055555555,0.3025315244444444,0.9466041111111112,-1.7196417666666666,0.1161007357777777,-0.2326643177777777
195,1778289947060,-0.1168952055555555,0.2854886522222222,0.9507265666666668,-1.7110629555555557,0.1766459124444444,-0.2327829966666666
196,1778289947070,-0.1628319577777777,0.2729325277777777,0.9298187555555556,-1.7127160111111113,0.2268235966666666,-0.1879289377777777
197,1778289947080,-0.1714549333333333,0.2562681577777778,0.9019023888888889,-1.7494676222222223,0.1772359233333333,-0.1157819922222222
198,1778289947090,-0.1712109044444444,0.2478349511111111,0.9041532777777778,-1.7649739333333332,0.134151884,-0.0813378199999999
199,1778289947100,-0.1165557833333333,0.24056882,0.9883790666666664,-1.7626037666666663,-0.0228068023333333,0.0075531003333333
200,1778289947110,-0.0878387044444444,0.2330028477777778,1.018534088888889,-1.7420095,-0.0737609853333333,0.0256652829999999
201,1778289947120,-0.0699408672222222,0.2040545366666666,1.0535840333333333,-1.6912384333333332,-0.1625264453333333,0.0462646476666666
202,1778289947130,-0.0440708339999999,0.1869364899999999,1.11709965,-1.65563965,-0.20549011,0.0366821285
203,1778289947140,-0.030892435,0.18126227,1.1552334,-1.6351318,-0.22253418,0.020706177
204,1778289947150,-0.0284377904444444,0.1799601988888889,1.1764793888888887,-1.5239851222222225,-0.2592926033333333,-0.0109066434444444
205,1778289947160,-0.0128718908888888,0.1791871477777777,1.1894954111111111,-1.4098206,-0.29551697,-0.04322815
206,1778289947170,-0.0112580439999999,0.1671341122222222,1.1821882666666663,-1.2159458,-0.476135271111111,-0.1057841011111111
207,1778289947180,-0.0644353266666666,0.146619,1.1642775111111112,-1.0788845555555555,-0.5777469444444444,-0.1047193744444444
208,1778289947190,-0.0893834226666666,0.1368837266666666,1.1449420666666668,-0.9357215,-0.6390550444444445,-0.0576104049999999
209,1778289947200,-0.0813572222222222,0.1331823188888888,1.115125988888889,-0.8334537088888889,-0.6835632222222222,-0.0083685978888888
210,1778289947210,-0.0737919458888888,0.1287078588888889,1.0774327333333331,-0.7830335844444445,-0.7214457111111111,0.0240665015555555
211,1778289947220,-0.0529540632,0.119149204,0.998670104,-0.84108274,-0.7779724000000001,0.053829956
212,1778289947230,-0.0741033755555555,0.0990820577777777,0.9728943955555556,-0.9080233888888888,-0.8137647777777778,0.0675099688888888
213,1778289947240,-0.0163023103333333,0.1135223464444444,1.0872500777777776,-1.062783111111111,-0.5802866655555555,0.0688171386666666
214,1778289947250,0.0120628943333333,0.1091840713333333,1.1451453666666669,-1.158596477777778,-0.2108883344444444,0.0361429848888888
215,1778289947260,0.017066201,0.10475057,1.1577952,-1.1759949,-0.12614441,0.027618408
216,1778289947270,0.0415804983333333,0.101441994,1.2041664444444444,-1.1355150333333333,0.27132331,-0.0322774266666666
217,1778289947280,0.0529427549999999,0.081889868,1.2446806,-1.0763957,0.8318990066666667,-0.11140442
218,1778289947290,0.00867060058,0.0459315976,1.21319716,-1.0124817,0.96204375,-0.12524414
219,1778289947300,-0.0071501482444444,0.0476675988888888,1.264692588888889,-0.8454691611111111,0.8288862333333333,-0.13471476
220,1778289947310,-0.012953638,0.05520695,1.3017893,-0.74935913,0.7202301,-0.138031
221,1778289947320,-0.1623705086666666,0.0496481833333333,1.1946487222222222,-0.444163,0.33548482,-0.0718027766666666
222,1778289947330,-0.2015959088888889,0.0526038499999999,1.1430847666666666,-0.3867560488888888,0.2300838895555556,-0.0339830202222222
223,1778289947340,-0.1189425033333333,0.0883296977777777,1.0927542555555556,-0.36853028,0.0849761953333333,0.085683186
224,1778289947350,-0.06571113,0.1043834866666666,1.0887678777777776,-0.3744456044444444,0.0753868944444444,0.1066945388888888
225,1778289947360,-0.05859157,0.10609291,1.0884836,-0.391105652,0.115731814,0.1011230489999999
226,1778289947370,0.0283342685555555,0.0716940166666666,0.9261851255555557,-0.6479882144444444,0.2399105499999999,-0.0085974797777777
227,1778289947380,0.0393982301111111,0.076059594,0.9506721277777778,-0.7124989944444445,0.1600121388888888,-0.0471886544444444
228,1778289947390,-0.0307690386666666,0.0312880344666666,1.0461395,-0.7918023000000001,-0.1228773333333333,-0.07678223
229,1778289947400,-0.0612771111111111,0.0153434732,1.142311477777778,-0.7896050277777777,-0.33101908,-0.0785539411111111
230,1778289947410,-0.0488301966666666,0.0240480166666666,1.2292232333333333,-0.6765645233333334,-0.3945770266666666,-0.0842336006666666
231,1778289947420,-0.0523819399999999,0.0251463244444444,1.2607743111111112,-0.5571984066666666,-0.4101443822222222,-0.0866021033333333
232,1778289947430,-0.0639609222,0.0255655474999999,1.26375291,-0.426750182,-0.408164976,-0.0846649145
233,1778289947440,-0.09503845,0.0317764403333333,1.1521002333333332,-0.2426503533333333,-0.3619130466666667,-0.0453643796666666
234,1778289947450,-0.0906448777777777,0.0395190357777777,1.0382889555555554,-0.2003360355555555,-0.3355797644444445,0.0035807292777777
235,1778289947460,-0.0927604355555555,0.0302851268888888,0.9530859833333332,-0.2449595066666667,-0.3880157466666666,0.0400492348333333
236,1778289947470,-0.0315016459266666,0.0272216173333333,0.94473365,-0.3047943,-0.4633568622222222,0.0631951204444444
237,1778289947480,0.01008334753,0.0286318754444444,0.959377008888889,-0.3360443,-0.502182,0.07077026
238,1778289947490,0.0417970503333333,0.0227056776666666,1.0537051133333333,-0.3614247633333333,-0.6761677866666667,0.0199839269333333
239,1778289947500,0.0369428921111111,0.0159129331111111,1.0866527777777777,-0.3398234011111111,-0.7079467555555555,-2.543135555555543e-05
240,1778289947510,-0.008885665,0.0003748592,1.0877105333333337,-0.2179718,-0.7283630166666667,-0.013046265
241,1778289947520,-0.0286545142222222,-0.0049545696666666,1.058356388888889,-0.1572519933333333,-0.6948089333333334,-0.017303467
242,1778289947530,-0.0403367068,-0.0120326671,1.0254194499999998,-0.126181028,-0.6187728699999999,-0.0178100584999999
243,1778289947540,-0.003679116,-0.0150825064,0.9816269666666666,-0.2154897066666666,-0.4851277666666667,0.0364990233333333
244,1778289947550,0.021906187,0.0044423139333333,0.98878662,-0.25933838,-0.3849894166666667,0.0427144366666666
245,1778289947560,0.0486177929999999,-0.0024195610222222,0.9632547133333332,-0.4412655288888889,-0.1185031444444444,0.0311160616666666
246,1778289947570,0.0698235153333333,-0.0028668341277777,0.9825628333333332,-0.5476735333333334,0.0462646466666666,0.0064951578666666
247,1778289947580,0.08088713,-0.00031730815,1.0011119,-0.5794525,0.10290527,-0.0048675537
248,1778289947590,0.0535400439999999,-0.0242756284777777,0.9826846377777778,-0.6928456555555556,0.2022128611111111,-0.0474768755222222
249,1778289947600,0.0350592654444444,-0.0372377362222222,0.9954972333333332,-0.73107232,0.2002020911111111,-0.0526309551111111
250,1778289947610,0.0231277196666666,-0.0555154433333333,1.0950729,-0.73586529,0.1297098766666666,-0.031326294
251,1778289947620,0.0267067684,-0.065407784,1.17397632,-0.68928224,0.115466306,-0.0250091556
252,1778289947630,0.0229097855555555,-0.0679350511111111,1.2044237333333334,-0.6360914444444444,0.1291741255555555,-0.0284915502222222
253,1778289947640,-0.0150819883333333,-0.0737919388888888,1.2201662666666668,-0.4745212088888889,0.2186703155555555,-0.0201958548888888
254,1778289947650,-0.0129394671111111,-0.07409041,1.2113257000000002,-0.4243350566666666,0.2670186344444444,-0.0107286241111111
255,1778289947660,0.0116971936666666,-0.0734532022222222,1.1715580555555556,-0.3225453722222222,0.31951396,-0.0019124349022222
256,1778289947670,0.0200764796666666,-0.0720704246666666,1.1590572,-0.2967410655555555,0.3266143844444444,-0.0017937554355555
257,1778289947680,0.0169310514444444,-0.0727758988888888,1.1541758,-0.2702823199999999,0.2702077244444444,-0.0168880884444444
258,1778289947690,-0.0087555264,-0.076268117,1.17561174,-0.230894469,0.171398929,-0.0200531005
259,1778289947700,-0.0342409358888888,-0.0771952277777777,1.2094950333333334,-0.1892038977777778,0.0950266538888889,-0.00877889
260,1778289947710,-0.0356645015555555,-0.06412459,1.2696554555555557,-0.0519646533333333,-0.0162336564444444,0.0211198594888888
261,1778289947720,-0.0278814648888888,-0.0544708864444444,1.2872003888888888,0.0114237466666666,-0.0373043484444444,0.0294053819999999
262,1778289947730,-0.0116517416666666,-0.0418883043333333,1.2422395666666666,0.1807963066666666,-0.0101979573333333,0.02549235
263,1778289947740,-0.020383937,-0.0348517013333333,1.173184822222222,0.2772013333333333,0.005247328,0.0214097764444444
264,1778289947750,-0.031502165,-0.03143528,1.138637,0.3073883,0.0070190429999999,0.019638062
265,1778289947760,-0.032315138,-0.0361129826666666,1.1401420333333334,0.33970134,-0.0581410726666666,0.05195109
266,1778289947770,-0.0227291825555555,-0.0334824019999999,1.151571711111111,0.3510640488888888,-0.0744747584444444,0.0594668908888888
267,1778289947780,-0.0088585313333333,-0.023299335,1.1312475888888889,0.4038577655555555,-0.1045311862222222,0.0620100228888888
268,1778289947790,-0.00284877384,-0.01480180235,1.06664045,0.4315414429999999,-0.130444336,0.066609193
269,1778289947800,-0.0029598143955555,-0.0113399635555555,1.046831133333333,0.42296346,-0.1225840233333333,0.0673879
270,1778289947810,0.0127011392088888,-0.0079377155555555,1.0011379666666669,0.3720194477777778,-0.0529920777777777,0.0608249242222222
271,1778289947820,0.0185855115555555,-0.0098087274444444,0.9921620777777778,0.3555670833333333,-0.0308566609333333,0.0570407442222222
272,1778289947830,0.0367128624444444,-0.0113270017777777,0.9969080777777778,0.3066711422222222,0.0089246960666666,0.0255550802222222
273,1778289947840,0.0267881686666666,-0.013252281,0.9973684666666666,0.2914055688888889,0.0111134844444444,0.0044708251288888
274,1778289947850,0.0183954031111111,-0.0139708906666666,0.9905076055555556,0.28542921,0.0106981063333333,-0.0012732612177777
275,1778289947860,0.0095956330555555,-0.0153541881111111,0.967268738888889,0.2274339466666666,-0.0027974443333333,-0.0209164088888888
276,1778289947870,0.0074940712322222,-0.0182555871111111,0.9661840811111112,0.2028181299999999,-0.0153452553333333,-0.0264773894444444
277,1778289947880,-0.00872286297,-0.0333059493333333,1.0309668566666668,0.1779632566666666,-0.027420044,-0.032394409
278,1778289947890,-0.0155707393333333,-0.0389189849999999,1.0573925555555554,0.1763017455555555,0.0132395428888888,-0.0278981531111111
279,1778289947900,-0.017469058,-0.039731957,1.0595618,0.17582703,0.043777466,-0.02458191
280,1778289947910,-0.0048453441111111,-0.0442333758888888,1.0718333222222225,0.15712653,0.1164567753333333,-0.0100216338444444
281,1778289947920,0.0175539145555555,-0.0429589601111111,1.0926861222222222,0.1426883222222222,0.1828562455555555,-0.0041639539555555
282,1778289947930,0.0136089935333333,-0.0394483493333333,1.117607,0.1610921233333333,0.2351735433333333,-0.0252939863333333
283,1778289947940,-0.0033263778333333,-0.0430277444444444,1.1160075111111112,0.1709764255555555,0.1952836788888888,-0.0263010666666666
284,1778289947950,-0.0082076692666666,-0.0428504262222222,1.1593411666666666,0.1678432844444444,0.0820651566666666,-0.0168830024444444
285,1778289947960,6.377260000000005e-05,-0.0376165693333333,1.2274334333333334,0.1983744266666666,0.10751343,-0.0249328613333333
286,1778289947970,0.003994349375,-0.03442365575,1.2602541875,0.22156333625,0.14164734375,-0.032236099125
287,1778289947980,-0.0065468129999999,-0.0245400515,1.3346758,0.346801755,0.3114318849999999,-0.05973053
288,1778289947990,-0.0212345354285714,-0.0214278537142857,1.3692881571428572,0.4293583414285714,0.3931928314285714,-0.06718445
289,1778289948000,-0.0447046732,-0.0014397082,1.34596386,0.628781124,0.44144898,-0.0518493662
290,1778289948010,-0.0672559468,0.0208670538,1.2957857000000002,0.7988006480000001,0.4463439960000001,-0.015209961
291,1778289948020,-0.0676220174999999,0.02646839825,1.2849798,0.8171234,0.44378662,-0.008605957
292,1778289948030,-0.05964381775,0.053009901875,1.2087586875,0.9485435475,0.26216507,0.0428009035
293,1778289948040,-0.0602052422222222,0.0662026448888888,1.1665007222222223,0.9687991655555556,0.1733940977777777,0.0620066326666666
294,1778289948050,-0.070038304,0.0824195432,1.0971959,0.925242618,0.0704727168,0.0899383543
295,1778289948060,-0.0611948433333333,0.08892768,1.1072763,0.8455878333333333,0.0956251331111111,0.10958523
296,1778289948070,-0.0507815715555555,0.0927376255555555,1.120320122222222,0.8234541111111111,0.1152123322222222,0.1115383544444444
297,1778289948080,0.0042122832222222,0.09460812,1.2009397000000002,0.7717810888888889,0.2395562055555555,0.060404459
298,1778289948090,0.0088358915555555,0.093794456,1.2193389111111113,0.7716641055555555,0.2625206822222222,0.0466749404444444
299,1778289948100,0.0004977387777777,0.0971579884444444,1.2808416666666669,0.8929884333333332,0.2426317011111111,-0.0064714216666666
300,1778289948110,-0.0312844055555555,0.09864913,1.2697913666666667,1.011405088888889,0.0959743911111111,-0.0280744766666666
301,1778289948120,-0.05102595,0.10157749,1.2505379,1.0466766,0.015014648,-0.028305054
302,1778289948130,-0.0768419731111111,0.10352973,1.241751322222222,1.1530931111111111,-0.2798292377777778,0.0214097762222222
303,1778289948140,-0.0786861973333333,0.1047096116666666,1.2457781666666667,1.1723887,-0.2830810533333333,0.0299326573333333
304,1778289948150,-0.0356785017777777,0.1097134377777777,1.2616285,1.2760773,-0.2166849733333333,0.0452016193333333
305,1778289948160,-0.008044868,0.1112858077777777,1.254958,1.348156411111111,-0.1593407488888888,0.0338372124444444
306,1778289948170,-0.008627809,0.1148781622222222,1.2370880444444443,1.4469824666666666,-0.1116994211111111,-0.0004950631111111
307,1778289948180,-0.0426337027777777,0.1187833328888888,1.1861610666666669,1.5201297111111112,-0.1675669366666666,-0.0102064344444444
308,1778289948190,-0.0826323295,0.123176997,1.1210045,1.5572052,-0.319480895,0.01323699875
309,1778289948200,-0.0808420246666666,0.1356642633333333,1.1547854333333334,1.597061133333333,-0.38960774,0.05797831
310,1778289948210,-0.033617034,0.1501448166666666,1.1633278666666669,1.6782023,-0.36546834,0.069163004
311,1778289948220,-0.0024860989444444,0.1524627588888888,1.1164415555555556,1.731764077777778,-0.42252096,0.0580376521111111
312,1778289948230,-0.0117462767999999,0.1560013688888889,1.0874662777777775,1.7630734,-0.4921722333333334,0.0488094746666666
313,1778289948240,-0.026009934,0.1603946,1.0895817,1.7761535444444445,-0.4913414666666666,0.0487535253333333
314,1778289948250,-0.0114215373888888,0.1762724466666666,1.0674804666666668,1.7916565,-0.2268015533333333,0.0484008786666666
315,1778289948260,0.0125507815,0.18663162,1.054681,1.7897034,-0.14424133,0.044677734
316,1778289948270,0.00274793,0.2084341133333333,1.0716838666666666,1.8078155666666664,0.0831960066666666,0.0036468506666666
317,1778289948280,-0.0107428506666666,0.2128949188888889,1.0930256333333332,1.8248596333333331,0.17232768,-0.008605957
318,1778289948290,-0.0131480670999999,0.211793843,1.1028592300000002,1.8344421,0.1950531,-0.008605957
319,1778289948300,0.0015279526666666,0.2260462733333333,1.1002390333333334,2.1247304333333332,0.4516042066666667,-0.0066528322666666
320,1778289948310,-0.0066339174999999,0.2317951566666666,1.0615559644444446,2.1843278666666666,0.4487677655555556,-0.0067732072
321,1778289948320,-0.0717707473333333,0.2454083,0.9553095466666668,2.2529144,0.3278554266666666,0.0565643333666666
322,1778289948330,-0.0759742151111111,0.2584654555555555,0.9149186,2.2930976,0.2203759088888889,0.1110144733333333
323,1778289948340,-0.07006288,0.26399726,0.8979975599999999,2.3148804,0.16734314,0.1325531
324,1778289948350,-0.0330146671,0.299483356,0.8218391219999999,2.3106201,0.0579498294,0.158435056
325,1778289948360,-0.0096576776333333,0.3245237866666666,0.7799138600000001,2.3029886666666664,0.0134226481666666,0.1622009266666666
326,1778289948370,0.0053926830333333,0.3494988266666666,0.7419219,2.2822655333333333,-0.0263502332222222,0.1349843377777777
327,1778289948380,0.0108024756666666,0.35873239,0.7256106133333334,2.2749243555555556,-0.0372416177777777,0.1282365622222222
328,1778289948390,0.012917863,0.36296317,0.72349524,2.2674713,-0.043045044,0.12615967
329,1778289948400,-0.030742423,0.4216994166666666,0.67915916,2.1742096111111113,-0.1686248804444444,0.0631883411111111
330,1778289948410,-0.0590073375,0.431518858,0.6741355600000001,2.1449768,-0.186532596,0.0545745848
331,1778289948420,-0.0566395033333333,0.4482200466666666,0.6275400666666666,2.0970408000000003,-0.2088724766666666,0.0812428796666666
332,1778289948430,-0.0427961566666666,0.4573856922222222,0.5977514811111111,2.069103688888889,-0.2299414733333333,0.0942603213333333
333,1778289948440,-0.0082748977999999,0.48844919,0.5803970133333333,1.9062873444444444,-0.2171003544444444,0.0975714799999999
334,1778289948450,0.0135417638444444,0.5162717566666666,0.5963013333333333,1.8088819777777776,-0.1704084611111111,0.0912373844444444
335,1778289948460,0.0209715445555555,0.5326098244444445,0.6074603333333334,1.7678663222222224,-0.1425916911111111,0.0849083777777777
336,1778289948470,0.0047819166,0.5541408333333333,0.60968424,1.706971866666667,-0.0855322961111111,0.0773349344444444
337,1778289948480,0.0011619076666666,0.5748047666666667,0.6307541533333334,1.6313425333333331,0.0492808023333333,0.0716552739999999
338,1778289948490,0.0225988734333333,0.5879834,0.6583734333333333,1.6091461333333337,0.1659291566666666,0.0588734953333333
339,1778289948500,0.0228259661,0.5904849249999999,0.6432737850000001,1.62725065,0.226899715,0.0457366948
340,1778289948510,0.0183539256666666,0.5915358111111111,0.62806874,1.6361270111111113,0.2367112855555555,0.0428365072222222
341,1778289948520,0.0098127026666666,0.6160228211111112,0.5337007300000001,1.6320427777777775,0.2114969866666666,0.0588684095555555
342,1778289948530,0.0099212373333333,0.6199006811111112,0.5109219477777778,1.6208597666666666,0.2062327066666666,0.0645497653333333
343,1778289948540,0.0202792043333333,0.63187249,0.4423420466666666,1.5047505666666663,0.1529795333333333,0.0780487053333333
344,1778289948550,0.0341500286666666,0.6517229066666667,0.4077269599999999,1.3854404,0.1115502244444444,0.0756225588888888
345,1778289948560,0.0397366222222222,0.6613363422222222,0.4036591722222222,1.3300476,0.097579956,0.06970215
346,1778289948570,0.0191001873333333,0.699273,0.4903800100000001,1.1521352333333337,-0.007710775,0.042353312
347,1778289948580,0.0088535196,0.70592336,0.5380242500000001,1.11746066,-0.0119873051,0.0374710083
348,1778289948590,0.0036023806666666,0.7074488466666666,0.5691704666666667,1.0878668666666664,0.0785844588888888,0.0236595999266666
349,1778289948600,-0.0056991032444444,0.7209811133333334,0.5685199333333333,1.0465596555555556,0.2643517411111111,-0.0087229411466666
350,1778289948610,0.0093106435111111,0.7322889155555555,0.5843015222222222,1.0433044222222223,0.3348948166666667,-0.0190853544444444
351,1778289948620,0.0446716624444444,0.7448992111111111,0.6070797777777778,1.0854424444444446,0.4985978877777778,-0.0718061633333333
352,1778289948630,0.0393026571111111,0.7460920333333333,0.6075681777777777,1.109590322222222,0.5526207977777777,-0.0829298211111111
353,1778289948640,0.0071819486666666,0.759393,0.5684788166666667,1.1729177000000002,0.5856475933333333,-0.0732320166666666
354,1778289948650,-0.0187424372222222,0.7658067333333334,0.5460530944444444,1.2146352333333337,0.5762379799999999,-0.0558369966666666
355,1778289948660,-0.0284504069999999,0.7660238,0.54204005,1.2229767,0.5694885,-0.05015564
356,1778289948670,-0.0440215282,0.77842186,0.4961566819999999,1.26356508,0.50951232,-0.01744384772
357,1778289948680,-0.0662123262222222,0.7984018944444444,0.4244302277777778,1.2866092666666666,0.3819427555555555,0.0299309631111111
358,1778289948690,-0.0439625591111111,0.8155802333333333,0.4051233422222222,1.2497355,0.2872551833333333,0.0578630244444444
359,1778289948700,-0.0191226551111111,0.8277831222222223,0.3965546444444444,1.221564388888889,0.2302076544444444,0.0581003826666666
360,1778289948710,-0.0027432637333333,0.8303731,0.4003640633333333,1.1988322,0.1579488133333333,0.026372274
361,1778289948720,-0.0096172363666666,0.8331396999999999,0.3867783933333333,1.1895429666666666,0.1148596877777777,0.0045912002222222
362,1778289948730,-0.0177526643333333,0.8346852766666667,0.37205364,1.1810811333333333,0.0652618411,-0.0025685628
363,1778289948740,-0.0318272503333333,0.8372071433333333,0.3702638533333333,1.1686503333333331,-0.0529836029,0.0077362058666666
364,1778289948750,-0.0334542325,0.8391800875,0.37211494,1.1667862000000002,-0.07699585075,0.011112212925
365,1778289948760,-0.0346342883333333,0.8510769366666666,0.3457766933333333,1.1476999666666667,-0.044459025,-0.0128580730999999
366,1778289948770,-0.05352785925,0.8570259575,0.339013815,1.140960725,-0.0539627065,-0.01686096225
367,1778289948780,-0.0578594786666666,0.8597002666666667,0.34044779,1.1443329333333334,-0.0667182064444444,-0.0122765437777777
368,1778289948790,-0.0641513706666666,0.8754284266666666,0.3242318811111111,1.1755744,-0.1292131248888889,0.0119425455555555
369,1778289948800,-0.0666060188888889,0.8818421522222223,0.3077306533333332,1.180603011111111,-0.1308695488888889,0.016143799
370,1778289948810,-0.0589581353333333,0.8959433833333333,0.24750294,1.1494751,-0.1389160133333333,0.0230102543333333
371,1778289948820,-0.0600967059999999,0.9022076166666666,0.2072742766666666,1.0933176555555555,-0.1347724077777777,0.0246073408888888
372,1778289948830,-0.0619137941111111,0.9029533511111112,0.1973627177777778,1.0545569222222222,-0.1242981,0.0239546036666666
373,1778289948840,-0.0537230661,0.903695438,0.182738541,0.93743895,-0.083950806,0.0348648083
374,1778289948850,-0.0506194613333333,0.9032238166666668,0.17896387,0.9028727133333332,-0.07589213,0.0396931976666666
375,1778289948860,-0.043623128,0.91054575,0.1888066433333333,0.8245781788888888,-0.0866088888888889,0.0424736868888888
376,1778289948870,-0.0390128266666666,0.9129590888888888,0.2259303166666667,0.7743326866666667,-0.1030578633333333,0.045018514
377,1778289948880,-0.03406396,0.9109931999999998,0.26064065,0.7718506,-0.11654663,0.046798706
378,1778289948890,-0.0462531913333333,0.9145731466666668,0.2456721988888888,0.78456795,-0.1271379244444444,0.0553165013333333
379,1778289948900,-0.048341274,0.916851,0.23086655,0.78941345,-0.15116882,0.068099976
380,1778289948910,-0.0418743046666666,0.9224230733333332,0.18010244,0.7647400000000001,-0.1991068533333333,0.0968577086666666
381,1778289948920,-0.0349047595555555,0.9285513111111112,0.15157478,0.7381659555555555,-0.2204149044444444,0.1082255066666666
382,1778289948930,-0.0019022934333333,0.9357109111111112,0.14398168,0.6529490133333333,-0.2143215588888889,0.10473633
383,1778289948940,0.0156429797666666,0.9434120333333332,0.1436571133333333,0.5802764866666666,-0.1360778806666666,0.0874532073333333
384,1778289948950,0.022720887,0.9477370111111112,0.1470064777777777,0.5484364777777777,-0.0890858968888888,0.0769788957777777
385,1778289948960,0.0297167025555555,0.9504085777777777,0.2028943655555555,0.4975331577777778,0.0614674888888888,0.0310601128888888
386,1778289948970,0.0193355754,0.946357538,0.223470792,0.4900787359999999,0.160421754,-0.0002868652
387,1778289948980,-0.0065668607777777,0.9482662277777778,0.20528108,0.4744516988888889,0.2064734611111111,-0.0135142008888888
388,1778289948990,-0.0230820926666666,0.9461776266666668,0.19165463,0.4608442499999999,0.1987202966666666,-0.0192565917777777
389,1778289949000,-0.0241530944444444,0.9423132244444444,0.1896616,0.4598982066666666,0.1836259611111111,-0.0202077227777777
390,1778289949010,-0.0275155933333333,0.9570386666666668,0.1611069866666666,0.4204220222222222,0.1057434111111111,0.0005137126666666
391,1778289949020,-0.0230138267777777,0.9683058722222222,0.1615274711111111,0.3898841022222222,0.0579257546666666,0.0111677384444444
392,1778289949030,-0.0330638176,0.96873708,0.172292412,0.361183174,0.0390991207,0.0169723509
393,1778289949040,-0.0303635883333333,0.962204288888889,0.1891733722222222,0.34467062,0.0407714846666666,0.0217641193333333
394,1778289949050,-0.019990931,0.9609433466666668,0.1996272566666666,0.34822083,0.0405934656666666,0.0212300616666666
395,1778289949060,-0.0025258487555555,0.9598726644444444,0.1823806255555555,0.3908369322222222,0.0633087174444444,-0.0090738936666666
396,1778289949070,-0.0037060762888888,0.9659876055555556,0.1539618488888888,0.3877004033333333,0.07141961,-0.020323012
397,1778289949080,-0.0115703403333333,0.9755867233333332,0.1161596666666666,0.3588239922222222,0.063368055,-0.0379587811111111
398,1778289949090,-0.0153666317777777,0.9779189911111112,0.1036579688888888,0.3387027344444444,0.0541314023333333,-0.0473073324444444
399,1778289949100,-0.0189936926,0.978097047,0.0975372593,0.324801635,0.0517135636,-0.0475936893
400,1778289949110,-0.0355421395555555,0.9739595333333332,0.0846898184444444,0.2029910622222222,-0.019665188,-0.0252295602222222
401,1778289949120,-0.0326134333333333,0.9710308222222224,0.1007705648888888,0.1967773466666666,-0.028305054,-0.0219167073333333
402,1778289949130,-0.033006268,0.9760341333333334,0.1192912686666666,0.1825765,-0.0222727466666666,-0.0109100339999999
403,1778289949140,-0.0307011183333333,0.9821628777777778,0.1245114711111111,0.17363824,-0.0194380022222222,-0.0048743352888888
404,1778289949150,-0.02710807,0.98555285,0.12640996,0.16889954,-0.023880005,-0.0022125244
405,1778289949160,-0.0269127076,0.98984833,0.0930229279999999,0.094763182,-0.0303176887,0.0059448243
406,1778289949170,-0.0258880926666666,0.9894984666666669,0.0850422133333333,0.07066345,-0.0321570508888888,0.0092773437777777
407,1778289949180,-0.0184320426666666,0.9847528333333332,0.0801742222222222,-0.0175866023333333,-0.003982544,0.0109269886666666
408,1778289949190,-0.0160456644444444,0.9845361222222222,0.0800929937777777,-0.040608724,0.0061391193333333,0.009684245
409,1778289949200,-0.0084788327777777,0.9746926766666666,0.1268840213333333,-0.1026848691111111,0.0480465346666666,-0.0052931042222222
410,1778289949210,-0.0254002054444444,0.9689161288888888,0.1580289544444444,-0.1110856822222222,0.0984700488888889,-0.0134006075555555
411,1778289949220,-0.0319086513333333,0.96997364,0.1599678866666666,-0.1103769955555555,0.1106601266666666,-0.0125698513333333
412,1778289949230,-0.0354208155555555,0.9727663333333332,0.16571659,-0.11286926,0.1007690433333333,-0.0002593994
413,1778289949240,-0.036505471,0.9722917533333332,0.1678181533333333,-0.1118011466666666,0.0910034166666666,0.0038197835999999
414,1778289949250,-0.0342111059,0.976840399,0.154463736,-0.1182418835,0.0298278798,0.0163848879
415,1778289949260,-0.0308105166666666,0.97847563,0.1537840066666666,-0.1227484811111111,-0.0051066084444444,0.0182139078888888
416,1778289949270,-0.0295224463333333,0.9771059888888888,0.1543126777777778,-0.1236368811111111,-0.0063510474444444,0.0163760714444444
417,1778289949280,-0.0297937823333333,0.9689973533333331,0.1200637933333333,-0.12884521,0.010223389,0.007369995
418,1778289949290,-0.0283021232222222,0.9683055333333334,0.1057591795555555,-0.1719852033333333,0.0457950165555555,0.0007510714999999
419,1778289949300,-0.0166876087,0.9585353,0.0990747996,-0.240118411,0.087881469,-0.0087066648
420,1778289949310,-0.015001278,0.9554115333333332,0.0875234688888889,-0.2913055422222222,0.1090003111111111,-0.009489271
421,1778289949320,-0.01771326,0.9573638,0.08003942,-0.31474304,0.11515808,-0.008071899
422,1778289949330,-0.01771326,0.9573638,0.08003942,-0.3194766555555555,0.1139153366666666,-0.0075395368444444
423,1778289949340,-0.0152855760555555,0.9436422888888888,0.1108578877777777,-0.3665754555555555,0.0959235304444444,-0.0020938449155555
424,1778289949350,-0.0128717186666666,0.932999,0.1061120933333333,-0.3820190466666667,0.0826670353333333,-0.0130411786666666
425,1778289949360,-0.0121667626666666,0.9367409888888888,0.0616258733333333,-0.4020894366666667,0.07218933,-0.0313313803333333
426,1778289949370,-0.01222103,0.9377171,0.05270426,-0.41114807,0.06774902,-0.037902832
427,1778289949380,-0.0343327415,0.926478326,0.01525396634,-0.4851761,0.0325927735,-0.072517395
428,1778289949390,-0.0554603144444444,0.9163619066666668,-0.0112255532666666,-0.53074478,0.0062577987777777,-0.067960952
429,1778289949400,-0.0588774255555555,0.9153318444444444,-0.0343842085555555,-0.6243099611111111,-0.0848846433333333,-0.0375467938888888
430,1778289949410,-0.0534532866666666,0.9057728444444444,-0.0309942307777777,-0.7654537611111112,-0.22899543,0.0118747283333333
431,1778289949420,-0.0387961044444444,0.8910617388888888,-0.001693693,-0.8632253033333332,-0.29161072,0.0393422435555555
432,1778289949430,-0.0283290839999999,0.8853674500000001,0.010726259,-0.90489197,-0.30723572,0.04786682
433,1778289949440,-0.0201665223333333,0.88287255,0.0217902203333333,-0.9175567622222224,-0.2966427288888889,0.0438418906666666
434,1778289949450,0.0104625274999999,0.8494096977777779,0.077435805,-1.0453881444444444,-0.1422932935555555,-0.0231543643333333
435,1778289949460,0.00404930822,0.83712572,0.08548966,-1.0518951666666667,-0.0801493326666666,-0.0597381576666666
436,1778289949470,-0.0140927322233333,0.8222791333333334,0.0612876533333333,-1.0566915,-0.0437520346666666,-0.0886739066666666
437,1778289949480,-0.0364783383333333,0.8096283111111111,0.0252614262777777,-1.0833214777777778,-0.0473666723333333,-0.0893859866666666
438,1778289949490,-0.0511488286666666,0.8039737933333333,-0.0061952854666666,-1.1145680777777778,-0.0693834098888888,-0.0787387448888888
439,1778289949500,-0.064291141,0.8057315280000001,-0.0561818943,-1.28136134,-0.239476014,-0.0139907835999999
440,1778289949510,-0.0614533933333333,0.7974252666666667,-0.0508443093333333,-1.424385888888889,-0.3745151077777777,0.0406341555555555
441,1778289949520,-0.0320310133333333,0.7734396,-0.0142088720111111,-1.627855066666667,-0.4705166244444444,0.1012471491111111
442,1778289949530,-0.0046139303333333,0.7664702466666666,0.0296408325666666,-1.7840881333333334,-0.4157104533333333,0.1135559073333333
443,1778289949540,0.013216334,0.76131781,0.0570026115555555,-1.8670552666666669,-0.3518490333333333,0.1101226813333333
444,1778289949550,0.09549005,0.7247364433333333,0.1958439333333333,-2.0205739333333335,-0.094355266,0.037740072
445,1778289949560,0.10248664,0.7184315,0.2375168099999999,-2.07348628,0.0377014144,-0.0219207768
446,1778289949570,0.0800332033333333,0.7048456,0.2381065733333333,-2.1597696666666666,0.17249552,-0.1216990166666666
447,1778289949580,0.0280895489333333,0.6905683,0.24335408,-2.2520955333333332,0.22789001,-0.1925404833333333
448,1778289949590,0.0010668536888888,0.6830975666666667,0.2479776888888889,-2.2796173,0.23179626,-0.2083435
449,1778289949600,-0.0533317901111111,0.6489710333333334,0.2725593911111111,-2.4399329222222224,0.0630645741111111,-0.1930762411111111
450,1778289949610,-0.060992118,0.6321576533333333,0.3003819199999999,-2.5031382000000004,-0.0162404377333333,-0.1710561133333333
451,1778289949620,-0.0625784866666666,0.5842544855555555,0.3302785288888888,-2.667961977777778,-0.1577979208888889,-0.0931125211111111
452,1778289949630,-0.0362120141999999,0.55896505,0.382450258,-2.78017882,-0.242779542,-0.0405578606
453,1778289949640,0.0049851596666666,0.5495445333333334,0.4672767,-2.850056933333333,-0.2955118866666667,-0.0132191973333333
454,1778289949650,0.0765353762222222,0.5252875888888888,0.658658261111111,-2.8719007222222226,-0.3420935788888888,-0.0373060435555555
455,1778289949660,0.0779997299999999,0.5172065866666666,0.6992527866666667,-2.8582899444444445,-0.3658803277777778,-0.0568339044444444
456,1778289949670,0.0243881383333333,0.5286507488888889,0.7705857133333334,-2.8209432000000003,-0.3864135666666667,-0.10180664
457,1778289949680,-0.00964437,0.5213557711111112,0.7862188555555556,-2.808339411111111,-0.3669382777777777,-0.1376190177777777
458,1778289949690,-0.0020924016666666,0.5064003,0.8324131333333333,-2.7774455,-0.4139353466666666,-0.1577402733333333
459,1778289949700,-0.0012661208888888,0.4769238222222223,0.8887363611111111,-2.695953333333333,-0.4520484088888889,-0.1696319577777777
460,1778289949710,-0.0183641213333333,0.4553518666666666,0.91043049,-2.6316239222222224,-0.45500353,-0.1753133155555555
461,1778289949720,0.0024104520999999,0.45137192,0.978926261,-2.39386598,-0.297489927,-0.1564056389999999
462,1778289949730,0.0181104137777777,0.4558394177777778,0.9916605333333331,-2.3096228777777776,-0.2185821511111111,-0.1573859322222222
463,1778289949740,0.01800188,0.4590933644444444,0.946916577777778,-2.1623145,-0.1266089555555555,-0.15827264
464,1778289949750,-0.00729419875,0.465771795,0.9301207375,-2.0734863,-0.129867552,-0.14682007
465,1778289949760,-0.017590381,0.4644909,0.9364354,-2.0388641,-0.14637756,-0.13963318
466,1778289949770,-0.0502334562499999,0.450091095,0.8828192875,-2.03386685,-0.19597816625,-0.12032127375
467,1778289949780,-0.048769018,0.42769871,0.89049185,-2.109436,-0.261421205,-0.071983337
468,1778289949790,-0.00907828,0.4006234999999999,0.9697646625,-2.2029761875,-0.18725013625,-0.031904220875
469,1778289949800,0.0476138513333333,0.3885484866666667,1.0262902,-2.2048696000000003,0.0196329766666666,-0.0576070156666666
470,1778289949810,0.0675448125555555,0.3840880266666667,1.0453404444444443,-2.1880663000000005,0.12515259,-0.0819888655555555
471,1778289949820,0.058799842,0.369247282,1.11495129,-2.03614348,0.335015866,-0.167695618
472,1778289949830,0.0443467513333333,0.3616476266666666,1.1172955,-1.9426947777777777,0.3522898333333333,-0.2052018888888888
473,1778289949840,-0.0384022335555555,0.33499168,1.0993707,-1.790478188888889,0.1923828111111111,-0.2066260411111111
474,1778289949850,-0.100142215,0.31704995,1.08985585,-1.693046575,0.0676116925,-0.1940956075
475,1778289949860,-0.11240641,0.3136622,1.0928761,-1.6734772,0.03845215,-0.184906
476,1778289949870,-0.1374772011111111,0.2905863266666666,1.0367430333333332,-1.5907372555555557,-0.2663930222222222,0.0288662386666666
477,1778289949880,-0.12875918,0.2856779,1.0483763,-1.6177266666666668,-0.2181040433333333,0.0627797446666666
478,1778289949890,0.0023011064,0.287207412,1.1119619,-1.73078612,0.17406311,0.1051727292
479,1778289949900,0.056644171,0.2914138133333333,1.1932253,-1.7272746,0.4318898533333333,0.0693410236666666
480,1778289949910,0.0827170144444444,0.2742205888888889,1.2295479666666669,-1.619739088888889,0.647191348888889,-0.0175408258888888
481,1778289949920,0.0593295377777777,0.2670744244444444,1.2262406111111113,-1.4788869333333332,0.6602121999999999,-0.0936482723333333
482,1778289949930,0.0460421728333333,0.2661795344444445,1.2191768666666667,-1.4040239444444442,0.6290232444444445,-0.1266716822222222
483,1778289949940,-0.0797843321666666,0.23507711,1.0949510666666666,-1.1530965222222225,0.1875237333333333,-0.1526523177777777
484,1778289949950,-0.14345594,0.2150234444444444,1.0455291444444446,-1.0403544333333334,-0.1355455177777777,-0.1211039222222222
485,1778289949960,-0.1647437533333333,0.2035659611111111,1.0518338111111112,-0.9496934888888888,-0.3700748044444444,0.0080905473333333
486,1778289949970,-0.1096004059999999,0.2031658649999999,1.05529145,-0.87506105,-0.447044375,0.123764035
487,1778289949980,-0.054741183,0.2060468688888889,1.0377329733333331,-0.8622724922222222,-0.3823954266666667,0.1511976422222222
488,1778289949990,0.0095005796666666,0.2050987466666666,1.0160387866666667,-1.0369872733333334,-0.0814548055555555,0.1310204422222222
489,1778289950000,0.0188426772222222,0.2039461722222222,1.031685888888889,-1.0751579777777778,-0.021916706,0.1224992573333333
490,1778289950010,0.0093519485,0.1896139133333333,1.1069500444444444,-1.1239827666666669,0.2494422102222222,0.0579884835555555
491,1778289950020,-0.0138075703499999,0.188644667,1.08822706,-1.1046326,0.262698366,0.0274108878
492,1778289950030,-0.030607273,0.1930581533333333,1.0603763333333334,-1.0748037,0.1950531,0.0146586096666666
493,1778289950040,-0.0539416924444444,0.1721785544444444,0.9945626333333334,-1.00443862,-0.0335710288888888,0.0204010008888888
494,1778289950050,-0.0693174828888888,0.1516089977777777,0.9832544444444444,-0.9821862122222222,-0.1098039377777777,0.0355004204444444
495,1778289950060,-0.07170317,0.1180372422222222,1.0044048888888888,-0.9484422666666666,-0.0928717713333333,0.1061062293333333
496,1778289950070,-0.036016548,0.1245595166666666,1.0258012,-0.9510498133333332,0.0286865246666666,0.1373494466666666
497,1778289950080,-0.0120447481111111,0.1277324244444444,1.0403366777777778,-0.9643079988888889,0.1285264777777778,0.1388261577777777
498,1778289950090,0.0116826766666666,0.11662785,1.070328333333333,-1.0194108555555554,0.36218262,0.0895267055555555
499,1778289950100,0.010801957,0.1118822288888889,1.082056688888889,-1.0301801666666666,0.3883395777777778,0.0716569688888889
500,1778289950110,-0.017427061,0.0953946486666666,1.1075205333333331,-1.0154978666666663,0.4006449333333333,0.0249633793333333
501,1778289950120,-0.0481222684,0.080124972,1.12496998,-0.96742556,0.41502685,-0.0012481687999999
502,1778289950130,-0.0913368662222222,0.052590196,1.099208611111111,-0.90897624,0.4313659633333333,0.0047149659999999
503,1778289950140,-0.1056001816666666,0.0394516331111111,1.0563496888888888,-0.8982594822222223,0.5020802866666666,0.0369127071111111
504,1778289950150,-0.109721735,0.033973746,1.029178,-0.90275574,0.5550995,0.0579833999999999
505,1778289950160,-0.0717712633333333,0.0191261103333333,1.0519158000000002,-0.9787444822222222,0.4895307755555555,0.0706414111111111
506,1778289950170,-0.05798184,0.0055808901666666,1.070965711111111,-1.008451633333333,0.4289313422222222,0.0719418
507,1778289950180,-0.0570869493333333,0.0070450703333333,1.1774418333333334,-0.9895782333333334,0.2685546866666667,0.063486736
508,1778289950190,-0.0486673946666666,0.0013096737933333,1.220518,-0.9180247166666666,0.1808471666666666,0.0455525713333333
509,1778289950200,-0.0436805752,0.003685440752,1.2250334200000002,-0.88096774,0.150682067,0.0375259394
510,1778289950210,-0.054321392,0.0250647503333333,1.1643445666666663,-0.7104797466666667,-0.0437520333333333,0.0150146486666666
511,1778289950220,-0.0619684133333333,0.029173165,1.1303796333333334,-0.65780979,-0.1144154844444444,0.0103369822222222
512,1778289950230,-0.07438802,0.0161300035777777,1.0569186555555554,-0.615849811111111,-0.3183508888888889,0.0184529623333333
513,1778289950240,-0.09137766,-0.0035443111777777,0.9834438555555556,-0.6132490388888888,-0.5852016733333333,0.0313517261111111
514,1778289950250,-0.09422496,-0.0048327274,0.9813423,-0.6321869,-0.68167114,0.03933716
515,1778289950260,-0.0674329902222222,-0.0082494931777777,1.0254756111111112,-0.6228315644444444,-0.8638899066666667,0.0306345627777777
516,1778289950270,-0.0408171306666666,-0.015367496,1.0743272333333334,-0.607382881111111,-1.0846371222222222,0.0147128632222222
517,1778289950280,-0.0429971196,-0.0192070968,1.1178436,-0.561715695,-1.23092194,0.0314620976
518,1778289950290,-0.0354341255555555,-0.0175499388888888,1.1550028,-0.5277269111111111,-1.275850111111111,0.0362091068888888
519,1778289950300,-0.01710353,-0.01679089,1.1941596,-0.4335022,-1.2441254,0.028152466
520,1778289950310,0.0130255343555555,-0.0067580066888888,1.1531315111111111,-0.3538547066666667,-0.9677565,0.0292188856666666
521,1778289950320,0.0268690525555555,-0.0082218407222222,1.117038211111111,-0.3647460933333333,-0.7516242111111111,0.039160835
522,1778289950330,0.0540403746666666,-0.0168717716666666,1.0868965000000002,-0.4224412711111111,-0.5083821611111111,0.0604638
523,1778289950340,0.0399669987777777,-0.0218076767777777,1.093418088888889,-0.4567006422222222,-0.3274637866666666,0.0804104255555555
524,1778289950350,0.019629553,-0.025333323,1.102638,-0.4611969,-0.27420044,0.08728027
525,1778289950360,0.0083616573555555,-0.0350274662222222,1.1438431111111111,-0.4640486,-0.0064019111111111,0.1321970611111111
526,1778289950370,0.0108667151999999,-0.0389391526,1.16106548,-0.467176822,0.1527633639999999,0.155451965
527,1778289950380,0.0586375422222222,-0.0358005144444444,1.1494300666666666,-0.4700825977777778,0.5890791133333333,0.1764628088888888
528,1778289950390,0.0624604466666666,-0.0350138116666666,1.133309033333333,-0.4683024066666667,0.74844868,0.1584726966666666
529,1778289950400,0.0601559877777777,-0.0346885544444444,1.1246855555555555,-0.4494832433333333,0.9062906666666666,0.12953186
530,1778289950410,0.0434108988888888,-0.0342141472222222,1.1107878333333334,-0.4223819388888888,1.011522088888889,0.1017184766666666
531,1778289950420,0.0245499026666666,-0.0396920326666666,1.092226,-0.4041561588888889,1.0619439333333334,0.0843200655555555
532,1778289950430,0.0088493713333333,-0.0527089246666666,1.0544777333333333,-0.3862813333333333,0.9634603,0.06650289
533,1778289950440,-0.0083438558888888,-0.0560301177777777,1.0389662222222222,-0.3827887655555556,0.8669348888888888,0.06277466
534,1778289950450,-0.033535633,-0.06739272,1.0354412000000002,-0.37935893,0.6433410666666667,0.0720113133333333
535,1778289950460,-0.0321523356666666,-0.0690606633333333,1.0410547666666667,-0.3735012477777777,0.5839267222222222,0.0757395433333333
536,1778289950470,-0.0116719623099999,-0.059562318,1.05587705,-0.361018369,0.57540282,0.0692733766
537,1778289950480,-0.0016313025444444,-0.0611011731111111,1.061717911111111,-0.3342590333333333,0.5886705333333333,0.0501658122222222
538,1778289950490,-0.018811395,-0.094889134,1.0474824,-0.2604065,0.5844116,0.004714966
539,1778289950500,-0.0380776686666666,-0.0843953242222222,1.0503836111111111,-0.2313486755555555,0.5528632222222222,0.0050642225555555
540,1778289950510,-0.0519754544444444,-0.0750936666666666,1.0354827555555557,-0.1216244191111111,0.5024413999999999,-0.0118594696666666
541,1778289950520,-0.05651818,-0.08146575,1.0157547,-0.081451416,0.4373932,-0.025115967
542,1778289950530,-0.0605851133333333,-0.0891132966666666,0.9937079666666668,-0.0636257596666666,0.3350677444444444,-0.0309075251111111
543,1778289950540,-0.0741709477777777,-0.0976419048888888,0.9724343222222224,-0.0660519066666666,0.2021467355555555,-0.0297224256666666
544,1778289950550,-0.1024822333333333,-0.1147799933333333,0.9613301333333334,-0.09280904,-0.08583069,-0.012151082
545,1778289950560,-0.0958108122222222,-0.1298709622222222,0.9868070444444444,-0.1137491877777777,-0.2215898244444444,0.0169660783333333
546,1778289950570,-0.08409599,-0.1290573,0.9968406,-0.12084961,-0.2523651,0.025497437
547,1778289950580,-0.0612629411111111,-0.12695592,1.032391422222222,-0.1047566755555555,-0.2667490666666666,0.0306379528888888
548,1778289950590,-0.0476223193333333,-0.1269559222222222,1.052566722222222,-0.0877126077777777,-0.2652096244444444,0.0317043727777777
549,1778289950600,-0.035186362,-0.1208324944,1.0511675,-0.0488433832,-0.180892946,0.01079406758
550,1778289950610,-0.0358540908888888,-0.1209493584444444,1.0410962444444445,-0.03799608,-0.098793878,-0.0068206788333333
551,1778289950620,-0.0286951293333333,-0.123972598,1.042478911111111,-0.0417853461111111,-0.0219726558888888,-0.0310889351111111
552,1778289950630,-0.0418737866666666,-0.1279586553333333,1.0501261333333334,-0.0388285316666666,-0.0309651703333333,-0.0451711013333333
553,1778289950640,-0.0587139288888888,-0.1293421244444444,1.0546817888888889,-0.0346272783333333,-0.0450558142222222,-0.0484856493333333
554,1778289950650,-0.0740494533333333,-0.1221014166666666,1.0487428333333333,-0.0185852046666666,-0.0650634756666666,-0.031860352
555,1778289950660,-0.0728694011111111,-0.1207865599999999,1.0425873,-0.008945041,-0.0883806011111111,-0.0133412683333333
556,1778289950670,-0.0591748577777777,-0.1184684444444444,1.042425,-0.011311849,-0.1049482544444444,0.0018090143333333
557,1778289950680,-0.037901386,-0.1104552,1.0630609111111111,-0.0222557916666666,-0.0747612833333333,0.0018090143333333
558,1778289950690,-0.0301349403999999,-0.1071415776,1.08821476,-0.0254058838,-0.0179016116,-0.010952759
559,1778289950700,-0.0370061457777777,-0.1055058178888888,1.1121570555555556,-0.0099487304444444,0.0477990038888888,-0.0353546144444444
560,1778289950710,-0.05638199,-0.1009769155555555,1.1238857555555557,0.0268656410666666,0.0391591383333333,-0.054051718
561,1778289950720,-0.075337525,-0.09891614,1.1402241222222222,0.0891893176666666,-0.0438096791111111,-0.0447608111111111
562,1778289950730,-0.071730305,-0.0941160799999999,1.1503928333333333,0.1506245916666666,-0.1089172386666666,-0.0318654379999999
563,1778289950740,-0.06908607,-0.09171605,1.1536468,0.17424011,-0.13146973,-0.027252197
564,1778289950750,-0.0714183544444444,-0.0909436905555555,1.1520060111111112,0.2246585388888888,-0.1234147827777777,-0.0130445689999999
565,1778289950760,-0.07360149,-0.088788725,1.1475449,0.3073883,-0.096832275,0.010574341
566,1778289950770,-0.0654434699999999,-0.0865915687142857,1.1389682428571428,0.3092149971428571,-0.0919625421428571,0.0099639892857142
567,1778289950780,-0.060666738,-0.0835055925714285,1.1236625714285713,0.3110438771428571,-0.0289590042857142,0.0023520331428571
568,1778289950790,-0.0525037811111111,-0.0768146679999999,1.0921447444444443,0.30029297,0.1096530455555555,-0.0151112872222222
569,1778289950800,-0.0571521704,-0.082881196,1.14395838,0.283737186,0.215707394,-0.0439636228
570,1778289950810,-0.0691275466666666,-0.0878928,1.1844392333333331,0.3183966744444444,0.2121531144444444,-0.0503268771111111
571,1778289950820,-0.0913365233333333,-0.0776834633333333,1.2432972999999998,0.40823365,0.17108663,-0.0308024086666666
572,1778289950830,-0.1003257133333333,-0.0721248644444444,1.2819936777777778,0.4706658222222223,0.1575317388888888,-0.0164218477777777
573,1778289950840,-0.100813776,-0.07207094,1.2939795,0.5049896,0.15989685,-0.01020813
574,1778289950850,-0.1179114295555555,-0.0711617061111111,1.3046367666666667,0.6115756455555555,0.1811455622222222,0.0156029593333333
575,1778289950860,-0.1176129553333333,-0.06316143,1.2873092666666668,0.7881724133333333,0.2135213233333333,0.0592295326666666
576,1778289950870,-0.0976007713333333,-0.0499827733333333,1.2472838666666668,0.8623911666666667,0.19682821,0.0748545353333333
577,1778289950880,-0.0873238577777777,-0.0412510963333333,1.2355415555555556,0.8813307,0.14924113,0.0668046755555555
578,1778289950890,-0.08312073,-0.035827823,1.236626,0.8836975,0.11727905,0.058517456
579,1778289950900,-0.0995531794444444,-0.0379159033333333,1.256232211111111,0.9212171655555556,-0.0025058340888888,0.0545535622222222
580,1778289950910,-0.09776305,-0.0411157713333333,1.2681100333333333,0.9543524811111112,-0.1009860588888888,0.0518341062222222
581,1778289950920,-0.0831475211111111,-0.0299159704444444,1.3529864777777776,1.0562625799999998,-0.1465589755555555,0.0315280488888888
582,1778289950930,-0.0793778433333333,-0.022526804,1.3859480333333334,1.1475271,-0.0776672373333333,0.0233561199999999
583,1778289950940,-0.0703884833333333,-0.0119503843333333,1.3945309,1.254582766666667,0.0785827646666666,0.011988322
584,1778289950950,-0.063758197,0.0019209586666666,1.3823285,1.3564911333333334,0.2392578133333333,-0.010381063
585,1778289950960,-0.0717710588,0.010129596,1.3744945000000002,1.42474368,0.305514528,-0.021600342
586,1778289950970,-0.11290881,0.0179476114444444,1.3407167666666666,1.587897411111111,0.2477840888888888,-0.0006679959
587,1778289950980,-0.1197693011111111,0.0221642152222222,1.3274288666666667,1.637729233333333,0.1973588777777777,0.0115254721666666
588,1778289950990,-0.106969482,0.0372544988888888,1.2723810777777778,1.785508922222222,-0.0547027588888889,0.0453796397777777
589,1778289951000,-0.1068201611111111,0.047789785,1.2202476777777778,1.8555806333333331,-0.2498830166666666,0.0702412933333333
590,1778289951010,-0.1054783411111111,0.0602909633333333,1.1737817222222222,1.8757612,-0.3793114577777777,0.0855645088888888
591,1778289951020,-0.10528823,0.08672985,1.1670297666666667,1.8859405333333332,-0.49293518,0.0949096666666666
592,1778289951030,-0.102034166,0.1000391656,1.14659358,1.90006408,-0.523263548,0.1006988516
593,1778289951040,-0.0951193366666666,0.1027570253333333,1.098449233333333,1.8894806,-0.4979095466666666,0.1100006086666666
594,1778289951050,-0.0644498433333333,0.1153669166666666,1.0818538333333332,1.8530833,-0.4075419133333333,0.11160278
595,1778289951060,-0.0451830521111111,0.1228649655555555,1.0828437777777775,1.8369852666666668,-0.3591342533333333,0.1072845428888888
596,1778289951070,-0.0008178117777777,0.14298586,1.1188280888888888,1.8346252000000003,-0.2161560066666666,0.0436045333333333
597,1778289951080,0.0001586538888888,0.1494122111111111,1.1445891555555556,1.8710225,-0.1639556866666666,0.0153757734333333
598,1778289951090,-0.0378068469444444,0.14397546,1.1291052,2.0101013,-0.1402774355555555,-0.0036875406777777
599,1778289951100,-0.0874647423999999,0.147337994,1.0425034199999998,2.13612672,-0.164593504,0.02048339864
600,1778289951110,-0.0658053186666666,0.1730457888888888,0.9925151666666666,2.145741822222222,-0.1372002488888889,0.0687628851111111
601,1778289951120,-0.0286816482222222,0.2005154155555555,0.9946027166666666,2.1337822777777777,-0.0821075444444444,0.0666876908888888
602,1778289951130,-0.02727139,0.2064267444444444,0.9971518833333334,2.1330719,-0.0510355636666666,0.064376832
603,1778289951140,-0.045738516,0.21518624,0.9740209166666666,2.1387583666666665,0.047332763,0.0831960053333333
604,1778289951150,-0.0486539138888888,0.2208405822222222,0.962536488888889,2.1401791111111113,0.0790557855555555,0.0944417322222222
605,1778289951160,-0.025563698,0.2378837988888889,0.9819658777777778,2.2013125999999996,0.0656823055555555,0.0927853033333333
606,1778289951170,-0.021665925,0.250806722,0.97048166,2.2852692,0.0272644041999999,0.0823852539999999
607,1778289951180,-0.0266746231111111,0.2618148033333333,0.9529774333333332,2.3342912444444446,-0.0268283405555555,0.0740254726666666
608,1778289951190,-0.0656827837777777,0.2767972466666666,0.8951082444444444,2.4053073555555553,-0.1047651511111111,0.0813564702222222
609,1778289951200,-0.0613980886666666,0.29556268,0.8587436666666667,2.4253133333333334,-0.0908050533333333,0.10076904
610,1778289951210,-0.0242211886666666,0.3264768866666667,0.8032614333333333,2.4234806,-0.0482516811111111,0.1053263344444444
611,1778289951220,-0.0099983173333333,0.34720803,0.7539756555555556,2.405960133333333,-0.0231526686666666,0.0970458966666666
612,1778289951230,-0.0126553408888888,0.3613901166666666,0.7204584977777777,2.3749491666666667,-0.0284796811111111,0.0937330422222222
613,1778289951240,-0.0291420553333333,0.3982289666666667,0.6793214700000001,2.2419128,-0.1009216333333333,0.099527994
614,1778289951250,-0.0309461833333333,0.4190014111111111,0.6633762066666667,2.185923244444444,-0.1594526533333333,0.1079864504444444
615,1778289951260,-0.0356271706,0.439865288,0.6120829999999999,2.1093902800000004,-0.214022826,0.113052368
616,1778289951270,-0.0199904126666666,0.4597312733333333,0.5985385266666667,2.005071,-0.21793111,0.1096445733333333
617,1778289951280,-0.0043432847777777,0.4705513799999999,0.6086535200000001,1.9583790888888888,-0.1939595544444444,0.0999382877777777
618,1778289951290,0.0362249766666666,0.4861311,0.6670776333333334,1.8980102666666667,-0.07215373,0.040049234
619,1778289951300,0.0457704911111111,0.4896833544444445,0.6854090844444445,1.8884192888888889,-0.0374738917777777,0.0180341932088888
620,1778289951310,0.010191192,0.5072823666666666,0.7228450433333333,1.9203796333333336,-0.009668985844,-0.0204976398533333
621,1778289951320,-0.0240037725555555,0.5271594,0.7139101,1.9618665777777775,0.00554402663,-0.0188378226666666
622,1778289951330,-0.036748637,0.53746396,0.6977481,1.995713977777778,0.009045071,-0.0016699895555555
623,1778289951340,-0.044653516,0.5611233222222222,0.5945113677777778,1.993403122222222,-0.0441063779999999,0.0320654975555555
624,1778289951350,-0.0364801704,0.5772205400000001,0.565761658,1.98102726,-0.075643922,0.0454132076
625,1778289951360,-0.0222549486666666,0.6025043977777779,0.4990311555555555,1.897537211111111,-0.0665401886666666,0.0542483855555555
626,1778289951370,-0.0097810753333333,0.62357428,0.4622324,1.8120778333333336,-0.0116119386666666,0.0521189366666666
627,1778289951380,-0.0016048605555555,0.6352213611111112,0.4502735488888889,1.7492269,0.033843994,0.0475056966666666
628,1778289951390,0.0178532486666666,0.6625563455555556,0.4434394955555555,1.6222245666666666,0.1099480497777777,0.0244903571111111
629,1778289951400,0.0223004016666666,0.6695257166666667,0.4449309888888889,1.5876617,0.1229654933333333,0.0139516198
630,1778289951410,0.0095553645,0.6754780111111112,0.4834925666666666,1.5301361,0.0860392266666666,-0.0116221108666666
631,1778289951420,0.00461963322,0.67899212,0.50828594,1.5256225799999998,0.0314239506,-0.0235198976
632,1778289951430,0.0041312277,0.6808468,0.5179993,1.5313721,0.009689331,-0.02671814
633,1778289951440,-0.0050890280777777,0.7113813322222221,0.4686181511111111,1.5732795000000002,-0.0702090801111111,-0.04174296
634,1778289951450,-0.0128722376666666,0.7237197133333333,0.4224911266666666,1.5741102333333332,-0.09642707,-0.0455864791111111
635,1778289951460,-0.0319093444444444,0.7492101511111111,0.3659383888888889,1.5088331222222222,-0.1058976911111111,-0.0518629284444444
636,1778289951470,-0.0323974035555555,0.7659148,0.3497224777777778,1.4253234888888888,-0.0554741771111111,-0.0603247755555555
637,1778289951480,-0.0111640273333333,0.7985641555555556,0.3349427655555555,1.3389231666666666,0.0125325519999999,-0.07730611
638,1778289951490,-0.0167774088888888,0.8038923777777778,0.3260615977777777,1.2637600333333332,0.0703565815555555,-0.0924597811111111
639,1778289951500,-0.024778344,0.79994688,0.3262066099999999,1.2072143400000002,0.1205902129999999,-0.0984573338
640,1778289951510,-0.0384169231111111,0.8016553466666667,0.3427125011111112,1.1133219444444444,0.1953464088888888,-0.0862426728888888
641,1778289951520,-0.0483284822222222,0.8056690266666666,0.3581017577777778,1.1008928111111111,0.2057647688888889,-0.0805036722222222
642,1778289951530,-0.0552705488888888,0.8070792666666667,0.3649352822222222,1.1011895333333332,0.21346198,-0.0500284816666666
643,1778289951540,-0.0490743993333333,0.8171934,0.3474042,1.1079305333333334,0.19807434,-0.0157063803333333
644,1778289951550,-0.0402070546666666,0.8271863688888889,0.3417232422222222,1.1088748777777775,0.1895514588888888,-0.0071258544444444
645,1778289951560,-0.023692342,0.84351236,0.34362137,1.1121979,0.18386841,0.004714966
646,1778289951570,-0.0202260612,0.8478190160000001,0.325792857,1.11624604,0.180725097,0.0034866334
647,1778289951580,-0.0245184487777777,0.8651240444444445,0.3100091877777777,1.0916595222222223,0.11912706,-0.0024481879333333
648,1778289951590,-0.0530327993333333,0.8826147111111111,0.30274153,1.0565083777777775,0.0942060678888889,-0.0014428032666666
649,1778289951600,-0.0678256483333333,0.8883362666666668,0.2936707666666666,1.02680462,0.1288197833333333,0.0091501869333333
650,1778289951610,-0.0354747383333333,0.8824249244444444,0.2911485377777778,0.9541185177777778,0.1729685466666667,0.0327097566666666
651,1778289951620,-0.0316376604444444,0.8812453911111111,0.29301955,0.94973755,0.17427063,0.03401184
652,1778289951630,-0.0212240428888888,0.8863703777777778,0.2874194777777778,0.9205627311111112,0.2510375999999999,0.0301632344444444
653,1778289951640,-0.0178345833333333,0.8933400666666667,0.2822398933333334,0.9051717,0.2902119866666666,0.0274403886666666
654,1778289951650,-0.017224854,0.8952522,0.28162965,0.9033966,0.29039,0.027618408
655,1778289951660,-0.0246007138888888,0.90497299,0.2640437588888888,0.8638085222222222,0.2697296044444444,0.0391693112222222
656,1778289951670,-0.0261816553999999,0.910968636,0.2601034,0.8448120100000001,0.2521423259999999,0.0470184324
657,1778289951680,-0.0206281396666666,0.9205789933333334,0.2883827955555555,0.8253987611111111,0.1898362877777777,0.0611148411111111
658,1778289951690,-0.0151637341666666,0.9164846,0.2815216088888889,0.8220876066666666,0.1783549,0.054250081
659,1778289951700,-0.0081394031,0.9147763555555556,0.2572107288888889,0.8229234522222222,0.1466420488888888,0.0438995357777777
660,1778289951710,-0.0004645556333333,0.92014536,0.23578794,0.81392415,0.10947164,0.0345509846666666
661,1778289951720,0.0039964234777777,0.92242304,0.2293202833333333,0.8077070444444444,0.09479099,0.0256144206666666
662,1778289951730,-0.00254437583,0.918180732,0.2233976859999999,0.80944215,0.120106504,-0.013870239
663,1778289951740,-0.010315041875,0.9273602625,0.22564964125,0.814712525,0.139656065,-0.029373168
664,1778289951750,-0.0507822653333333,0.9159151333333332,0.1895802066666666,0.8259887833333334,0.0977528866666666,-0.0318603513333333
665,1778289951760,-0.06036126275,0.9243854625,0.155055185,0.814453125,0.05855560225,-0.01272964475
666,1778289951770,-0.055708964875,0.93347636875,0.15006710875,0.8045997549999999,0.053361892625,-0.0065383909499999
667,1778289951780,-0.027170093125,0.9430106375,0.1508304425,0.75592804,0.0143508908125,-0.0029468536
668,1778289951790,-0.0131671216,0.9444291875,0.15943334375,0.7444152850000001,-0.01321411135,-0.006477356
669,1778289951800,0.0221104658,0.95134375,0.1513036133333333,0.7347971755555556,0.0173865415555555,-0.0513390433333333
670,1778289951810,0.0353848688888888,0.9537848888888888,0.1282270505555555,0.7118886444444444,0.0984632711111111,-0.1111670606666666
671,1778289951820,0.0352005161,0.95466786,0.112145095,0.6988678,0.13964844,-0.13270569
672,1778289951830,0.0217845172222222,0.9610791777777776,0.07991672,0.6279195222222222,0.2812788244444444,-0.1951412644444444
673,1778289951840,0.0088761597555555,0.9617303755555556,0.06337522,0.5905761833333334,0.3495127333333333,-0.21739197
674,1778289951850,-0.0286270348222222,0.9715874888888888,0.0281360372222222,0.49564955,0.3782128166666667,-0.2181040466666666
675,1778289951860,-0.0584567665555555,0.9817835111111112,0.0231462105555555,0.4014316166666666,0.3630625366666666,-0.2088673933333333
676,1778289951870,-0.073235966,0.9871394,0.03867115,0.3611908,0.34205627,-0.20088196
677,1778289951880,-0.1035718645999999,0.98151354,0.083578029,0.305572513,0.247615049,-0.157577515
678,1778289951890,-0.12082596,0.9767662,0.1070075,0.2937113433333333,0.1958160355555555,-0.1282043455555555
679,1778289951900,-0.1116748366666666,0.969689,0.099929252,0.2869669533333333,0.0801798486666666,-0.0467783613333333
680,1778289951910,-0.096448365,0.9711804777777778,0.0807711666666666,0.2724066833333333,0.0130615229999999,-0.0060051811111111
681,1778289951920,-0.0867537011111111,0.9830441222222224,0.0752122255555555,0.2412821477777777,-0.0510932076666666,0.0264943433333333
682,1778289951930,-0.08458439,0.98835886,0.081503086,0.21791077,-0.082458496,0.04307556
683,1778289951940,-0.08458439,0.98835886,0.081503086,0.21791077,-0.082458496,0.04307556
684,1778289951950,-0.0688429057777777,0.9826104844444444,0.0789677331111111,0.14227295,-0.037536621,0.0398712153333333
685,1778289951960,-0.0723810988,0.97885409,0.094450189,0.122561648,-0.0484771732,0.0388122556
686,1778289951970,-0.0834318155555555,0.9710174888888888,0.1004043511111111,0.1153479688888888,-0.0538753931111111,0.039160836
687,1778289951980,-0.0915128033333333,0.97789132,0.0690288643333333,0.10144043,-0.0666554779999999,0.0505286324444444
688,1778289951990,-0.0878520095555555,0.980006711111111,0.0492330516666666,0.0811971031111111,-0.0810970722222222,0.0591718884444444
689,1778289952000,-0.0772759373333333,0.9827866055555556,0.0279461005555555,0.0302378338888888,-0.1103363,0.0744967977777777
690,1778289952010,-0.0717441311111111,0.9836542055555556,0.0226852854444444,-0.0161031086666666,-0.1291554733333333,0.0858561166666666
691,1778289952020,-0.0420640699999999,0.9716421244444444,0.0421283602222222,-0.0854661729999999,-0.1244201644444444,0.0847880055555555
692,1778289952030,-0.0285864227777777,0.9708827044444444,0.0505218166666666,-0.1133405911111111,-0.1024678533333333,0.0660281722222222
693,1778289952040,-0.0249853717,0.97100707,0.0499957864,-0.129113772,-0.074475096,0.0455200192
694,1778289952050,-0.0336980897777777,0.9652548355555556,0.03778922,-0.1800350644444444,-0.0280117457777777,0.0086246064444444
695,1778289952060,-0.03988076,0.9633293666666668,0.0391319033333333,-0.1921691911111111,-0.0219150117777777,0.0034179687222222
696,1778289952070,-0.0425118606666666,0.9596823888888888,0.0415457624444444,-0.2435404444444444,-0.0138651526666666,-0.0022718641222222
697,1778289952080,-0.0449255446666666,0.9575670333333332,0.0372064526666666,-0.2765655533333333,-0.0071818032666666,-0.0038045246666666
698,1778289952090,-0.046267882,0.9568754,0.035009664,-0.29023743,-0.0041656494,-0.004333496
699,1778289952100,-0.0468096903333333,0.954639011111111,0.0314848817777777,-0.3125508666666666,-0.0107896590666666,-0.0023854573111111
700,1778289952110,-0.048666876,0.9521582566666668,0.023377106,-0.35131328,-0.019958496,-0.0013224283866666
701,1778289952120,-0.048666876,0.9417441233333332,0.01898353,-0.4592539533333333,-0.027770996,0.0015157064133333
702,1778289952130,-0.041549219,0.9358464333333334,0.0120680788666666,-0.5105692566666666,-0.0132141113333333,-0.0034535726
703,1778289952140,-0.0383849518,0.934777016,0.00727226692,-0.527952578,-0.0115112306,-0.0072158813399999
704,1778289952150,-0.0352436728888888,0.92444288,0.0003131603555555,-0.5792762,-0.0673149944444444,-0.0226304796666666
705,1778289952160,-0.0358129608888888,0.922192,-0.0051104584222222,-0.5933617555555555,-0.07974243,-0.0285474987777777
706,1778289952170,-0.04748734,0.9177315222222222,-0.0271296728888888,-0.6824306888888888,-0.1199154377777777,-0.0413886176666666
707,1778289952180,-0.0437316637777777,0.9104234055555556,-0.0486883058888888,-0.7761739,-0.1408742333333333,-0.0391337076666666
708,1778289952190,-0.0321253753333333,0.9007154500000001,-0.0669656694444444,-0.8673723,-0.1511111822222222,-0.0416785343333333
709,1778289952200,-0.0282609908888888,0.8845804388888889,-0.0662873294444444,-0.9883914666666668,-0.1525861933333333,-0.0502658421111111
710,1778289952210,-0.0315149553333333,0.8732181699999999,-0.0582875701111111,-1.0534888444444444,-0.1538916666666666,-0.0523986818888888
711,1778289952220,-0.027840679,0.85044276,-0.0082372572,-1.20039975,-0.168634033,-0.0364089966
712,1778289952230,-0.0253188043333333,0.8377354733333333,0.036637166,-1.2622833,-0.1424662266666666,-0.0299072266666666
713,1778289952240,-0.0201122546666666,0.83395321,0.048433044,-1.318211866666667,-0.11228434,-0.032211303
714,1778289952250,-0.0091436936444444,0.8319324888888889,0.066465858,-1.3799998,-0.1213429733333333,-0.0343424473333333
715,1778289952260,-0.0067303544,0.8315526,0.07137411,-1.4007721,-0.12986755,-0.034698486
716,1778289952270,-0.0275835128222222,0.8324475555555555,0.0926074866666666,-1.4995439222222222,-0.1579182933333333,-0.0281287295555555
717,1778289952280,-0.0397589166666666,0.8322847333333334,0.0943566566666666,-1.5619812,-0.15915934,-0.0229797363333333
718,1778289952290,-0.0535079006666666,0.8197572666666667,0.1108711966666666,-1.7146708,-0.1144104,-0.0126851396666666
719,1778289952300,-0.051026726,0.80891643,0.1561233799999999,-1.82719724,-0.07894287,-0.0087127682
720,1778289952310,-0.0436096473333333,0.8007737355555556,0.2032873644444444,-1.9108005,-0.0432247569999999,-0.0113304984444444
721,1778289952320,-0.0287087815555555,0.7757179977777778,0.2954472488888889,-2.009155311111111,0.0369737426666666,-0.036592272
722,1778289952330,-0.0190412533333333,0.7681385288888889,0.3355939777777778,-2.0243056,0.0451422811111111,-0.0475989444444444
723,1778289952340,-0.0280038268888888,0.7531151111111112,0.3681208222222222,-2.023415488888889,0.0173288985,-0.0680202922222222
724,1778289952350,-0.0529387846666666,0.7343632,0.3855306022222222,-2.005893277777778,-0.0768296980444444,-0.07636685
725,1778289952360,-0.056762382,0.7317328,0.38791698,-2.0021057,-0.096832275,-0.07624817
726,1778289952370,-0.0756221682222222,0.7184732444444445,0.4058829133333333,-1.9929351666666664,-0.1738416916666666,-0.054348415
727,1778289952380,-0.0828352264444444,0.7130499644444445,0.4106283644444444,-2.0000389666666667,-0.1972215466666666,-0.0358276369999999
728,1778289952390,-0.0356774638888888,0.7097411955555555,0.4402937277777778,-2.0712975444444446,-0.18964301,-0.0131666394444444
729,1778289952400,-0.005313977778,0.7060339000000001,0.4696512,-2.1294693,-0.1651824929999999,-0.0126022341
730,1778289952410,0.0364686597033333,0.6880064733333333,0.5520451333333334,-2.149124133333333,-0.060979208,-0.0522766123333333
731,1778289952420,0.0515729422222222,0.6793560266666666,0.5815488888888889,-2.154627488888889,-0.0334540474444444,-0.0977291555555555
732,1778289952430,0.0337699857777777,0.6810103244444444,0.5738340933333334,-2.156344966666667,-0.0667707648888888,-0.1350148555555555
733,1778289952440,-0.0448443156666666,0.6608350166666667,0.5939831866666666,-2.1526693,-0.3343963666666666,-0.1350148533333333
734,1778289952450,-0.0804761516666666,0.6299206166666668,0.6254395555555555,-2.1302422666666665,-0.49235196,-0.1108720566666666
735,1778289952460,-0.09633983,0.6119007666666667,0.6363272333333333,-2.0855611333333335,-0.6143849866666666,-0.0572509766666666
736,1778289952470,-0.071356845,0.6010779100000001,0.6350134,-2.07140352,-0.61717224,-0.0291610723999999
737,1778289952480,-0.0486404344444444,0.5955364,0.6433232666666666,-2.070282,-0.6013047844444445,-0.0246988936666666
738,1778289952490,0.0006330606666666,0.58834996,0.6615864333333333,-2.083006111111111,-0.4154747822222221,-0.0494384786666666
739,1778289952500,0.0042535881666666,0.5872927933333334,0.6569497,-2.1105855,-0.29125976,-0.06843567
740,1778289952510,-0.0058349438333333,0.5626422999999999,0.68892106,-2.2281290333333335,-0.2994181333333333,-0.0780181873333333
741,1778289952520,-0.0297528213333333,0.5436872833333334,0.7186961766666667,-2.311930333333333,-0.32960002,-0.0732269286666666
742,1778289952530,-0.0715000977777777,0.5275529633333333,0.7512106,-2.404188422222222,-0.3315599277777778,-0.0576697452222222
743,1778289952540,-0.0832415373333333,0.4965846566666667,0.8296607,-2.4921366666666667,-0.2300008166666666,-0.003453573
744,1778289952550,-0.0714537475999999,0.484332622,0.8664403460000001,-2.50555877,-0.180198672,0.012545776
745,1778289952560,-0.0069733482777777,0.4613447833333333,0.9869956088888888,-2.3657887666666664,0.11870151,-0.0027448863333333
746,1778289952570,0.0276830601666666,0.4419558033333333,1.0326347333333332,-2.1954599666666663,0.3548431366666666,-0.0453542063333333
747,1778289952580,0.0365232715555555,0.4336036511111111,1.039387211111111,-2.1096445333333333,0.4508378733333333,-0.0690256744444444
748,1778289952590,0.0068020770855555,0.4224715777777778,0.9674445311111112,-1.7612440666666669,0.5723249555555555,-0.12997776
749,1778289952600,-0.0060381869266666,0.4214142266666666,0.9319614766666666,-1.6957906444444444,0.5598941333333334,-0.1348300555555555
750,1778289952610,-0.0517317702222222,0.41864868,0.8479112777777779,-1.6284485,0.3136427222222222,-0.1133524588888888
751,1778289952620,-0.0895336088888889,0.4149605822222222,0.8222584111111111,-1.628565466666667,0.1014811179666666,-0.0815734853333333
752,1778289952630,-0.10288872,0.41116446,0.8352748,-1.6676178,-0.0004272461,-0.046417236
753,1778289952640,-0.0830255055555555,0.3879110999999999,0.8869737266666666,-1.7420128666666663,-0.0473717595666666,-0.0023295084222222
754,1778289952650,-0.0624729929,0.37731329,0.904598702,-1.78091124,-0.012051392,0.00737457278
755,1778289952660,0.0146252089999999,0.3518983666666667,0.9590923666666666,-1.8176473,0.1638031033333333,-0.0485483804666666
756,1778289952670,0.0407125688888888,0.3377432366666666,0.974752967777778,-1.7971699888888888,0.2117394366666666,-0.1111043311111111
757,1778289952680,0.0129042097777777,0.3169987766666666,0.9587804144444444,-1.7452087,0.1066335039999999,-0.18757121
758,1778289952690,-0.0789435368888888,0.2872100155555556,0.9487610111111112,-1.7168019333333335,-0.1153004979999999,-0.1905873633333333
759,1778289952700,-0.1113763688888888,0.27731228,0.949710177777778,-1.703606511111111,-0.2878774033333333,-0.1612887944444444
760,1778289952710,-0.1416525033333333,0.2632103833333333,1.0279160333333333,-1.6531813,-0.5050794788888888,-0.0562455933333333
761,1778289952720,-0.1466419833333333,0.2592782522222222,1.0557928333333333,-1.6335313666666669,-0.5466240744444444,-0.0246429447911111
762,1778289952730,-0.1105079177777777,0.25290599,1.1280343888888889,-1.6111603,-0.54371643,-0.00061035156
763,1778289952740,-0.0396079685714285,0.2371158442857142,1.1507359,-1.3564082714285717,-0.1401389014285714,0.10119628692
764,1778289952750,-0.0141730979999999,0.234771475,1.1019069,-1.2891846,-0.0329284685,0.11603546
765,1778289952760,0.0372624506666666,0.23885966,0.9933619,-1.2937164333333333,-0.0213877361666666,0.0770696016666666
766,1778289952770,0.039275698,0.2414217233333333,0.9802846066666666,-1.3088022666666663,-0.038075764,0.0551452633333333
767,1778289952780,-0.0280577461111111,0.2108612777777777,0.9191625011111112,-1.404146,-0.0481363932222222,0.0068393280555555
768,1778289952790,-0.0570738136666666,0.1823332777777777,0.9018747377777778,-1.5680219666666668,0.0383961984444444,-0.00819397
769,1778289952800,-0.0533857118888888,0.1756622044444444,0.9205585888888888,-1.6330006555555556,0.0997094044444444,-0.013046265
770,1778289952810,-0.0174140994444444,0.1507007955555555,1.077066688888889,-1.7527245333333332,0.4166191988888889,-0.0693834122222222
771,1778289952820,-0.0175502856666666,0.1378740155555555,1.1178242222222223,-1.7514258444444444,0.4962768566666666,-0.0872565388888888
772,1778289952830,-0.0383623108888888,0.1163967844444444,1.1609679444444445,-1.5977342,0.6356523199999999,-0.1129930277777777
773,1778289952840,-0.05509392,0.10837006,1.1568194333333333,-1.455454466666667,0.6511586466666667,-0.1211649566666666
774,1778289952850,-0.06115492,0.10621423,1.1512064,-1.4044952,0.64352417,-0.12258911
775,1778289952860,-0.063912858,0.101516359,1.10249257,-1.36455074,0.6246688789999999,-0.1193939209999999
776,1778289952870,-0.06701268,0.08913092,1.0003792,-1.271347,0.5806732,-0.11193848
777,1778289952880,-0.071025,0.0620124817777777,1.0204464,-1.1964738888888888,0.0957370333333333,-0.0958421491111111
778,1778289952890,-0.0821843633333333,0.0488607869999999,1.050776266666667,-1.2221578,0.061538695,-0.1062571213333333
779,1778289952900,-0.1015059423333333,0.040481156,1.1078855333333333,-1.235656766666667,0.07343038,-0.11921692
780,1778289952910,-0.1310776393333333,0.0289697491111111,1.2061598,-1.1799011666666666,0.1875915533333333,-0.11566671
781,1778289952920,-0.1500870888888889,0.0199940423333333,1.2743062,-1.1424357444444444,0.2522786455555555,-0.1102210177777777
782,1778289952930,-0.163537512,0.0202333706,1.38801436,-0.8467285,0.61849365,-0.057711792
783,1778289952940,-0.1639938675,0.0477019885,1.365763075,-0.6537513625,0.80924225625,-0.02537918125
784,1778289952950,-0.1488526022222222,0.0728598953333333,1.230117988888889,-0.4684804333333333,0.9458872333333334,0.014124552
785,1778289952960,-0.13797149,0.0878492469999999,1.11990565,-0.387594612,0.9542633,0.0347564696
786,1778289952970,-0.13132046,0.09803888,1.044919,-0.36799622,0.9391327,0.039871216
787,1778289952980,-0.0982647638888888,0.0618092422222222,0.8623510711111112,-0.48180305,0.4124857688888889,-0.0134599472222222
788,1778289952990,-0.0949974933333333,0.0494300766666666,0.8181494933333333,-0.5400390666666666,0.1739196866666666,-0.03523763
789,1778289953000,-0.1506968233333333,0.0371196935555555,0.8600732355555556,-0.7661166733333332,-0.6876458022222223,-0.0359395355555555
790,1778289953010,-0.13506335,0.0198996786666666,0.9402592133333332,-0.8457692499999999,-0.9675140533333332,-0.0224456793333333
791,1778289953020,-0.1142371533333333,0.0078590796333333,1.0082699333333334,-0.87612406,-1.1012064666666666,-0.018717448
792,1778289953030,-0.0702256833333333,-0.0158145963666666,1.1439658,-0.8376617355555556,-1.1702117555555556,-0.0370669902222222
793,1778289953040,-0.0424708983333333,-0.0306746757777777,1.2000987555555556,-0.8136376377777778,-1.1699795222222222,-0.0484924311111111
794,1778289953050,-0.0260101076666666,-0.0487349696666666,1.2473372555555555,-0.7418467277777778,-1.1648915666666666,-0.0866682255555555
795,1778289953060,-0.0382129907777777,-0.0563282438888888,1.274943077777778,-0.6367373944444444,-1.1535254333333331,-0.11673143
796,1778289953070,-0.0571279079999999,-0.053887945,1.2779943,-0.5671997,-1.1434631,-0.12205505
797,1778289953080,-0.0778481268,-0.0554250217,1.21985973,-0.465151978,-1.1163025,-0.0804046628
798,1778289953090,-0.0777778222222222,-0.0517725567777777,1.2037735777777778,-0.4224463611111111,-1.094940211111111,-0.0566592755555555
799,1778289953100,-0.0644498466666666,-0.0472172153333333,1.1760186666666668,-0.3805999766666666,-0.9618378,-0.0068308516666666
800,1778289953110,-0.0314207646666666,-0.0453050696666666,1.1513686666666667,-0.35201518,-0.7521565666666666,0.0471496575
801,1778289953120,-0.016980652,-0.044491578,1.1451044,-0.34455872,-0.6763458,0.06437683
802,1778289953130,0.0315329281555555,-0.0408311273333333,1.1462160666666668,-0.2788696288888889,-0.4174855466666666,0.0746154766666666
803,1778289953140,0.058840438,-0.0381060103333333,1.1370099666666666,-0.2328847233333333,-0.2674611333333334,0.0697021476666666
804,1778289953150,0.0710433193333333,-0.045020425,1.0742067666666668,-0.2075551333333333,-0.1553717722222222,0.0243631997777777
805,1778289953160,0.0371739606666666,-0.0569656273333333,1.0280526222222222,-0.2059004,-0.1404588477777777,-0.0113830566666666
806,1778289953170,-0.0116103673999999,-0.0646509119999999,0.99515576,-0.222053525,-0.208961485,-0.01206207278
807,1778289953180,-0.0466463705555555,-0.0723958555555555,0.9765695111111112,-0.2652520055555555,-0.2700619166666667,0.0301649291333333
808,1778289953190,-0.0695606493333333,-0.0811821466666666,0.9649908855555556,-0.3108842588888889,-0.2955101888888889,0.0731319822222222
809,1778289953200,-0.0288840265,-0.0758801977777777,1.019063231111111,-0.4252827966666667,-0.1718292244444444,0.1434394
810,1778289953210,0.0203070295,-0.0688835133333333,1.079806,-0.4787852,-0.0767771403333333,0.1714324966666666
811,1778289953220,0.0616198244444444,-0.0771005151111111,1.1398434666666666,-0.4649997333333333,0.1948106575555555,0.1310729988888889
812,1778289953230,0.10792331,-0.0899138228888888,1.2023493,-0.409718831111111,0.4860466888888889,0.0565032966666666
813,1778289953240,0.1185130375555555,-0.0923136831111111,1.2123830222222225,-0.3702986,0.5640530088888889,0.0175611707777777
814,1778289953250,0.0652068255,-0.090984998,1.20184815,-0.24315186,0.549780264,-0.0617614764
815,1778289953260,0.0103545110666666,-0.0888696133333333,1.1894415,-0.16204834,0.4975789333333333,-0.0876057933333333
816,1778289953270,-0.0314743410555555,-0.0937909977777777,1.1727238777777778,-0.1051720502222222,0.4181552466666667,-0.0815107544444444
817,1778289953280,-0.0789093999999999,-0.09946521,1.1572469,-0.04628753675,0.324272155,-0.064664841375
818,1778289953290,-0.0797513532,-0.0947917579999999,1.15999242,-0.0134765624,0.27547302,-0.0393890384
819,1778289953300,-0.0294277366666666,-0.0702391633333333,1.1531584333333331,0.1113789866666666,0.15403748,0.018213908
820,1778289953310,-0.016370922,-0.06767685,1.144616,0.1457638222222222,0.1375885022222222,0.0149586995555555
821,1778289953320,-0.0090626384222222,-0.06360905,1.0927406333333334,0.1773037377777777,0.0834927033333333,-0.0007849801111111
822,1778289953330,-0.0146215799333333,-0.0572637499999999,1.0439427666666663,0.1937527111111111,0.0051303455555555,-0.0151078967777777
823,1778289953340,-0.029915625,-0.05303401,1.0183165,0.18754578,-0.12826538,-0.030441284
824,1778289953350,-0.0548231046666666,-0.0560980406666666,0.9950774466666668,0.1709204777777777,-0.22579617,-0.0149366591111111
825,1778289953360,-0.065629384,-0.055392565,0.9698720166666668,0.14156596,-0.3404337533333333,0.015721639
826,1778289953370,-0.0296709039999999,-0.0495757655555555,0.973993908888889,0.0900149866666666,-0.3956553155555555,0.0413513193333333
827,1778289953380,0.0059884138444444,-0.0486673942222222,0.9965958555555556,0.0432027181111111,-0.4043545177777777,0.0486907966666666
828,1778289953390,0.014991255,-0.049372524,1.0078219,0.028289795,-0.39938354,0.046798706
829,1778289953400,0.0236285683333333,-0.0526954461111111,1.0553046777777777,0.0342644586666666,-0.3164588166666666,0.0289221871111111
830,1778289953410,0.0225579126666666,-0.0588917699999999,1.0696498333333333,0.0574035646666666,-0.2713674,0.022115072
831,1778289953420,0.0179206506666666,-0.0645048033333333,1.0664778333333331,0.1106770866666666,-0.2543182333333333,0.029927572
832,1778289953430,0.0144363103333333,-0.0666065361111111,1.0618001777777777,0.14257304,-0.2468041333333333,0.0359107115555555
833,1778289953440,0.0172697895555555,-0.07200285,1.0356179666666665,0.1528642455555555,-0.2380438944444444,0.0456763366666666
834,1778289953450,0.0201575348888888,-0.0749583444444444,1.0106698333333333,0.1313832633333333,-0.2150183799999999,0.0569220648888888
835,1778289953460,0.019995078,-0.07463274,1.0061141,0.11457825,-0.19963074,0.061187744
836,1778289953470,0.0461360162222222,-0.0782119644444444,1.084700788888889,0.0675845677777777,-0.0251617422222222,0.0442538793333333
837,1778289953480,0.0577423046666666,-0.08203556,1.1293225,0.0680542,0.0746765133333333,0.020339966
838,1778289953490,0.0510275027,-0.085542387,1.17597863,0.1122848499999999,0.183015444,-0.0210174558
839,1778289953500,0.0354256572222222,-0.0803954466666666,1.1932379444444443,0.1768951399999999,0.2245229066666666,-0.040562948
840,1778289953510,0.0280224923333333,-0.0776838088888888,1.196627411111111,0.2051239,0.23872375,-0.04801941
841,1778289953520,0.0042938565555555,-0.0708497594444444,1.1987155111111112,0.3095787933333333,0.2168223066666667,-0.0402696397777777
842,1778289953530,-0.0040584678888888,-0.063446249,1.196844488888889,0.3577524888888889,0.2101966022222222,-0.0303276911111111
843,1778289953540,-0.0071634559333333,-0.0533722333333333,1.1997054333333337,0.4199540933333333,0.2146369111111111,-0.013514201
844,1778289953550,0.0084297501777777,-0.0497800477777777,1.2096031555555555,0.4746992322222222,0.2545810333333333,-0.0058169893333333
845,1778289953560,0.0160230237777777,-0.0478817291111111,1.2106878222222222,0.5147043877777777,0.2815721355555556,-0.0112626817777777
846,1778289953570,-0.0072184494,-0.036193349,1.2134411,0.568487552,0.25907593,-0.013607788
847,1778289953580,-0.0149198768888888,-0.0319905707777777,1.2184852444444445,0.5877889000000001,0.23665704,-0.011445787
848,1778289953590,-0.0385788636666666,-0.0210621043333333,1.265385,0.6756134166666666,0.1425018326666666,0.0205179853333333
849,1778289953600,-0.0546464762222222,-0.0117334872222222,1.3089353222222222,0.7677561555555555,0.0834333628888888,0.0533735506666666
850,1778289953610,-0.059202854,-0.007882929,1.3270495,0.81178284,0.06614685,0.06758118
851,1778289953620,-0.0580366262222222,-0.0033268959777777,1.3319308111111112,0.91950142,0.0637783477777777,0.0978190115555555
852,1778289953630,-0.0519208405555555,0.0069648789999999,1.3309006222222224,1.0350273888888888,0.0661519388888888,0.1275261777777777
853,1778289953640,-0.0263764983333333,0.0161168676666666,1.2569239,1.1448618333333334,0.1382395433333333,0.1472880066666666
854,1778289953650,0.0074993596,0.028873174,1.18832702,1.15853272,0.175558472,0.143527226
855,1778289953660,0.0246598197777777,0.0371736167777777,1.1617410444444445,1.1417864,0.18481276,0.1300693122222222
856,1778289953670,0.0356280355555555,0.0579583371111111,1.1809683444444443,1.1100616,0.1155141233333333,0.0734914166666666
857,1778289953680,0.0343942323333333,0.0607380666666666,1.1915983666666667,1.1197729777777778,0.0907745388888889,0.0571577304444444
858,1778289953690,-0.0122747782222222,0.0628398022222222,1.213387233333333,1.184463466666667,0.0366821293333333,0.0318857826666666
859,1778289953700,-0.0364909545555555,0.0665280755555555,1.220220077777778,1.2418077111111112,0.0063764783333333,0.0386369482222222
860,1778289953710,-0.0255496994444444,0.0851849624444444,1.2584959666666669,1.3192138666666666,-0.0112660727333333,0.05922953
861,1778289953720,-0.0018483716666666,0.0949471993333333,1.2858031,1.4218343,0.0006306966666666,0.0521240233333333
862,1778289953730,0.006816076,0.0976859708888888,1.292501288888889,1.4837951666666669,0.0187428793333333,0.041651409
863,1778289953740,0.0157238624999999,0.1047497949999999,1.26188625,1.6167083599999998,0.0661499003999999,0.01068115242
864,1778289953750,0.0247400106666666,0.1215767133333333,1.215555811111111,1.7132466444444443,0.0493418361111111,-0.0245242654666666
865,1778289953760,-0.0068521973333333,0.13692468,1.1758563666666666,1.8013017666666664,-0.0647650853333333,-0.050621881
866,1778289953770,-0.045046868,0.1449781966666666,1.1343667333333334,1.8557485,-0.15081787,-0.0405578623333333
867,1778289953780,-0.0563953,0.14721543,1.1191131,1.8749237,-0.18153381,-0.03416443
868,1778289953790,-0.0699000783333333,0.1673909266666666,1.0405669666666666,1.9010315333333336,-0.3544565733333333,0.0334777844
869,1778289953800,-0.0691679888888888,0.1738447577777777,1.0146563777777775,1.8965946222222223,-0.4016248777777778,0.0546095122222222
870,1778289953810,-0.0197346557142857,0.1977703014285714,1.0124765214285714,1.8158852857142855,-0.3801247657142857,0.08165196
871,1778289953820,0.032563359375,0.2192126825,1.0288265375,1.763006225,-0.328739165,0.082019805
872,1778289953830,0.0618502,0.22836542,1.0363781,1.7540131,-0.28912354,0.06437683
873,1778289953840,0.05248513675,0.22908208875,1.0528966375,1.739633575,-0.269147875,0.0256271359149999
874,1778289953850,0.0176001018125,0.23275835375,1.0782936,1.7802563,-0.2471771275,0.0040435791025
875,1778289953860,0.0252144183666666,0.2437000788888889,1.0792090555555556,1.8427344222222224,-0.2096354222222222,0.0114050968888888
876,1778289953870,0.0401161475555555,0.2583159677777777,1.102476088888889,1.9136979555555556,-0.096189712,-0.0013766819
877,1778289953880,0.0433161893333333,0.2635498211111111,1.1119130666666666,1.9464840222222224,-0.0410308837777777,-0.0075344510111111
878,1778289953890,0.0329701473333333,0.2699096244444444,1.092646111111111,2.0798679333333334,0.1350419782222222,-0.015818278
879,1778289953900,0.0246924838,0.271807702,1.07006947,2.1218521299999997,0.181150818,-0.01285705559
880,1778289953910,0.0199949062222222,0.2980033244444444,0.9700619555555556,2.1942714777777774,0.2709282788888889,0.0302259653777777
881,1778289953920,0.0271815208888888,0.3126727911111111,0.9342795977777778,2.219779133333333,0.2964850599999999,0.0544925264444444
882,1778289953930,0.0231135475555555,0.3217309244444444,0.8952033266666667,2.236696,0.3232387955555555,0.0746171751111111
883,1778289953940,0.0244014453333333,0.3322655255555555,0.8726822222222222,2.2304856777777777,0.3192731977777778,0.0837249761111111
884,1778289953950,0.0232894842222222,0.34216291,0.8520457911111111,2.2212558111111114,0.3092091755555555,0.0916527638888888
885,1778289953960,-0.0059573043333333,0.3638165666666667,0.8205495,2.1782243111111113,0.2853563066666666,0.1187676299999999
886,1778289953970,0.0039138128888888,0.3847247055555555,0.8387050111111112,2.1497582222222227,0.28009542,0.1456926144444444
887,1778289953980,0.0416347673333333,0.3955442899999999,0.8715982800000001,2.1807742444444447,0.2775522888888889,0.1495988677777777
888,1778289953990,0.0649830141111111,0.3929133533333333,0.8511922366666665,2.252978777777778,0.2721066,0.1275855193333333
889,1778289954000,0.0758029466666666,0.3950963233333333,0.8163192666666667,2.3276671666666666,0.2655334566666666,0.0949147539999999
890,1778289954010,0.0579870266666666,0.4155160566666667,0.7499354666666667,2.4029439666666668,0.28399659,0.0476837166666666
891,1778289954020,0.0538245163333333,0.4326543222222223,0.7005271722222223,2.4267951333333335,0.3135291244444444,0.0189208993066666
892,1778289954030,0.0561890491999999,0.464270952,0.629338076,2.4198074000000003,0.32421112,-0.01792144778
893,1778289954040,0.0497026222222222,0.4784152888888888,0.6006257800000001,2.397196422222222,0.3050062422222222,-0.0413835315555555
894,1778289954050,0.0312897637777777,0.4942653111111111,0.5804096677777778,2.368735422222222,0.2861853733333333,-0.0493096248888888
895,1778289954060,-0.0400848666666666,0.5568121777777778,0.5014448688888888,2.1496446444444444,0.1389397533333333,-0.0209689673333333
896,1778289954070,-0.044966158,0.5715638888888889,0.48888906,2.0705803333333335,0.0695800795555555,0.0037706162222222
897,1778289954080,-0.027014226,0.6051895555555556,0.49920726,1.926352611111111,-0.0376044378888888,0.0375671397777777
898,1778289954090,-0.0136724208888888,0.6110879444444445,0.5363039822222222,1.869718777777778,-0.0557115342222222,0.0388115788888888
899,1778289954100,-0.00536344071,0.611352466,0.56446801,1.84052124,-0.0492218016,0.0355102548
900,1778289954110,0.009317426625,0.6342324925,0.566261275,1.830318425,0.0790672315,0.014034271
901,1778289954120,0.00882894311,0.641530179,0.554998245,1.82655942,0.13070679,0.0039642332
902,1778289954130,0.0072630034666666,0.6565641000000001,0.5230705333333333,1.809941577777778,0.2203725155555555,-0.0143415663333333
903,1778289954140,0.0072903100666666,0.6630447355555555,0.5141219444444444,1.8058047777777777,0.2417958533333333,-0.0197838678888888
904,1778289954150,0.0068159034,0.66656953,0.50897,1.8046265,0.24830627,-0.022445679
905,1778289954160,-0.0335893814,0.6921418566666666,0.4663135,1.7340749,0.2300872788888888,-0.0396711568888888
906,1778289954170,-0.0457108631111111,0.69827077,0.4631542444444444,1.7034149,0.20677185,-0.04109192
907,1778289954180,-0.0532232545555555,0.7204794188888889,0.4840345444444445,1.6712256444444444,0.1277703166666667,-0.0017344154444444
908,1778289954190,-0.0456166739999999,0.7337667866666666,0.4717910466666667,1.6576080333333334,0.098826091,0.0150146486666666
909,1778289954200,-0.037237044,0.7507697266666667,0.42086518,1.6110890333333332,0.0093383789999999,0.0327758793333333
910,1778289954210,-0.0379813168,0.76941578,0.405819233,1.5648773,-0.0663696264,0.0446716301
911,1778289954220,-0.0369114382222222,0.7764772133333333,0.40748294,1.5492485777777778,-0.0889672144444444,0.0473937977777777
912,1778289954230,-0.0153401894444444,0.7870935555555555,0.4238619822222222,1.5487111333333334,-0.0422142884444444,0.0240698922222222
913,1778289954240,-0.0054424567333333,0.7933305,0.4169199088888888,1.5529734222222222,0.0112864177333333,0.0054812958444444
914,1778289954250,-0.0072592016,0.80531611,0.4012589466666666,1.5495503444444445,0.0642038976666666,-0.0117340084333333
915,1778289954260,-0.0195429666666666,0.8194715766666667,0.3731108133333333,1.5503743333333333,0.13149007,-0.04393514
916,1778289954270,-0.023203935,0.82215625,0.36558563,1.5553436,0.1247406,-0.04801941
917,1778289954280,-0.042337616,0.8436582399999999,0.291245942,1.50538636,0.1282562239999999,-0.043655396
918,1778289954290,-0.0472571364444444,0.8548737333333334,0.2632717322222222,1.4594709777777777,0.13456726,-0.03819275
919,1778289954300,-0.0565447919999999,0.8609753777777778,0.2139861377777777,1.3695763444444444,0.1601952466666666,-0.0279507111111111
920,1778289954310,-0.0569239727777777,0.8669959266666667,0.1720618888888888,1.2410922222222225,0.1816118022222222,-0.00995890285
921,1778289954320,-0.052368287,0.8693823,0.1653362,1.1835632,0.18492126,0.00045776367
922,1778289954330,-0.0249795474444444,0.8646904333333334,0.2013759111111111,1.097934311111111,0.1782413055555555,-0.0031585692588888
923,1778289954340,-0.0157596373333333,0.8642566333333332,0.2166706466666666,1.0678066666666668,0.1693047433333333,-0.0100267198888888
924,1778289954350,-0.0012995635,0.8711508499999999,0.2372127299999999,1.0604187,0.157235716,-0.034597778
925,1778289954360,0.0013243639611111,0.8646767777777778,0.2572793599999999,1.1056857777777778,0.1341535766666666,-0.0838860388888888
926,1778289954370,-0.0032041899333333,0.8623584844444445,0.2531709411111111,1.120897088888889,0.1317274299999999,-0.0909288177777777
927,1778289954380,-0.0507409574444444,0.8738293,0.1848076266666666,1.1521504666666669,0.09278361,-0.093292236
928,1778289954390,-0.05880505125,0.880059205,0.17320825,1.15494535,0.06241989075,-0.0853042605
929,1778289954400,-0.078767594,0.8941935333333332,0.1153866133333333,1.1317291333333337,0.021942139,-0.04854838
930,1778289954410,-0.085682526,0.8962275,0.08931291,1.1191254,0.017684937,-0.0357666
931,1778289954420,-0.081254658,0.9050656871428572,0.0931481608571428,1.0752912571428572,-0.0123835972,-0.0105765205714285
932,1778289954430,-0.0551447317499999,0.9333856175,0.13199357,0.9825058,-0.080459596,0.0406799325
933,1778289954440,-0.0510397736666666,0.9379479888888888,0.1266406833333333,0.9688042444444444,-0.0964202888888888,0.0450269915555555
934,1778289954450,-0.0423354035555555,0.9353855333333334,0.1000383057777777,0.9387359666666668,-0.1078389483333333,0.0538991286666666
935,1778289954460,-0.0397512436,0.9348865199999998,0.0661276403999999,0.9047882,-0.096304322,0.0542541498
936,1778289954470,-0.0353259366666666,0.939019,0.026670476,0.8627471999999999,-0.0916900633333333,0.0453796383333333
937,1778289954480,-0.0209672246666666,0.9432497666666668,-0.0067650923333333,0.8102501777777777,-0.0987294522222222,0.0313517248888888
938,1778289954490,-0.0137266881777777,0.9446194,-0.0184116493333333,0.7746802277777777,-0.1016286233333333,0.0208146833333333
939,1778289954500,-0.0102280025333333,0.9518321333333332,-0.0141269519999999,0.7047373444444445,-0.07139757,-0.0136294895555555
940,1778289954510,-0.0141736152222222,0.9552760333333332,-0.0114153153333333,0.6660308833333333,-0.0473124186666666,-0.0329233806666666
941,1778289954520,-0.0362203086666666,0.9494725333333334,0.0009633311333333,0.5974884166666666,-0.055826824,-0.032221476
942,1778289954530,-0.058152936,0.94418491,0.03376563088,0.5734329349999999,-0.07899475,-0.01605987535
943,1778289954540,-0.067134,0.94272095,0.051729005,0.57476807,-0.08778381,-0.0048675537
944,1778289954550,-0.0640698,0.9503137,0.0466308166666666,0.5742356977777777,-0.10080295,0.0115865075333333
945,1778289954560,-0.0424572466666666,0.9647401555555556,0.0381696122222222,0.5736490777777777,-0.1249491366666666,0.0317111553333333
946,1778289954570,-0.0275565533333333,0.9612689433333332,0.0226439793333333,0.5763109111111111,-0.1137084955555555,0.0192752414444444
947,1778289954580,-0.0384984986666666,0.9617568133333332,-0.0133549403333333,0.5676676666666666,-0.0945332853333333,0.010035197
948,1778289954590,-0.043339003,0.9627331,-0.02759181,0.5635834,-0.08885193,0.007904053
949,1778289954600,-0.0477322327777777,0.972414811111111,-0.1028418822222222,0.4419657433333333,-0.0961303733333333,0.0029398600366666
950,1778289954610,-0.0593653066666666,0.9771467844444444,-0.1191260466666666,0.3926086466666666,-0.0876108833333333,0.0002746582033333
951,1778289954620,-0.044265416,0.959243211,-0.127227964,0.282940672,-0.0732406622,0.00396728513
952,1778289954630,-0.0350812133333333,0.9711936566666668,-0.1258645266666666,0.16659546,-0.0473022453333333,-0.0125020342
953,1778289954640,-0.0371288533333333,0.9809558888888888,-0.1211591733333333,0.1130930613333333,-0.0355868857777777,-0.0200771751111111
954,1778289954650,-0.0421451232222222,0.9675874444444444,-0.0751952891111111,-0.0479380273333333,-0.0162929956666666,-0.0026245116577777
955,1778289954660,-0.0413314587777777,0.9656621666666668,-0.0570810726666666,-0.0762244322222222,-0.0093078610666666,0.0015190972311111
956,1778289954670,-0.0337388753333333,0.9686043444444444,0.0364059254444444,-0.10806783,0.0665079752333333,0.00684611
957,1778289954680,-0.0282067233333333,0.9675736,0.060025681,-0.0961761466666666,0.121729532,-0.0009613036666666
958,1778289954690,-0.0234075242222222,0.9736342777777778,0.0450171432222222,-0.0781216094444444,0.1400112588888888,-0.0192515055555555
959,1778289954700,-0.0311089855555555,0.9776749444444444,0.0195533369111111,-0.0795457627777777,0.1332668744444444,-0.0254058837777777
960,1778289954710,-0.0430947993333333,0.9799802666666666,-0.0096939708,-0.0993754066666666,0.1017795144444444,-0.0244615342222222
961,1778289954720,-0.0502539366666666,0.9755877133333334,-0.0226289436666666,-0.1487325016666666,0.05087789,-0.0157063803333333
962,1778289954730,-0.0460479424,0.974107028,-0.0207332874,-0.1942535379999999,0.0282257086,-0.0124359131999999
963,1778289954740,-0.0324504594444444,0.970176888888889,-0.0237813457777777,-0.2331254766666667,0.0429484047777777,-0.0159369572222222
964,1778289954750,-0.0317864655555555,0.9625977866666666,-0.0566481432222222,-0.2740834566666666,0.0750223809999999,-0.0263570149999999
965,1778289954760,-0.0323561,0.96078104,-0.065542795,-0.2918396,0.08798218,-0.030975342
966,1778289954770,-0.0309323593333333,0.9611061133333334,-0.1002393016666666,-0.3546803755555555,0.0751393638888889,-0.0349375413333333
967,1778289954780,-0.0310007966666666,0.9551536444444444,-0.1279391266666666,-0.4446292333333333,0.0538347028888888,-0.0392523885555555
968,1778289954790,-0.0290210777777777,0.9310327055555556,-0.1365762655555555,-0.56987,0.0782216386666666,-0.0526326496666666
969,1778289954800,-0.0284782327777777,0.9242942277777778,-0.1392061544444444,-0.6264411111111111,0.0953233488888888,-0.0616878937777777
970,1778289954810,-0.0302809786666666,0.9219486444444444,-0.1324808116666666,-0.6572130022222222,0.077924938,-0.0680796311111111
971,1778289954820,-0.0420934136,0.91138332,-0.042528313,-0.721711731,-0.0691497807,-0.088334653
972,1778289954830,-0.0540770164444444,0.9103691333333336,-0.0320120016666666,-0.7234395333333333,-0.1650238033333333,-0.0938262933333333
973,1778289954840,-0.0715001,0.909786188888889,-0.0353470201111111,-0.7279968222222223,-0.2648603633333333,-0.08985901
974,1778289954850,-0.0776285,0.90940666,-0.039794173,-0.7346225266666667,-0.3312615266666666,-0.0843522826666666
975,1778289954860,-0.1066853566666666,0.9012038355555556,-0.0621516066666666,-0.7613203288888889,-0.4476725244444444,-0.0694461394444444
976,1778289954870,-0.12282003,0.89350238,-0.1133775199999999,-0.8451199066666667,-0.5711754611111111,-0.0208502873333333
977,1778289954880,-0.1183051286666666,0.8902074466666667,-0.13562746,-0.9125213666666668,-0.6113586466666666,0.0048929851333333
978,1778289954890,-0.0890592032222222,0.875373988888889,-0.14957933,-1.080301888888889,-0.6320173499999999,0.0437808562222222
979,1778289954900,-0.0587629796,0.8543229200000001,-0.1245061079999999,-1.25835109,-0.680662519,0.084136962
980,1778289954910,-0.0429994003333333,0.8446098088888889,-0.0947608913333333,-1.3063828777777775,-0.6950513844444445,0.0930786122222222
981,1778289954920,0.0101784018888888,0.830319,0.1019632391111111,-1.418701166666667,-0.64580282,0.08123779
982,1778289954930,0.0063278433555555,0.8263052933333334,0.1775123022222222,-1.4208916444444446,-0.6001146133333334,0.0703464055555555
983,1778289954940,-0.0051980809333333,0.8198779244444444,0.2238021255555555,-1.3571506111111111,-0.5117628311111111,0.0627712667777777
984,1778289954950,-0.0050618943333333,0.8218312,0.2283042433333333,-1.3302815666666663,-0.4801635733333333,0.0592244476666666
985,1778289954960,-0.0057125834666666,0.8356610666666666,0.2010504866666666,-1.3544362,-0.2829030366666666,0.0324198413333333
986,1778289954970,-0.0052245234222222,0.8352269222222222,0.19288775,-1.4024895333333331,-0.04777527,0.0051930748888888
987,1778289954980,-0.0039227996,0.8299661,0.19706391,-1.4439087,0.12739563,-0.012863159
988,1778289954990,-0.0128986794888888,0.8159734444444444,0.2243174966666666,-1.5053507777777777,0.3239474844444444,-0.0036926269444444
989,1778289955000,-0.0180647876666666,0.809451711111111,0.2356527911111111,-1.5331030888888888,0.3901078988888888,0.0090315076888888
990,1778289955010,-0.0212921362222222,0.7947819222222222,0.2162633011111111,-1.5764787555555555,0.3845452233333333,0.0244835748888888
991,1778289955020,-0.0317048906666666,0.7848565000000001,0.1880335833333333,-1.6498667333333334,0.3363749099999999,0.0274403886666666
992,1778289955030,-0.0386873982222222,0.78110046,0.1742171944444444,-1.6809387,0.3138275,0.02708435
993,1778289955040,-0.0573712465555555,0.7671081622222222,0.1639133266666666,-1.8551042444444448,0.1518385144444444,0.0524173311111111
994,1778289955050,-0.0457379979999999,0.7553665666666666,0.1971458266666667,-1.9728139333333337,0.0451965313333333,0.0752054839999999
995,1778289955060,-0.0100252782666666,0.7442213666666667,0.2754887933333333,-2.1265716666666665,-0.0876057953333333,0.1029052733333333
996,1778289955070,-0.0033540300766666,0.7401124133333332,0.31958166,-2.1752166666666666,-0.0861867279999999,0.1021931966666666
997,1778289955080,-0.00050551543,0.73344064,0.37766668,-2.230606,-0.047836304,0.09686279
998,1778289955090,-0.003190346729,0.715625347,0.443403127,-2.25798339,0.00782470695,0.0846191402
999,1778289955100,-0.0027154386177777,0.7038566733333335,0.4921018933333333,-2.2806125555555554,0.0642513698888888,0.0707126203333333
1000,1778289955110,0.00834178152,0.6910364499999999,0.5388662,-2.267168075,0.083057403125,0.048528671375
