id,timestamp,acc_x,acc_y,acc_z,gyro_x,gyro_y,gyro_z
0,1778413279310,0.563478,0.93307275,0.9885943,0.5414397,2.9219115,-2.142852
1,1778413279320,0.7764544777777779,1.033668,1.0428996,0.7161420333333334,3.2489185000000003,-2.2328502666666665
2,1778413279330,1.0266859,1.1292833,1.01219324,0.897563711111111,3.6257432666666665,-2.4237061444444445
3,1778413279340,1.2625940111111111,1.2921757111111112,0.9034741588888888,0.9614990666666664,3.8495848666666665,-2.6832993
4,1778413279350,1.32891294,1.34683474,0.902101432,0.96109184,3.968170760000001,-2.8506562200000003
5,1778413279360,1.5906924666666666,1.4546072333333333,1.18439836,0.9062513333333332,4.216907933333334,-3.170848833333333
6,1778413279370,1.9925993333333336,1.5334533666666663,1.6790614,1.029846088888889,4.447197288888889,-3.3355738777777777
7,1778413279380,2.6832664,1.5639327,2.398951,1.617005977777778,4.952096155555555,-3.583713577777778
8,1778413279390,2.933416511111111,1.5278703666666666,2.555006833333333,2.179502922222222,5.296071166666667,-3.8848612
9,1778413279400,3.14145172,1.4343947,2.65993566,2.76383945,5.563604549999999,-4.157869209999999
10,1778413279410,3.0600430666666667,1.1565850555555557,2.4441771222222224,3.714596055555555,5.573836888888888,-4.423832088888889
11,1778413279420,2.927657166666666,0.9502146611111112,2.2100476333333336,4.334062922222222,5.391499,-4.570367444444445
12,1778413279430,2.5630153,0.572466366,1.83832678,5.285180479999999,4.363144440000001,-4.3988487
13,1778413279440,2.504654911111111,0.4304960022222222,1.5585665,5.6245205,3.8774123222222223,-4.117458555555555
14,1778413279450,2.5907778111111113,0.4598913444444444,1.4334508,5.8254213,3.5706313,-3.909499
15,1778413279460,3.01615462,0.626039552,0.8756639199999998,5.9397718,2.9965569800000003,-3.5100048
16,1778413279470,3.0979382666666666,0.6154864433333334,0.6201039444444444,5.719880444444445,2.9058258555555554,-3.566542
17,1778413279480,2.856149,0.4255397366666666,0.2740708638888889,5.481777266666666,2.9010069888888887,-3.644391033333333
18,1778413279490,2.08559724,0.0624670584,-0.059192473,4.01693142,3.31468634,-3.82147569
19,1778413279500,1.815434477777778,-0.0341855990555555,-0.1223546933333333,3.673329811111111,3.4455434555555557,-3.766424755555556
20,1778413279510,0.93448741,-0.267168045,-0.2553868589999999,2.6309800599999997,3.7080719800000006,-3.14960488
21,1778413279520,0.7863602333333334,-0.3047569422222222,-0.2671090777777777,2.3940376666666667,3.7001988,-2.9212837
22,1778413279530,0.4493283822222222,-0.4264781411111111,-0.3185449911111111,1.9330856111111112,3.452262644444444,-2.258794322222222
23,1778413279540,0.267744272,-0.575323217,-0.4352814859999999,1.6994839900000005,3.1821936,-1.84561395
24,1778413279550,0.1954280612222222,-0.66360919,-0.5128720644444444,1.6187707,3.0375568888888886,-1.6973409888888886
25,1778413279560,-0.231202503,-1.1137438766666667,-0.9395365666666669,1.222602288888889,2.169746377777778,-1.1692974333333332
26,1778413279570,-0.470868918,-1.2464996199999998,-1.10937572,1.042762068,1.83324417,-0.97784435
27,1778413279580,-0.8070898,-1.3927032,-1.3093448,0.21463646,0.2921377,-0.04703524
28,1778413279590,-0.71249278,-1.40309406,-1.20918644,-0.1178324379999999,-0.38155046,0.403815854
29,1778413279600,-0.6494281,-1.4100213,-1.1424142,-0.33947837,-0.8306759,0.70438325
30,1778413279610,0.0380611633333333,-1.3861784,-0.5523899800000001,-1.0712733788888888,-1.706087922222222,1.7870081833333331
31,1778413279620,0.378790392,-1.3346998,-0.310219326,-1.2911784000000002,-1.70266035,2.0723757
32,1778413279630,0.7355273222222222,-1.1567849222222222,0.0869292011111111,-1.5184135777777776,-0.8691592777777778,2.1478153777777775
33,1778413279640,0.6701915444444445,-1.015563922222222,0.3191582011111111,-1.5116264222222222,-0.3450523457777777,2.1016624666666663
34,1778413279650,0.65378815,-1.0031987,0.3372453,-1.4542747,0.058106847,2.0500798
35,1778413279660,0.1374978655555555,-0.7760581666666666,0.3083818333333333,-0.683317511111111,0.2490305407777777,2.2950973666666665
36,1778413279670,0.070327277,-0.72885047,0.285080673,-0.3830088652,0.162248658,2.43045433
37,1778413279680,0.18750077,-0.5850646333333333,0.2052863633333333,0.5996059795555556,-0.5937350355555556,2.817371744444445
38,1778413279690,0.28831627,-0.5063202044444445,0.1693865688888889,1.1934173666666668,-0.9565104533333332,2.8471081333333337
39,1778413279700,0.4377084529999999,-0.387720798,0.085172649,1.49680482,-1.12247766,2.83564456
40,1778413279710,0.545916,-0.19408653,-0.2059266433333333,2.1510222666666667,-1.3272947666666666,2.6208400666666667
41,1778413279720,0.5311183666666666,-0.1368169266666666,-0.4057960233333333,2.3819903555555557,-1.3681535555555555,2.478012288888889
42,1778413279730,0.50833452,-0.0584424346,-0.55689832,2.4022026999999997,-1.3709092,2.43906742
43,1778413279740,0.49759,-0.019696271,-0.6128406,2.4088,-1.3712758,2.397652
44,1778413279750,0.49076036,0.010335969,-0.6545504,2.3886418,-1.3529503,2.3860457
45,1778413279760,0.4845269211111111,0.1077942306666666,-0.8591219444444445,2.3886418,-1.3529503,2.3860457
46,1778413279770,0.53346608,0.25698654,-1.2156298333333333,1.08224315,-1.02166748,2.6986724000000004
47,1778413279780,0.704888696,0.42570777,-1.38151962,-0.219492694,-0.793536368,3.0261679999999997
48,1778413279790,0.8970950533333334,0.5459464766666667,-1.3564409666666668,-1.4964231,-0.8893172999999999,3.4080696
49,1778413279800,0.9757615777777776,0.5680717466666666,-1.2714360222222223,-1.5512635999999995,-0.8953578999999999,3.4336573111111113
50,1778413279810,1.62889996,0.77722212,-0.51735944,-2.41171648,-0.918760116,3.89638076
51,1778413279820,1.9936054666666665,0.9059234333333333,-0.2377916491111111,-2.5866496333333333,-0.8500873055555556,3.9950937555555552
52,1778413279830,2.6220797300000003,1.11376317,0.1163970356,-2.66924985,-0.6989161700000001,3.9369412
53,1778413279840,2.9253738666666664,1.2343911333333333,0.2959115833333333,-2.600563411111111,-0.6414489944444445,3.698561422222222
54,1778413279850,3.023611333333333,1.296623766666667,0.3808386222222222,-2.5312661555555556,-0.6229878266666666,3.5149
55,1778413279860,3.2814231200000004,1.66946942,0.8489580480000001,-1.99463011,-0.7315964800000001,2.85684095
56,1778413279870,3.3999578666666666,1.792398011111111,1.062253688888889,-1.7432732555555557,-0.7214021288888889,2.6110835000000003
57,1778413279880,3.366527733333333,1.9016963,1.2992729333333335,-0.6626844511111112,-0.5642107866666666,1.582170688888889
58,1778413279890,2.8446354200000004,1.7888116,1.13459068,0.218706212,-0.5726540499999999,0.826247261
59,1778413279900,2.5085406,1.6825574333333335,0.9733902,0.4956261800000001,-0.5924455,0.59809583
60,1778413279910,1.69514158,1.3883188199999998,0.527750296,1.6215398799999998,-0.9479586,-0.0270910784
61,1778413279920,1.352169011111111,1.2575700555555551,0.3085884655555555,1.8869326333333332,-1.054856866666667,-0.090812629
62,1778413279930,0.8293268,1.0551936999999998,-0.104802855,1.8219113666666664,-1.1256472333333334,0.1624090162222222
63,1778413279940,0.7355307200000001,0.987313704,-0.189645204,1.6379106,-1.1327399,0.33879117
64,1778413279950,0.7335794,0.9670076399999998,-0.19452354,1.4919181,-1.1318237,0.45515758
65,1778413279960,0.8164737833333333,0.936707787777778,0.0590278348888888,1.1676939666666666,-1.0379567777777778,0.5835712399999999
66,1778413279970,0.8719563499999999,0.9356339,0.2177871,1.01698435,-0.9778901,0.614588715
67,1778413279980,0.9088572333333332,0.9565124622222222,0.4314106722222222,1.1231699888888889,-0.8680733222222222,0.4166063166666667
68,1778413279990,0.8911922600000001,0.963787942,0.4800463,1.24953386,-0.668923556,0.229510592
69,1778413280000,0.8758743,0.96603197,0.4797536,1.3123289,-0.55579466,0.13934954
70,1778413280010,0.7815869155555556,0.9200333444444444,0.4393345788888889,1.3430749000000002,-0.2595337356666667,-0.0450839172
71,1778413280020,0.6300123839999999,0.862940618,0.3971817279999999,1.35178968,0.0793796004,-0.234931848
72,1778413280030,0.3344978222222222,0.78574367,0.35334718,1.307442166666667,0.5752314622222222,-0.4252854266666667
73,1778413280040,0.1968712333333333,0.7612639444444445,0.3318249177777778,1.2684158666666667,0.8472621322222222,-0.4727279088888889
74,1778413280050,0.11345174,0.7485803,0.31870762,1.260407,0.89504397,-0.47585002
75,1778413280060,-0.0574186605555555,0.7425907666666666,0.2767776711111111,1.2367875333333334,1.0044534633333333,-0.4269822333333333
76,1778413280070,-0.1035792099999999,0.75511722,0.285260556,1.23035328,0.99931557,-0.386421962
77,1778413280080,-0.0276540514888888,0.8702303333333332,0.3941761333333333,1.2917638,0.9404502666666666,-0.3561239533333333
78,1778413280090,0.0557789972444444,0.93555595,0.4390601888888888,1.3299077666666663,0.9885714555555556,-0.3887024777777778
79,1778413280100,0.10296332,0.96408063,0.4560937,1.3434821,1.0611944,-0.4355341
80,1778413280110,0.2184138177777778,1.0527782444444445,0.50166884,1.261153588888889,1.4936742444444444,-0.6700994333333333
81,1778413280120,0.2593342233333333,1.098875066666667,0.5251525666666667,1.1845940333333334,1.7659763777777775,-0.8129019666666667
82,1778413280130,0.303316475,1.15235382,0.5561757390000001,0.98399855,2.24532185,-1.041799975
83,1778413280140,0.3290334222222222,1.1569747666666668,0.6294405155555556,0.7162099222222222,2.7650935444444444,-1.2897021777777775
84,1778413280150,0.341102217,1.15630536,0.6672096599999999,0.611870436,2.95080467,-1.3886391100000002
85,1778413280160,0.4736658566666666,1.1600373,1.0003226333333337,0.5613940733333334,3.3028766,-1.6995806333333334
86,1778413280170,0.5924159888888889,1.150145022222222,1.2346621444444446,0.6722967988888889,3.5472834222222223,-1.9308881555555557
87,1778413280180,0.7305731,1.13423072,1.50705738,0.875206686,4.03682976,-2.20601372
88,1778413280190,0.77540092,1.1301167333333335,1.645909,1.0213620833333334,4.4282608,-2.3063556666666667
89,1778413280200,0.7960830155555556,1.130116777777778,1.7204526777777778,1.0783745,4.5809727,-2.3383234
90,1778413280210,1.03264564,1.2147111,2.07772488,1.50193592,5.0176062,-2.12892476
91,1778413280220,1.5200717444444445,1.3713536555555554,2.4753003,2.022608611111111,4.963362888888889,-2.0029681
92,1778413280230,2.0934147999999997,1.4727451111111112,2.926380177777778,2.889791033333333,4.825718733333334,-2.1080338333333333
93,1778413280240,2.49111488,1.44714542,3.1486653799999997,3.66948161,4.81254469,-2.37387458
94,1778413280250,2.5946839999999995,1.3089178333333331,3.0974978,4.264019333333334,4.767280833333333,-2.6128228
95,1778413280260,2.3646988799999997,0.7136392199999999,2.63494648,5.6602327599999995,4.32014106,-2.98858548
96,1778413280270,2.1540282,0.3747779799999999,2.2024863666666668,6.344302022222222,3.741329222222222,-2.708310111111111
97,1778413280280,2.121160466666667,0.28390884,1.7536795666666665,6.629703344444445,3.334504933333333,-2.2862656111111113
98,1778413280290,2.35820157,0.38730918,1.3948709899999998,6.60632822,2.95550816,-2.00516718
99,1778413280300,2.449716,0.4247199,1.2990392,6.5908127,2.8797631,-1.9589871
100,1778413280310,2.706939777777778,0.2480022777777777,1.0291691555555555,6.3561118,2.1546957888888887,-2.201764911111111
101,1778413280320,2.6643811200000003,0.0956458258,0.8806794400000001,6.231757020000001,1.8637255,-2.3335587999999996
102,1778413280330,2.140927733333333,-0.2535005774444444,0.4264103733333333,5.909921933333333,1.8514271666666664,-2.4499048
103,1778413280340,1.81017872,-0.37740618,0.15055146424,5.4973962,1.98662805,-2.4559114
104,1778413280350,1.6289974,-0.4367633,-0.0007622396,5.23351,2.1100192,-2.4171226
105,1778413280360,1.4577272666666667,-0.4466893511111112,-0.0980036841333333,4.851509933333333,2.209247955555556,-2.2527367999999997
106,1778413280370,0.82704828,-0.47585703,-0.439324404,3.3661959799999996,2.56876556,-1.59064622
107,1778413280380,0.7061692666666667,-0.44245466,-0.37651586,2.4267348444444443,2.5571594666666666,-1.0334178111111112
108,1778413280390,0.63888892,-0.4357876133333333,-0.2908604533333333,1.9311172,2.4732697333333333,-0.7326094666666667
109,1778413280400,0.60990145,-0.43871462,-0.236855276,1.7217188,2.40395888,-0.6021732200000001
110,1778413280410,0.5715441744444445,-0.4451106644444444,-0.17190705,1.3353375444444444,2.1993385333333335,-0.3616215777777778
111,1778413280420,0.528683278,-0.4651186079999999,-0.1334163164,1.2310863,2.1368964,-0.30053684
112,1778413280430,0.4145838166666667,-0.5182348666666666,-0.0969263857777777,0.9684898666666668,1.9681668333333333,-0.1067625244444444
113,1778413280440,0.39093745,-0.52826256,-0.09009672,0.9128349,1.9310409,-0.06230642
114,1778413280450,0.3799612,-0.5273844240000001,-0.0865660296,0.89933516,1.90098717,-0.0241819156
115,1778413280460,0.27399973,-0.5546292333333334,-0.085469084,0.8788310333333333,1.6979008999999998,0.21875968
116,1778413280470,0.1361359877777777,-0.5913353066666667,-0.0841614199999999,0.9067942777777778,1.5925636555555558,0.3549107511111111
117,1778413280480,0.0865660279999999,-0.5879306420000001,-0.095365322,0.97098752,1.45543519,0.522045346
118,1778413280490,0.0295410186666666,-0.5665066277777778,-0.1302210188888889,1.0823110555555555,1.2053543222222225,0.7457172444444444
119,1778413280500,0.009756667,-0.5600022,-0.15476513,1.128464,1.0862391,0.8302178
120,1778413280510,0.0426142733333333,-0.5076922300000001,-0.2489576166666666,1.2482578,0.5301645244444445,1.0336299777777775
121,1778413280520,0.0614432822222222,-0.4899676122222222,-0.2844271388888889,1.2555200999999998,0.4777674022222222,1.0489011666666666
122,1778413280530,0.1078142125,-0.456090642,-0.307713057,1.23890516,0.2230661399999999,1.16887154
123,1778413280540,0.1441615266666666,-0.4289308555555555,-0.3251239766666666,1.1614497333333331,0.1880645933333333,1.2586253666666665
124,1778413280550,0.1583629,-0.4179817,-0.33413535,1.1315182,0.20478654,1.2798014
125,1778413280560,0.1069818489999999,-0.43298258,-0.369905728,0.915217175,0.4678173679999999,1.4164479
126,1778413280570,0.0434070055555555,-0.4557074777777777,-0.3724743055555555,0.728358991111111,0.7464723277777777,1.5850892444444444
127,1778413280580,0.00536921566,-0.451764149,-0.460475,0.6132142899999999,1.069318655,1.89840634
128,1778413280590,0.10467075,-0.39697438,-0.7516902,0.4327767911111111,1.2318244333333332,2.2685594555555557
129,1778413280600,0.12240891,-0.3814653444444444,-0.8173105555555555,0.314000934,1.2296525444444444,2.4013169222222226
130,1778413280610,0.21707975,-0.248691328,-1.26116508,-0.3944317090999999,1.035905342,2.83794291
131,1778413280620,0.22522657,-0.22906823,-1.3147109,-0.58503896,0.98422766,2.9389389
132,1778413280630,0.6460810377777777,0.0332539788888888,-1.289651833333333,-2.157631302222222,0.6483295022222222,3.8482867333333335
133,1778413280640,1.6870802,0.502712265,-1.028444225,-3.0382397,0.431105435,4.1966734
134,1778413280650,2.341186911111111,0.6867338288888889,-0.7085610122222223,-3.469536,0.30985227,4.2852464
135,1778413280660,3.68595898,1.089368412,0.305572732,-4.53302122,1.24860238,3.73169648
136,1778413280670,3.9807948,1.2691593888888888,0.7065520566666668,-4.90034408888889,2.2339533,3.1776444
137,1778413280680,3.5802091666666667,1.5072898111111113,1.069659293333333,-5.134502066666666,3.3696371,2.3514565333333333
138,1778413280690,3.2277677099999997,1.60963959,1.2789374,-5.1455787399999995,3.794690099999999,1.79767768
139,1778413280700,3.1298778,1.6322598,1.3390415,-5.1145477,3.8467343,1.6188216
140,1778413280710,2.956090533333333,1.6109781,1.4845276666666667,-4.968351544444444,3.7688173,1.5322170444444445
141,1778413280720,2.5400262,1.5322236,1.8064164000000005,-3.78595485,3.1838429,0.910788515
142,1778413280730,2.2357030333333334,1.4128737444444444,1.764395022222222,-2.9078196,2.7486259222222227,0.4954056251111112
143,1778413280740,1.426610735,1.1676169399999998,1.49988019,-1.47913605,1.94869446,-0.0555336497999999
144,1778413280750,0.8004735177777778,0.9966231222222224,1.2383683666666667,-0.55896764,1.2819818055555556,-0.2112174055555555
145,1778413280760,0.2576607033333333,0.8151525444444445,0.9571121333333332,0.62614388,-0.12206765,0.0216341766666666
146,1778413280770,0.195944366,0.757416124,0.947256536,1.1638931,-0.8435037,0.18039847
147,1778413280780,0.1625907899999999,0.6028705400000001,0.99024068,1.8572726,-1.5638962666666667,0.3309519622222222
148,1778413280790,0.158948307,0.509276683,0.931115292,2.80510982,-2.14735714,0.447827404
149,1778413280800,0.0987388297777777,0.4427731377777777,0.7873189555555555,3.2341308,-2.239289622222222,0.479727211111111
150,1778413280810,-0.1154538869999999,0.3020806377777777,0.4266170333333334,3.634710811111111,-2.151531311111111,0.5873720533333332
151,1778413280820,-0.1967248939999999,0.2572650159999999,0.311414522,3.63264748,-2.06947424,0.698030444
152,1778413280830,-0.2675765866666666,0.2330725466666666,0.21667932,3.533853111111111,-1.9566710888888887,0.8989041666666667
153,1778413280840,-0.2325501479999999,0.313390236,0.1126346239999999,3.2966814,-1.80522162,1.21932752
154,1778413280850,-0.107160723,0.39893588,0.0945888533333333,3.146983111111111,-1.7219020555555555,1.349098666666667
155,1778413280860,0.18717556,0.5008829,0.15177715,2.7468783666666665,-1.4217723666666666,1.4231469
156,1778413280870,0.262686058,0.541711499,0.1938009359999999,2.558381,-1.19510734,1.35261434
157,1778413280880,0.2930963488888889,0.5787228299999999,0.2929269788888888,2.245703633333333,-0.6626929333333333,1.1004158666666666
158,1778413280890,0.2497639066666666,0.5701585833333334,0.3700825777777778,2.0824037333333334,-0.2862073933333333,0.9411883666666666
159,1778413280900,0.2170187749999999,0.578064185,0.426860288,2.03398384,-0.082006242,0.87590916
160,1778413280910,0.1459231499999999,0.6821705555555556,0.5498153111111111,2.1047336000000003,0.5089206122222223,0.7022113111111111
161,1778413280920,0.171510006,0.80011378,0.5430621999999999,2.266839,0.6368388410000001,0.60976297
162,1778413280930,0.1922503766666666,0.8452695388888889,0.5364811944444444,2.4202448333333333,0.6965864611111111,0.4918762611111111
163,1778413280940,0.3142832511111111,0.9796574444444444,0.5604087111111111,2.6023111666666665,0.6902065166666667,0.2794371766666667
164,1778413280950,0.361752816,1.03310296,0.5915375509999999,2.6958522,0.6882111,0.1499630088
165,1778413280960,0.4774770444444444,1.1689503111111113,0.65596645,2.9111962,0.8053851444444445,-0.2207873533333333
166,1778413280970,0.5747184999999999,1.2775745333333337,0.6798059166666667,3.0010586,0.9667845555555554,-0.4721170666666666
167,1778413280980,0.7048520760000001,1.42980904,0.6496720400000001,3.0023141499999997,1.36936685,-0.994459325
168,1778413280990,0.8246145133333334,1.6175265888888888,0.7067079444444445,2.7375119666666667,1.970745966666667,-1.691436
169,1778413281000,0.8451103,1.6557063,0.7299207,2.6263378,2.162552,-1.8972915
170,1778413281010,0.8378233111111111,1.773850088888889,0.8634650488888889,2.4211185222222222,2.4877348444444443,-2.189072911111111
171,1778413281020,0.8535796666666666,1.8985287555555552,1.029494368888889,2.2715626777777778,2.7282050333333334,-2.4055928222222223
172,1778413281030,1.38407161,2.30407339,2.2047779499999995,2.2194370599999997,3.4529821,-2.8504118
173,1778413281040,1.8355372666666665,2.434823588888889,2.829992188888889,2.5485311,3.6976874333333334,-2.9321431
174,1778413281050,2.0489914,2.4759371,3.0647213,2.68559,3.7819843,-2.9584095
175,1778413281060,2.8773904999999997,2.31453748,3.54561225,4.53273116,4.675898290000001,-3.66577076
176,1778413281070,2.963611355555555,2.0010077,3.403504877777778,5.503072100000001,4.637374133333334,-3.9903341333333326
177,1778413281080,2.7894004,1.46363418,2.76771032,6.31696999,4.175247990000001,-4.12518881
178,1778413281090,2.5858115555555554,1.0194090155555555,2.0379034888888885,6.7275069,3.5409034888888886,-4.103680222222222
179,1778413281100,2.5269158333333333,0.9318768122222222,1.8411440222222224,6.7697231888888885,3.191889111111111,-4.052233333333334
180,1778413281110,2.35741193,0.576304939,1.11487296,6.53754692,2.14068376,-3.82092592
181,1778413281120,2.2949205666666668,0.3189007166666666,0.85829196,6.137224777777778,1.7517233222222222,-3.6733045333333334
182,1778413281130,2.2661994,0.21973844,0.77531964,5.9121614,1.5975183,-3.6040752
183,1778413281140,2.01923377,-0.0522621942,0.5162466139999999,5.3750281399999995,1.59147093,-3.42717375
184,1778413281150,1.9008731,-0.18784632,0.3623687,4.956109,1.6720417,-3.2797153
185,1778413281160,1.8666773444444449,-0.2088333155555555,0.3397826944444444,4.956109,1.6720417,-3.2797153
186,1778413281170,1.52575371,-0.403813181,0.138816027,4.2273684,1.9713569,-3.0909636
187,1778413281180,0.9469319444444444,-0.5394217,0.0216611566666666,3.1697882,2.4368224333333335,-2.5924612
188,1778413281190,0.289556536,-0.61008439,0.0272607370999999,1.9552533999999997,2.31611892,-1.26610303
189,1778413281200,0.1535184522222222,-0.6021354,0.1059004849999999,1.8079297999999997,2.0804948,-0.8625162666666666
190,1778413281210,0.1603345622222222,-0.5578069444444443,0.1555205866666666,1.681280688888889,1.2103768888888888,0.0869439288888888
191,1778413281220,0.221104374,-0.567026952,0.1300929539999999,1.63540611,0.81538948,0.407816911
192,1778413281230,0.3052820366666666,-0.5478063266666666,0.1056464066666666,1.6183635,0.6757498,0.51685315
193,1778413281240,0.40619749,-0.5208382850000001,0.081971247,1.40804878,0.38633035,0.8408465310000001
194,1778413281250,0.4895509466666666,-0.5005373066666667,0.0714675859999999,1.2141862333333333,0.2512109333333333,1.0138792
195,1778413281260,0.5630714622222223,-0.4896965955555555,0.1425286366666666,0.8855503444444444,0.3687650888888889,1.0941038222222224
196,1778413281270,0.563819478,-0.494309348,0.16592431,0.8282936,0.426401926,1.102167
197,1778413281280,0.5187633111111111,-0.4798857311111111,0.1425659011111111,0.6604192,0.7298437155555555,1.1050312555555557
198,1778413281290,0.5066149,-0.47484478,0.13296507,0.6251258,0.7985301,1.1044883
199,1778413281300,0.440458629,-0.45033116,0.0736170979,0.557810456,0.804455293,1.0903776200000002
200,1778413281310,0.2909011133333333,-0.4407201644444444,-0.0387590354444444,0.4542921944444444,0.4969072833333333,1.1716814333333332
201,1778413281320,0.288657084,-0.44603212,-0.0605523167999999,0.43087639,0.416139704,1.19916956
202,1778413281330,0.2907926977777778,-0.4568457577777778,-0.0876169061111111,0.3673482722222222,0.2849772222222222,1.260933
203,1778413281340,0.3183010711111111,-0.4377118511111111,-0.1056802855555555,0.2728026844444444,0.1747786777777777,1.3404788666666667
204,1778413281350,0.33944052,-0.4179817,-0.109366134,0.16637953,0.1918824,1.4074684
205,1778413281360,0.3606748355555556,-0.4017341388888888,-0.1262336527777777,0.0132350266666666,0.2835349433333333,1.4441192333333333
206,1778413281370,0.4038040466666667,-0.3600413333333333,-0.13872761,-0.3288903533333333,0.48597992,1.5208823666666669
207,1778413281380,0.43316552,-0.30815822,-0.19769447,-0.61509262,0.7075138360000001,1.5502844999999998
208,1778413281390,0.4587157866666667,-0.28130706,-0.23755453,-0.7794919733333333,0.7728744566666667,1.5668995666666663
209,1778413281400,0.456993114,-0.264369086,-0.280699322,-0.869449428,0.80097343,1.58461416
210,1778413281410,0.3544075311111111,-0.2225400777777777,-0.4732762555555555,-1.1616787222222222,1.0177563666666667,1.799768166666667
211,1778413281420,0.3523173155555555,-0.1983991055555555,-0.6272385111111112,-1.438121088888889,1.1598801666666665,2.0617536666666667
212,1778413281430,0.4822659499999999,-0.133550474,-0.8478482599999999,-2.02761588,1.3631973,2.52915198
213,1778413281440,0.56542933,-0.10095101,-0.9220355,-2.296633,1.4448065,2.7263641
214,1778413281450,0.85006992,0.0137508,-0.8925927333333333,-2.7469886,1.447385622222222,2.888102866666667
215,1778413281460,1.936603577777778,0.5041520488888889,-0.60761679,-4.266080866666666,0.8339592333333333,3.1162882666666665
216,1778413281470,2.41921435,0.631674055,-0.424823571,-4.53436514,0.274430772,2.90033341
217,1778413281480,2.9950665,0.4814847033333333,0.1258609955555555,-4.660552433333333,-0.3586267477777778,2.261449933333333
218,1778413281490,3.13482316,0.302889592,0.442769728,-4.5954497000000005,-0.5046056379999999,1.7969445999999998
219,1778413281500,3.1314665777777773,0.2260599144444444,0.5573495866666667,-4.479063,-0.43790112,1.6326674
220,1778413281510,2.891147711111111,0.0681476066666666,0.7107087755555556,-3.777199577777778,-0.3246907644444444,1.3218140777777778
221,1778413281520,2.71782316,0.092834682,0.610810012,-3.07511966,-0.8157101900000001,1.14596471
222,1778413281530,2.435799366666666,0.0208311606666666,0.4234156333333334,-2.036208411111111,-2.016194811111111,0.9703732444444444
223,1778413281540,2.374898122222222,-0.0018937426666666,0.3845854555555555,-1.8073443,-2.2997637,0.937116
224,1778413281550,2.1373503,-0.1036341,0.2381541399999999,-0.651621316,-3.990650019999999,0.91903496
225,1778413281560,1.9349977222222223,-0.2232244022222222,0.1508387455555555,0.5091835955555556,-5.633496255555555,1.0361411777777778
226,1778413281570,1.53996792,-0.243370912,-0.221397074,1.6750501200000003,-6.77144017,1.63274891
227,1778413281580,1.2628920111111113,-0.1254307622222222,-0.9025966922222224,1.5781832777777778,-6.544490155555555,2.5137128111111107
228,1778413281590,1.23183413,-0.0235745459,-1.23819726,0.642229536,-5.77991302,3.0614595600000003
229,1778413281600,1.2613507444444445,0.0702446105555555,-1.041724077777778,-0.5337532555555556,-4.736280488888889,3.5924096666666667
230,1778413281610,1.57125016,0.5234085960000001,-0.324762856,-3.07625744,-2.1135926,4.7364178
231,1778413281620,2.0236139333333334,0.8341442166666666,0.0204585133333333,-4.080994333333333,-1.0953764,4.9248032
232,1778413281630,2.5481567666666667,1.1305029133333333,0.4189980266666666,-4.774305933333333,-0.5863370166666666,4.578656433333333
233,1778413281640,2.69215706,1.25526226,0.763062816,-4.987125000000001,-0.470153872,4.060210039999999
234,1778413281650,2.6774123,1.2769343,0.89904636,-5.03697,-0.43973368,3.5540621
235,1778413281660,2.6774123,1.2769343,0.89904636,-4.91455632,-0.460258141,3.12412487
236,1778413281670,1.207719491111111,1.1474348777777776,1.50817404,-3.754123044444444,-0.7699305555555556,1.3029456777777777
237,1778413281680,0.27551911,1.1126869,1.78028685,-2.98662315,-1.05546768,1.2559783
238,1778413281690,-0.08640748,1.1788188,1.8330034,-1.9482464444444445,-1.1872071333333334,1.5901117777777778
239,1778413281700,-0.0281327392,1.2226049099999998,1.80056857,-1.80881037,-1.070372408,1.6713544600000003
240,1778413281710,0.3599159884444444,1.467951522222222,1.7437773444444449,-1.6497456666666668,-0.266660275,1.6754267
241,1778413281720,0.4291307133333333,1.5121546222222222,1.7880278777777778,-1.6705145,0.213983191111111,1.5147739111111111
242,1778413281730,0.424884544,1.62821688,2.01951428,-1.44382915,1.0106773610000002,0.933512068
243,1778413281740,0.3665762888888888,1.740264088888889,2.159411288888889,-1.0729023111111111,1.3745590555555556,0.4913333066666667
244,1778413281750,0.2858337709999999,1.79118989,2.11300441,-0.7359182,1.49062,0.20593189
245,1778413281760,0.1035155238888888,1.6893227777777775,1.8501282666666663,0.4934458088888889,1.313067088888889,-0.6392771122222223
246,1778413281770,-0.0106042752,1.5589019,1.6211799,1.0836888349999998,1.3603262900000002,-1.03984535
247,1778413281780,-0.0872950661111111,1.4406464,1.4096113444444445,1.3616718555555556,1.6660010555555556,-1.242802688888889
248,1778413281790,-0.0417981713,1.3785469899999998,1.3199520100000002,1.46516294,2.0475906000000004,-1.31106143
249,1778413281800,0.0500605091111111,1.3632876555555555,1.298903688888889,1.5131619444444444,2.286078922222222,-1.3374839666666665
250,1778413281810,0.6846029444444445,1.4338844444444443,1.2229711111111112,1.7812560777777775,3.0114938444444443,-1.5514162111111112
251,1778413281820,1.03895088,1.48805936,1.09309735,1.92696351,3.12990491,-1.84488083
252,1778413281830,1.320019422222222,1.5101592444444445,1.0155233666666668,2.1858405333333333,3.012113266666667,-2.4224167000000003
253,1778413281840,1.7074716199999995,1.54230954,1.0458048999999998,2.40666187,2.80628585,-2.9954651599999997
254,1778413281850,1.860020533333333,1.5697664555555555,1.1275996333333334,2.4786485333333332,2.7453004,-3.1801471333333335
255,1778413281860,2.7075156,1.7402234333333333,1.552021433333333,2.8150894666666666,2.9053932,-3.6781912666666665
256,1778413281870,3.3701508,1.8439794499999995,1.4964592,3.00396352,3.3091886799999997,-4.10924592
257,1778413281880,3.8271541555555553,1.8765051111111113,1.320453,3.1426394444444443,3.8818919333333337,-4.8375796555555555
258,1778413281890,3.912558877777778,1.7807847777777777,1.2353024444444445,3.0994050888888887,3.9843785333333335,-5.03915908888889
259,1778413281900,3.94767534,1.6726829199999995,1.24084074,3.0585734,4.074946799999999,-5.19552313
260,1778413281910,3.9961579,1.2045418,1.4857980333333334,3.0979118,4.4017908666666665,-5.6783852999999995
261,1778413281920,4.027775722222222,0.911326888888889,1.6833977444444443,3.598806644444444,4.318647633333334,-5.649607577777778
262,1778413281930,4.0638562899999995,0.452148332,1.6390926,4.511595590000001,4.14287303,-5.52263967
263,1778413281940,3.990425955555556,0.1290454688888889,1.1918716111111112,5.342164566666667,3.862684155555556,-5.406558388888889
264,1778413281950,3.9681888,0.07476046,1.0818313,5.4155426,3.833295600000001,-5.3963776
265,1778413281960,3.8421516,-0.0214511177777777,0.7525303044444445,5.596964222222223,3.591468011111111,-5.3563670000000005
266,1778413281970,3.5217907444444445,-0.2021256255555555,0.1647555613333333,5.813136266666667,2.998572888888889,-5.3162121777777775
267,1778413281980,3.1517508,-0.3225432099999999,-0.1587043804,5.77514878,2.4357839,-5.34162272
268,1778413281990,2.8345081222222226,-0.3962527944444444,-0.3107769466666666,5.556309222222222,2.318793077777778,-5.367056888888889
269,1778413282000,2.4899929,-0.47435695,-0.4685944299999999,5.321472,2.2071438,-5.382328
270,1778413282010,1.6684052,-0.6803140900000001,-0.5391320599999999,4.6241748000000005,1.88632688,-5.15562726
271,1778413282020,1.2490430666666663,-0.7666233388888889,-0.5210669788888889,4.300941611111111,1.7283074333333333,-4.923301777777778
272,1778413282030,0.6097063,-0.90365638,-0.49696802,3.74162266,1.45665698,-4.28394808
273,1778413282040,0.2974021766666667,-0.9469522777777778,-0.4723412555555556,3.3427258666666666,1.3368901111111111,-3.7780988333333334
274,1778413282050,0.24013597,-0.9519458,-0.46615526,3.2597864,1.3177502,-3.6712685
275,1778413282060,-0.1150341422,-0.979313242,-0.447227308,2.70745832,1.24628108,-2.91694838
276,1778413282070,-0.3140460911111111,-0.9753075666666666,-0.4286327222222222,2.3991365222222223,1.1801738333333334,-2.458660288888889
277,1778413282080,-0.3889623944444444,-0.9571764666666668,-0.3807674855555555,2.0531509444444445,1.0466019,-1.8763192222222225
278,1778413282090,-0.280065113,-0.93045983,-0.29647766,1.56784639,0.7590082380000001,-0.996719489
279,1778413282100,-0.2139216855555555,-0.9235939333333332,-0.2693822377777777,1.4338197111111113,0.6596641244444444,-0.7603691044444445
280,1778413282110,0.0293858618,-0.95167439,-0.1706227619999999,1.07269364,0.348702155,-0.243911303
281,1778413282120,0.0828300342222222,-0.9474739833333332,-0.1387851966666666,0.9387619666666668,0.2161466055555555,-0.0771024955555555
282,1778413282130,0.1718799533333333,-0.9847322833333334,-0.0656847253333333,0.7196713955555556,-0.0070501955555555,0.0917373806666666
283,1778413282140,0.18315093,-1.04336881,0.0421548959,0.455127018,-0.20620676,0.231526379
284,1778413282150,0.1716428011111111,-1.063883211111111,0.0864345791111111,0.39666894,-0.23571068,0.2566322
285,1778413282160,0.0813258793333333,-1.1574252333333332,0.2047273933333333,0.2867164333333333,-0.3770200266666667,0.4810167333333333
286,1778413282170,0.04202683995,-1.19579842,0.2473833319999999,0.240536375,-0.4790111609999999,0.66101305
287,1778413282180,-0.0234668156666666,-1.261977477777778,0.2751786644444444,0.2983903911111111,-0.55246892,1.058810388888889
288,1778413282190,-0.0699553024,-1.3252907400000002,0.20634131,0.300765916,-0.451584102,1.43006982
289,1778413282200,-0.1028108777777777,-1.3741689,0.131213614,0.2543415266666666,-0.3412515188888889,1.628255811111111
290,1778413282210,-0.1138142322222222,-1.4083409555555555,-0.1144172415555555,-0.03214584,-0.1157810106666666,2.182226366666667
291,1778413282220,-0.129961855,-1.41233845,-0.25823152,-0.252570072,-0.0854422632,2.4531167599999995
292,1778413282230,-0.1586373,-1.453225,-0.46664307,-0.7141313666666667,-0.151278026,2.911170811111111
293,1778413282240,-0.1147898949999999,-1.4410596999999998,-0.4829584133333333,-0.864807,-0.1742187333333333,3.045226333333334
294,1778413282250,-0.1150036605,-1.45955467,-0.494287998,-1.27609041,-0.1296065185,3.43714592
295,1778413282260,-0.19910715,-1.5509475777777777,-0.6850094666666666,-1.9668433555555551,0.1666764655555555,4.2266049444444445
296,1778413282270,-0.1062684009999999,-1.61312159,-1.06191558,-2.75732632,0.312539995,5.03023579
297,1778413282280,0.3342437733333333,-1.5827312222222223,-1.3372629111111112,-3.900387,0.3564802666666666,5.787166933333333
298,1778413282290,0.8242858800000001,-1.4782671333333337,-1.3192538,-5.171611,0.3766382333333333,6.414735933333334
299,1778413282300,1.29784709,-1.31793666,-1.19982307,-5.91532258,0.3541997799999999,6.72913904
300,1778413282310,2.8843215222222223,-0.7495288111111111,-0.7725721888888889,-7.421115477777779,0.0965393178888888,7.049406555555556
301,1778413282320,3.4726824,-0.6499769333333334,-0.5140747133333333,-8.0559041,-0.1072291456666666,6.889364466666667
302,1778413282330,4.07147854,-0.4379981096999999,-0.194999184,-8.625238999999999,-0.27999711,6.206131699999999
303,1778413282340,4.986581733333334,0.103356303,0.4157762722222222,-9.018014333333332,-0.4429915133333333,4.739538366666666
304,1778413282350,5.175683,0.518835159,0.9197457,-9.0189919,-0.4950153399999999,4.2030872299999995
305,1778413282360,4.343119,0.5160056966666666,1.4532758666666667,-8.434859000000001,-1.0336808666666668,2.939956866666667
306,1778413282370,4.092935022222222,0.6046423055555555,1.9605446333333336,-7.743006733333333,-1.5030830222222222,2.6646344777777777
307,1778413282380,3.98560432,0.8531656440000001,2.65847212,-6.5827345600000005,-1.90369018,2.43137062
308,1778413282390,3.900305577777778,1.1684624866666666,2.835636388888889,-5.120333888888889,-1.995629577777778,2.1044450888888893
309,1778413282400,3.7711788222222222,1.270202811111111,2.7803215000000003,-4.410105155555556,-2.1370916222222225,1.888205155555556
310,1778413282410,2.74699246,1.39944142,2.16100432,-1.87332343,-3.01037744,1.09135493
311,1778413282420,2.3868465333333333,1.4101940666666666,1.8401684,-1.4078501777777777,-3.1757948444444444,1.0415030111111112
312,1778413282430,1.91598375,1.3819861,1.32904096,-0.99186324,-3.1084795400000003,1.1408946800000002
313,1778413282440,1.6576814666666668,1.332770788888889,1.0440547555555555,-1.0901418222222223,-2.5921048777777775,1.2855026444444446
314,1778413282450,1.5943376666666669,1.3145210777777778,1.0063391411111111,-1.211225311111111,-2.3592872333333332,1.305457
315,1778413282460,1.105375504,1.1839105,0.8426711219999999,-1.56123396,-1.72098577,1.26013214
316,1778413282470,0.95468986,1.1549149,0.8616966,-1.6139093666666668,-1.6076735666666666,1.2318838444444442
317,1778413282480,0.5342080133333333,1.0460569666666666,0.86349555,-1.525404377777778,-1.4984676666666668,1.152813
318,1778413282490,0.376265868,1.0109127,0.809138684,-1.3626475,-1.61133865,1.1838983500000002
319,1778413282500,0.3539434222222222,1.0059259577777775,0.7863500688888888,-1.252966511111111,-1.7467431444444443,1.213490522222222
320,1778413282510,0.357325736,0.9919359,0.794589064,-1.10816858,-1.78616322,1.07455672
321,1778413282520,0.2850843844444444,0.9900983966666668,0.7957002311111112,-1.0601424222222222,-1.7432138666666668,0.9883593777777776
322,1778413282530,0.1605717055555555,0.9818594444444444,0.8300619944444444,-0.9684474333333336,-1.6570844333333334,0.8857370277777777
323,1778413282540,0.112439492,1.00180844,0.863989424,-0.821009239,-1.50663953,0.834371565
324,1778413282550,0.1354245666666666,1.0375401666666666,0.8776324933333333,-0.73917608,-1.3659817333333333,0.8108743
325,1778413282560,0.3046824066666667,1.0912763555555556,0.9027254444444446,-0.5918940244444445,-0.9894961666666666,0.6652211444444445
326,1778413282570,0.38474806,1.0989299200000002,0.96717232,-0.523954232,-0.815282535,0.537499768
327,1778413282580,0.42593948,1.0803069,1.0972897,-0.2625370611111111,-0.3196003722222222,0.1255291083333333
328,1778413282590,0.310582142,1.03413958,1.13525529,0.032115292,0.0028862539999999,-0.1684716798999999
329,1778413282600,0.2216592766666666,1.0103638166666666,1.1461746000000002,0.2474185866666666,0.1192170233333333,-0.2958536966666666
330,1778413282610,0.020001167,0.93038964,1.113571,1.0191901555555556,0.2439486488888889,-0.5665947888888889
331,1778413282620,-0.0182693586,0.905193048,1.0551774,1.47212666,0.25609772,-0.67645226
332,1778413282630,-0.0592886904444444,0.9021596466666668,0.924854111111111,2.0867476333333332,0.2999429777777778,-0.82199678
333,1778413282640,-0.0572797653333333,0.94122361,0.7110476,2.223373833333333,0.3622493888888888,-0.8835566111111111
334,1778413282650,-0.022415942,0.96100732,0.6722709339999999,2.33684214,0.45657778,-0.95609812
335,1778413282660,0.1513265811111111,0.9874424355555556,0.6909651266666667,2.369366311111111,0.8520131222222223,-1.1312212444444445
336,1778413282670,0.18473639,0.99237496,0.701108,2.3715382,0.9390249,-1.1685508
337,1778413282680,0.3033612055555555,1.0311746533333332,0.9169607111111112,2.4457052666666663,1.6117714333333335,-1.3933426
338,1778413282690,0.5870735155555555,1.1717655777777776,1.0443765777777778,2.5340998,2.281259966666666,-1.6120259
339,1778413282700,0.65422106,1.2086193399999998,1.02174246,2.54601131,2.55850314,-1.7611948000000002
340,1778413282710,1.0275463333333332,1.4503250555555556,1.004689388888889,2.449081833333333,2.8738242888888887,-2.1864938222222223
341,1778413282720,1.2182112777777778,1.5650201888888888,1.200446088888889,2.365633311111111,2.8970704777777776,-2.510378611111111
342,1778413282730,1.60679502,1.65340138,1.83974756,2.50420649,2.86456066,-2.93664059
343,1778413282740,2.1567011666666667,1.7262185666666667,2.7104325333333334,3.144064733333334,3.083090244444445,-3.3015023111111113
344,1778413282750,2.6675094,1.7685361199999998,3.28830778,3.5846350100000004,3.30436286,-3.4605873000000003
345,1778413282760,3.582451622222222,1.640817311111111,3.751333555555556,5.094762844444444,3.9473203888888886,-4.006148555555556
346,1778413282770,3.8602254,1.3370596666666668,3.468769466666666,6.014580333333333,3.9847857666666666,-4.438899666666667
347,1778413282780,3.82626,0.956381985,3.0953329999999997,6.720312699999999,3.8296305,-4.81172015
348,1778413282790,3.433228833333333,0.46930583,2.5047905666666663,7.404054133333334,3.487556,-4.999453766666666
349,1778413282800,3.2754564100000003,0.334674998,2.2809625,7.5699398,3.3533529,-4.9318736
350,1778413282810,3.1162186,0.18751094,1.8801097,7.640384111111112,3.012249,-4.295961222222222
351,1778413282820,3.2916081111111115,0.1908715666666666,1.7551566333333333,7.63800861111111,2.952029622222222,-4.231890111111111
352,1778413282830,3.69910895,0.109488089,1.2028018399999998,7.5348162,2.48911084,-4.1984294
353,1778413282840,3.5651876999999996,-0.1027498933333333,0.7347887666666666,7.056957333333333,2.113073333333334,-4.581702233333334
354,1778413282850,3.4578848,-0.1905294,0.5856744,6.8397944,2.07068058,-4.70909784
355,1778413282860,2.441992022222222,-0.5527862844444444,0.1350654684444444,5.583271333333332,2.428881366666667,-4.9070122666666665
356,1778413282870,1.84901636,-0.70979138,-0.0760715144,4.8658262,2.7084355600000003,-4.80170224
357,1778413282880,1.1909231333333334,-0.7494543,-0.2663570066666667,3.8292998,3.0247374666666667,-4.2438358
358,1778413282890,0.87044716,-0.72800591,-0.327683742,3.1616843599999997,3.06338372,-3.7583752
359,1778413282900,0.7020227111111111,-0.72693945,-0.3122776877777778,2.7313865777777777,2.9903093999999997,-3.3994414444444443
360,1778413282910,0.36966926,-0.7950701,-0.1892725599999999,1.6880001,2.6667046111111112,-2.423044422222222
361,1778413282920,0.279430944,-0.8121571620000001,-0.164131532,1.42655745,2.57181965,-2.1361328
362,1778413282930,0.0697872723333333,-0.8192483244444445,-0.1546567233333333,1.06235672,2.418564888888889,-1.683630777777778
363,1778413282940,-0.0746049635999999,-0.8169287070000001,-0.173717448,0.558543482,2.11789908,-0.97069741
364,1778413282950,-0.1161958049999999,-0.81574875,-0.18183987,0.53227705,2.0978022,-0.9303204
365,1778413282960,-0.213573438,-0.7335519100000001,-0.213189265,0.175236811,1.40491811,-0.236764397
366,1778413282970,-0.22064973,-0.7119182222222222,-0.2073122255555555,0.0782139013333333,1.0829812666666667,-0.0109443466666666
367,1778413282980,-0.1888159,-0.69666262,-0.1150798879999999,-0.020661908,0.565064264,0.373792707
368,1778413282990,-0.1358819166666666,-0.68267195,-0.0633268666666666,-0.0773485324444444,0.2868691466666667,0.6194754777777778
369,1778413283000,-0.0971601433333333,-0.6805580133333333,-0.0328169553999999,-0.1153568066666666,0.1310012822222222,0.7853544555555555
370,1778413283010,-0.0150679520999999,-0.669679352,0.03335865524,-0.169586472,0.0378267158,1.0193361
371,1778413283020,0.006097917,-0.6625082,0.049027253,-0.18877726,0.0267500196666666,1.1592609
372,1778413283030,0.006097917,-0.6625082,0.049027253,-0.19043164,0.027564483,1.193672
373,1778413283040,0.006097917,-0.6625082,0.049027253,-0.19043164,0.027564483,1.193672
374,1778413283050,0.0201261739,-0.650913,0.0553264000999999,-0.1530248792,0.0526092207,1.32237749
375,1778413283060,0.1224055233333333,-0.5977381,-0.0047462133333333,-0.025426516,0.09659022,1.7232765
376,1778413283070,0.1661953377777777,-0.5843260833333334,-0.0535329352222222,-0.0186393248888888,0.0976761711111111,1.7341359666666667
377,1778413283080,0.15860681,-0.591254,-0.056649648,-0.010155336,0.09903361,1.7477103
378,1778413283090,0.0084930438,-0.6418768666666667,-0.0878675911111111,0.1593208488888889,0.3053048488888888,2.071662988888889
379,1778413283100,-0.01139700612,-0.6528978320000001,-0.100243654,0.212681752,0.384742134,2.21140451
380,1778413283110,0.0405613108888888,-0.6253007244444445,-0.2430223033333333,0.3227564266666667,0.6810437666666666,2.693760133333333
381,1778413283120,0.092734071,-0.59367795,-0.3122895499999999,0.33527879,0.81532835,2.9041205999999997
382,1778413283130,0.27367112,-0.5304645222222223,-0.6001468022222223,0.2211521533333333,0.9974627,3.1631198
383,1778413283140,0.283903773,-0.56370051,-0.948479138,-0.029335942,1.0544750200000002,3.39377564
384,1778413283150,0.2454343896666666,-0.590850811111111,-1.0953213888888889,-0.1334192211111111,1.0388644611111113,3.468882688888889
385,1778413283160,0.1532338727777777,-0.54900562,-1.4399078777777778,-1.0950964166666666,0.8178735944444444,4.224433
386,1778413283170,0.5354214939999999,-0.283022602,-1.60044092,-2.1287721599999996,0.62382776,4.993585
387,1778413283180,1.965371982222222,0.1727133366666666,-1.260144622222222,-3.895415333333334,0.4003255277777777,5.357342611111111
388,1778413283190,2.6625821199999997,0.27845529,-0.8591110900000001,-4.6933684,0.37093699,5.272413500000001
389,1778413283200,2.9626864444444445,0.2529551588888889,-0.4461100544444445,-5.2583852,0.5676977011111111,4.960368166666667
390,1778413283210,3.1231701000000003,0.219860395,0.6515775899999999,-5.98202748,1.35635584,4.21060084
391,1778413283220,3.0232524444444446,0.3700724133333333,1.1833006777777777,-5.904788922222222,1.5726772,3.919823877777778
392,1778413283230,3.1119132,0.773038992,1.9554189,-5.002549,1.035661,3.7496553
393,1778413283240,3.243153211111111,1.0301616977777777,2.2352286666666665,-3.347723066666666,0.0774757933333333,3.4801495
394,1778413283250,3.2791919333333333,1.0868079555555556,2.247485488888889,-2.7901976,-0.23998661,3.390355
395,1778413283260,3.1378354199999996,1.08111188,1.79321754,-0.039437825,-1.62740397,2.48380427
396,1778413283270,2.889640177777778,1.0713429444444444,1.5040275444444444,1.0152535833333332,-1.9705169,2.0026373
397,1778413283280,2.5067163999999997,1.13540155,1.0698795,1.5032187499999998,-2.10245995,1.7587056
398,1778413283290,2.0350067999999997,1.1925085333333334,0.51418652,1.6541998333333332,-2.073546433333333,1.6066046
399,1778413283300,1.84878459,1.1810109,0.30230119,1.53809812,-1.96391968,1.58656882
400,1778413283310,1.5630722555555556,1.129307111111111,0.0821795944444444,0.5660093555555555,-1.3600769333333331,1.633482011111111
401,1778413283320,1.42267452,1.10600358,0.258661428,0.0615123179999999,-1.07867992,1.62431928
402,1778413283330,1.2900244666666667,1.0655906333333334,0.6031042666666667,-0.3138906422222222,-0.832304838888889,1.5689357333333334
403,1778413283340,1.1411337,0.9862771,0.98908216,-0.2131687266666666,-0.7454287900000001,1.3854101333333333
404,1778413283350,1.12671212,0.978273573,1.006092294,-0.048692161,-0.76549851,1.30649542
405,1778413283360,0.8742922111111111,0.87643324,1.2189905666666665,0.8032217355555555,-0.88897788,1.0357339111111112
406,1778413283370,0.7673415,0.8758844666666668,1.1988199666666668,1.3019445533333334,-0.9111041333333334,0.9377268933333336
407,1778413283380,0.5884093100000001,0.857159785,0.91095253,2.088105,-0.7775322,0.7758524
408,1778413283390,0.5152536333333333,0.8444903666666667,0.7765290333333333,2.136429777777778,-0.7116964444444445,0.7552193333333334
409,1778413283400,0.465182637,0.8401802070000001,0.708074832,2.30495568,-0.443826362,0.6778114000000001
410,1778413283410,0.0624528299999999,0.8668323966666667,0.2558651977777778,2.2021299,0.1579294733333333,0.6099055333333333
411,1778413283420,-0.0367094566666666,0.8714938999999999,0.2180716666666666,2.0280383,0.38926243,0.6062404533333333
412,1778413283430,-0.0975209299999999,0.8967139,0.285382505,1.90998192,0.451935348,0.6232627519999999
413,1778413283440,-0.0659557443333333,1.0054279,0.5354275822222222,2.01969,0.39842513,0.593209
414,1778413283450,-0.0364486034444444,1.0554850111111111,0.6146666333333334,2.086747466666667,0.3836290522222222,0.5611734666666667
415,1778413283460,0.0356118345999999,1.19147194,0.79913199,2.4861101000000003,0.26617669,0.3284067599999999
416,1778413283470,0.0539868916666666,1.2506623666666663,0.9708696833333336,2.8991829333333334,0.1658450266666666,0.0374907486666666
417,1778413283480,0.165985296,1.34952382,1.2331757,3.48518892,0.4017084319999999,-0.2831887774
418,1778413283490,0.2994009344444445,1.3752665333333334,1.2176964,3.8426025,0.6550488466666666,-0.5029309000000001
419,1778413283500,0.4014089177777778,1.3758865111111112,1.1537867888888889,4.0361733,0.80708194,-0.63161606
420,1778413283510,0.59123268,1.32455297,0.99268602,4.375499,1.4203726,-1.29988295
421,1778413283520,0.6211304222222221,1.3109200666666667,0.9584841588888888,4.4292196666666666,1.717515811111111,-1.6176592444444444
422,1778413283530,0.8080925222222223,1.2734381555555556,1.0495158800000002,4.335352666666667,2.2700612,-2.1265629666666666
423,1778413283540,0.930334764,1.2174978,1.21327202,4.23256051,3.00514716,-2.66334745
424,1778413283550,0.975978331111111,1.1986877333333332,1.3134269,4.2151513,3.1809108,-2.7733228
425,1778413283560,1.11941278,1.228218,1.6871167,4.26536301,4.172926599999999,-3.1458786200000004
426,1778413283570,1.134466566666667,1.1981898666666666,1.9217584,4.350488,4.48221911111111,-3.1982011444444445
427,1778413283580,1.3404779333333332,1.118086911111111,2.697985977777778,4.479784111111112,4.584298588888888,-3.1473651222222223
428,1778413283590,1.8007147199999998,1.16183604,3.21719364,5.5349786,4.5441994999999995,-2.71746094
429,1778413283600,2.2339107666666664,1.1152886,3.323486433333333,6.405794111111111,4.251250844444445,-2.6841476666666666
430,1778413283610,3.122475666666667,0.7233077611111112,3.1702798555555556,8.044875333333334,3.5050669666666665,-3.2100787777777775
431,1778413283620,3.13733255,0.19825852,2.57941885,8.921882,3.06393345,-3.7470136
432,1778413283630,2.544694577777778,-0.1922774766666666,1.4890909555555556,9.245428,2.9998962,-4.1336797333333335
433,1778413283640,2.01825792,-0.0346819,0.82109671,8.5839614,3.15855364,-3.89263942
434,1778413283650,1.8103832888888889,0.0934031455555555,0.6031788488888888,8.16407511111111,3.1550514777777776,-3.680023888888889
435,1778413283660,1.5588139,0.6491028911111111,0.7701804677777777,6.552465344444445,2.6599344,-2.6789215333333334
436,1778413283670,1.7530901,0.7895735,1.163955135,6.1931512600000005,2.322594,-2.37937224
437,1778413283680,2.579290055555555,0.7494271888888888,1.7799615666666666,5.7039303666666665,1.427770611111111,-2.110545177777778
438,1778413283690,2.8879733888888888,0.4646341577777778,1.8214071666666665,5.508323533333334,1.4116849666666669,-2.321151755555556
439,1778413283700,2.8443915599999996,0.375418248,1.75209012,5.32964228,1.66593318,-2.5843879000000003
440,1778413283710,2.250202322222222,0.0256891672222222,1.3320797666666666,4.712041844444445,2.6958895333333333,-3.0595387
441,1778413283720,1.68635749,-0.0921273295,1.08449621,4.20928724,3.3115480399999995,-2.94203896
442,1778413283730,1.0680433555555555,-0.1475628144444444,0.715516,3.5983993555555553,3.727144000000001,-2.3681274777777777
443,1778413283740,0.8720766444444444,-0.16372229,0.5460040888888888,3.396208977777778,3.722053633333333,-2.116042733333334
444,1778413283750,0.8114497999999999,-0.17196125,0.47560704,3.2109186999999997,3.6830273,-1.8801879
445,1778413283760,0.7610030777777778,-0.1752405755555555,0.4332807044444444,3.2109187,3.6830273,-1.8801879
446,1778413283770,0.6114076,-0.1579766966666666,0.3517176666666667,2.9541591777777776,3.398643888888889,-1.5395387333333332
447,1778413283780,0.46555155,-0.132742496,0.2625884939999999,2.64747323,2.7677718600000003,-1.08248249
448,1778413283790,0.4067615511111111,-0.1332631877777778,0.2225095933333333,2.422874766666667,2.0324415333333334,-0.7670205333333333
449,1778413283800,0.347495887,-0.152618659,0.179168992,2.3807008,1.9023311,-0.7189672
450,1778413283810,0.3830135277777777,-0.18430954,0.1901533755555555,2.210138722222222,1.4999863777777778,-0.5955761
451,1778413283820,0.4125681088888889,-0.2118585666666666,0.1906954088888889,2.126927788888889,1.3139494555555555,-0.5766398377777777
452,1778413283830,0.402608854,-0.252112264,0.16880253,2.0642821,1.16198415,-0.6255075800000001
453,1778413283840,0.3402603577777777,-0.2973378022222222,0.1241637522222222,1.977338066666667,1.0084579,-0.70369602
454,1778413283850,0.32529336,-0.3049873,0.11467133,1.9512752,0.9732324,-0.72446483
455,1778413283860,0.2192688829999999,-0.365249967,-0.0574240845999999,1.82690672,0.8376242960000001,-0.721288446
456,1778413283870,0.1773308055555555,-0.4026454477777778,-0.1499240633333333,1.6968234,0.6955005000000001,-0.6986056644444445
457,1778413283880,0.1327364,-0.477146745,-0.25725587,1.32760018,0.4415509399999999,-0.607548688
458,1778413283890,0.1010119922222222,-0.5483890533333333,-0.3026125177777777,1.0575378444444443,0.301300411111111,-0.5603505555555555
459,1778413283900,0.09125533,-0.5746372,-0.3023957,0.8932878,0.21822518,-0.5351022
460,1778413283910,-0.05483246194,-0.6357566259999999,-0.062546332,0.6194449399999999,0.301781449,-0.371883808
461,1778413283920,-0.1676520577777777,-0.6666276444444444,0.0587297144444444,0.5178202999999999,0.5138752533333333,-0.1157470688888888
462,1778413283930,-0.1774866388888888,-0.6654893555555556,0.0586755111111111,0.4974587233333333,0.70038728,0.109010784
463,1778413283940,-0.1433925049999999,-0.68996403,0.0035063035,0.431670477,0.918622638,0.4519200849999999
464,1778413283950,-0.1189500266666666,-0.7387321166666667,-0.048681704,0.3877098355555555,0.9897931444444446,0.5950416055555556
465,1778413283960,-0.0629670879999999,-0.769258286,-0.081919414,0.280241462,1.13486264,0.97608818
466,1778413283970,-0.0578082517777777,-0.7833891888888889,-0.1254578635555555,0.2667620866666667,1.2686788,1.2305264
467,1778413283980,-0.0603083993333333,-0.8310546133333333,-0.3031376,0.1983471866666666,1.4476570666666666,1.5662887333333333
468,1778413283990,-0.0412127718,-0.886951181,-0.5960682939999999,-0.124376145,1.6708199999999995,1.9590023700000003
469,1778413284000,-0.032715324,-0.9016685,-0.6860461,-0.24846213,1.7404566,2.0775678
470,1778413284010,-0.0259364677777777,-0.9471724611111112,-1.022264877777778,-1.7639741666666664,2.0481199,3.0704492666666665
471,1778413284020,0.242123884,-0.77724658,-0.94028651,-2.5462023,1.98876595,3.6527139
472,1778413284030,1.0743512533333337,-0.4304011199999999,-0.5769442166666666,-3.3350818666666666,1.4310284666666666,4.314091888888889
473,1778413284040,1.82631999,-0.2044936449999999,-0.1582958240999999,-3.74710506,0.707452725,4.6784487
474,1778413284050,2.3696707666666668,-0.0880132713333333,0.1676215746666666,-3.805298444444445,0.4796677988888888,4.712567844444444
475,1778413284060,3.663499722222222,0.2296069002222222,0.781278688888889,-3.686522599999999,0.2653961577777777,4.317281733333334
476,1778413284070,3.89057765,0.34236753,0.836695175,-3.5716698200000003,0.391094954,3.89552564
477,1778413284080,3.5147476,0.5264941166666667,0.78352135,-3.4047863,0.6545737433333333,3.2740903333333335
478,1778413284090,2.8674606111111114,0.8732386177777777,0.828978,-3.1725286444444447,0.5036944777777778,3.181648822222222
479,1778413284100,2.8226616,0.9268864,0.86954167,-3.09666737,0.394508074,3.241063899999999
480,1778413284110,3.0235605333333333,1.1501179333333331,1.1962791,-2.3784866,-0.46783264,3.7022942666666663
481,1778413284120,3.346945320000001,1.32159544,1.26295782,-1.76592888,-0.8531550640000001,3.765170840000001
482,1778413284130,3.4671263999999997,1.6438730444444445,0.9601915166666666,-0.85279368,-1.30286082,3.169024666666667
483,1778413284140,3.444560777777778,1.9141936333333336,0.6110654555555555,-0.4103366533333333,-1.506069366666667,2.7328543333333335
484,1778413284150,3.33665812,1.96655984,0.4229301419999999,-0.21608722,-1.5716337,2.397652
485,1778413284160,2.2733475333333337,1.9130012555555556,-0.48403572,-1.05213354,-1.1908722333333333,1.7139102
486,1778413284170,2.1516703666666666,1.8770506333333337,-0.4959334333333333,-1.6280267666666668,-0.9047920777777778,1.335252722222222
487,1778413284180,1.78766532,1.7274545200000002,-0.2379163269999999,-2.7248827600000003,-0.2524478872,1.040837924
488,1778413284190,1.460457877777778,1.5478003555555555,0.1770496355555555,-3.226215322222222,0.0687627335555555,0.7535903844444445
489,1778413284200,1.19893582,1.39070304,0.495785036,-3.2746758700000003,0.13006465,0.53609482
490,1778413284210,0.9178245333333334,1.2350618666666666,0.7644314799999999,-2.921300688888889,0.0095784277777777,0.2579217755555555
491,1778413284220,0.7002339444444444,1.1336806444444445,0.9082711722222222,-2.5290943555555554,-0.0819807911111111,0.0999838233333333
492,1778413284230,0.43865365,1.10549135,0.870233725,-1.91057755,-0.142251055,0.019585292
493,1778413284240,0.1256577366666666,1.0486790666666663,0.7103158666666667,-1.0739882666666665,-0.2664566644444444,-0.0663787384444444
494,1778413284250,0.0117689755555555,1.0103943,0.6574672444444444,-0.9491039444444446,-0.2904154555555556,-0.0735731622222222
495,1778413284260,-0.266732032,0.978422962,0.59109851,-0.34711396,-0.355742185,-0.0034131094
496,1778413284270,-0.3032087466666666,1.00196902,0.5495544333333333,-0.1998234111111111,-0.3938522611111111,0.0348267784444444
497,1778413284280,-0.16221678,1.05928138,0.4833208839999999,0.12190984,-0.6030742069999999,0.0099186332
498,1778413284290,-0.032552712,1.1073105333333333,0.46365511,0.4101075733333333,-0.9125294199999998,-0.1718516833333333
499,1778413284300,0.0279487851111111,1.127677533333333,0.4633061777777778,0.5343131844444444,-1.061644022222222,-0.2950392111111111
500,1778413284310,0.0721444542,1.04372252,0.52173775,0.90666533,-1.32008674,-0.98816762
501,1778413284320,-0.0127073807777777,0.9380392,0.5454756133333334,0.9838289188888888,-1.0538387911111111,-1.3419636222222222
502,1778413284330,-0.0815223737777777,0.8709857555555556,0.5174895377777777,0.9441916833333336,-0.6551591333333333,-1.48273
503,1778413284340,-0.0777240429999999,0.84428406,0.5007853179999999,0.8396553600000001,-0.155934034,-1.56511288
504,1778413284350,-0.0652917436666666,0.8350115333333333,0.4935755533333333,0.7851678,0.06910209,-1.5924788
505,1778413284360,-0.0554178675999999,0.75956874,0.436025452,0.514684624,1.096677059,-1.78794994
506,1778413284370,-0.0813936367777777,0.7156887777777778,0.4368920388888889,0.4229353588888889,1.5291034444444445,-1.8605050222222224
507,1778413284380,-0.0349207356666666,0.7332033466666666,0.4871727433333333,0.48035501,1.853666933333333,-1.9082868
508,1778413284390,0.0851939967999999,0.770044944,0.55717888,0.67741438,2.0010439,-2.00724416
509,1778413284400,0.1509336033333333,0.8029330455555557,0.5795290888888889,0.7173638,2.014116,-2.028013
510,1778413284410,0.4193638888888889,0.9745487666666666,0.6150561944444444,1.0151857222222225,2.1253580666666667,-2.2213800555555556
511,1778413284420,0.651333715,1.1179311,0.6257072499999999,1.17580465,2.27097735,-2.4091815999999997
512,1778413284430,0.92371918,1.3501227666666666,0.6648321666666667,1.2400454,2.606230833333333,-2.8632955666666664
513,1778413284440,1.053034,1.56759145,0.6979370749999999,1.1990168,2.9246222,-3.2659712
514,1778413284450,1.060329477777778,1.6711171777777778,0.7369569499999999,1.1104778666666666,3.1190794,-3.478783622222222
515,1778413284460,1.5768230777777776,2.023793511111111,1.0790094222222222,0.8102125333333333,3.2625606,-3.5519495333333335
516,1778413284470,1.90317511,2.22474563,1.4921023,0.78944372,3.1145727200000004,-3.73638476
517,1778413284480,2.5492172444444443,2.2488981999999997,2.067068488888889,1.0252308,3.0108916,-4.1564846666666675
518,1778413284490,2.783539644444444,2.0691926222222223,2.452660177777778,1.4786830333333334,3.2536015333333332,-4.5857067
519,1778413284500,2.76252996,1.94330854,2.53354123,1.83759652,3.5432653299999997,-4.79388347
520,1778413284510,2.462609755555556,1.5203935444444443,2.3427145444444446,2.705849733333333,4.0156676,-4.938233577777778
521,1778413284520,2.22749564,1.21309514,2.06782178,3.52403896,3.78723784,-4.6626736399999995
522,1778413284530,2.117328666666667,0.987334,1.8063147333333331,3.777445555555556,3.570291977777778,-4.487699844444445
523,1778413284540,2.207639,0.8178119333333334,1.4420454666666669,4.414898611111111,2.845241711111111,-3.97499538888889
524,1778413284550,2.2686446,0.77391709,1.2969902000000002,4.5988858399999994,2.58440328,-3.84035094
525,1778413284560,2.2271285555555553,0.5381716377777779,0.6907008233333333,4.8555230555555555,2.114702388888889,-3.6665173777777778
526,1778413284570,2.0901184444444443,0.3957005977777778,0.4328877077777777,4.835976077777778,1.9591399,-3.608419022222222
527,1778413284580,1.83164944,0.172375912,0.1186837543999999,4.55368322,1.92652064,-3.51635744
528,1778413284590,1.4352158888888888,-0.0816883777777777,-0.1268569891111111,4.172595833333334,2.0106546666666665,-3.437110266666666
529,1778413284600,1.22177257,-0.166762784,-0.196493169,3.9943913,2.0671376799999996,-3.38123812
530,1778413284610,0.7339859533333333,-0.2909824233333333,-0.3233928666666666,3.606544055555556,2.1046572444444447,-3.041281266666666
531,1778413284620,0.2837259044444444,-0.3615658033333334,-0.4267085055555555,3.4050323,2.040111077777778,-2.7589256777777775
532,1778413284630,0.01398252,-0.413822908,-0.4690334639999999,3.04000351,1.67619538,-1.97328097
533,1778413284640,-0.1458621711111111,-0.4523468222222222,-0.48640034,2.8753598,1.4995791,-1.6020487333333333
534,1778413284650,-0.1777779855555555,-0.4621305844444445,-0.4846929211111111,2.796484144444444,1.4213906555555555,-1.4373236033333334
535,1778413284660,-0.190526361,-0.456301006,-0.457862079,2.32755705,0.97139985,-0.56930965
536,1778413284670,-0.1748374366666666,-0.4547318166666667,-0.4551790066666666,2.1388052666666666,0.7797974333333334,-0.2785463566666666
537,1778413284680,-0.081651103,-0.4543253,-0.42821097,1.84095618,0.461220238,0.0619857259999999
538,1778413284690,0.0599391347777777,-0.4623203333333333,-0.3905919011111111,1.4522130333333334,0.2558941033333333,0.36638109
539,1778413284700,0.0796557322222222,-0.4693701999999999,-0.3863911188888889,1.3016731,0.2358040133333333,0.4531213955555555
540,1778413284710,0.0359777085,-0.53596115,-0.3812417549999999,0.78138056,0.41174159,0.69375451
541,1778413284720,-0.0165355173333333,-0.5705719,-0.3803473833333333,0.52331792,0.5169294866666667,0.8269599466666667
542,1778413284730,-0.0845272926666666,-0.5931951666666666,-0.38636401,-0.0596254866666666,0.6331262011111112,1.2388067088888888
543,1778413284740,-0.0705528976,-0.61310892,-0.365167652,-0.441734199,0.565369681,1.53623502
544,1778413284750,-0.0485360296666666,-0.6175969855555555,-0.3480318288888889,-0.55022067,0.5285356,1.6230975
545,1778413284760,0.1267756884999999,-0.636637735,-0.17635176,-0.948187625,0.0877711224999999,1.94195985
546,1778413284770,0.23394658,-0.6504749333333334,-0.0585298366666666,-1.1010012999999998,-0.2155527316666666,2.0875450666666664
547,1778413284780,0.3356835355555556,-0.6655435577777777,0.0338569905555555,-1.1502762666666666,-0.3983996866666666,2.146797166666667
548,1778413284790,0.481433554,-0.6917781510000001,0.189059808,-1.13626746,-0.445597808,2.15526768
549,1778413284800,0.5019804866666667,-0.7043906833333333,0.2310907166666666,-1.105888,-0.40674792,2.1563672
550,1778413284810,0.5190749866666667,-0.7288026833333334,0.25255539,-1.0415454555555557,-0.3048043,2.1809367777777777
551,1778413284820,0.5256709,-0.73278666,0.2479108099999999,-0.98025715,-0.19600561,2.2455509
552,1778413284830,0.5514278277777778,-0.7440644266666667,0.1881512254444444,-0.9673614955555556,-0.1121159228888888,2.3430149
553,1778413284840,0.60588292,-0.752153652,0.1105674306,-1.00524079,-0.0480584083999999,2.48433098
554,1778413284850,0.8210675666666667,-0.7680258533333333,-0.0958592495555555,-1.1152543444444445,-0.0460086788888888,2.466745433333333
555,1778413284860,0.9841258777777776,-0.8582106333333334,-0.3765870099999999,-1.6012851888888888,-0.0612119866666666,2.329915577777778
556,1778413284870,0.95902551,-0.8832070100000001,-0.4265187829999999,-1.6949484299999995,-0.0682774535,2.33100832
557,1778413284880,0.6616036666666667,-0.8975218666666667,-0.5685697333333333,-2.3632153333333332,0.0337408272222222,2.7168874222222223
558,1778413284890,0.497541224,-0.529360138,-0.628646418,-3.2163705,0.25252425,3.54086778
559,1778413284900,0.5605543688888889,-0.28976963,-0.5978329777777778,-3.6735591666666663,0.3015040166666666,4.063237166666667
560,1778413284910,1.8480549555555557,0.9079154277777778,-0.2730985777777778,-4.886498011111111,0.1722165055555555,5.457250222222222
561,1778413284920,2.1937803600000003,1.044365764,-0.329781428,-5.39333841,0.155781323,5.767849
562,1778413284930,3.4247831333333334,0.9530840111111112,-0.3965780311111111,-6.829187488888889,-0.1359389644444444,5.722849766666666
563,1778413284940,4.009271844444445,1.035487211111111,-0.0273322344444444,-7.636472933333333,-0.5070625933333334,5.214107366666667
564,1778413284950,4.5428442,1.21240607,0.483308661,-8.02018,-0.82493392,4.53630452
565,1778413284960,4.674683222222222,1.668159688888889,1.5969494777777775,-7.636812666666667,-1.509734377777778,1.6194494444444445
566,1778413284970,3.99298904,1.65861512,1.76549924,-6.90904902,-1.72092466,0.3236574279999999
567,1778413284980,2.5995147444444444,1.4937254444444443,1.726391288888889,-5.829586933333334,-1.8223524333333336,-0.6104400322222223
568,1778413284990,1.5242894333333332,1.272743711111111,1.5570182666666668,-5.101126111111111,-1.7899775333333332,-0.6092861866666667
569,1778413285000,1.37071104,1.2408773400000002,1.5407361600000002,-4.82586132,-1.78604098,-0.4690085052
570,1778413285010,0.7579202666666666,1.1929862333333334,1.5986298666666667,-3.707359133333333,-1.9363095,0.4701996779999999
571,1778413285020,0.7061794333333333,1.2206403,1.6260501666666665,-3.1199278,-2.0871888000000003,0.8784747333333334
572,1778413285030,0.8032297999999999,1.3130096000000002,1.6528525200000002,-2.31652375,-2.41861155,1.088606175
573,1778413285040,0.9010282055555556,1.434355377777778,1.580109088888889,-1.1609322222222225,-2.845326488888889,1.1925180333333332
574,1778413285050,0.942689164,1.49321512,1.44969432,-0.652965188,-2.98948648,1.1389399399999998
575,1778413285060,0.9305962977777776,1.4239549555555555,0.9890855,-0.0352170418888888,-3.0861362,0.9056913666666668
576,1778413285070,0.9171876533333332,1.3846437333333332,0.8769922333333333,-0.0163316815555555,-2.948831322222222,0.8047658222222221
577,1778413285080,0.8160171039999999,1.22979738,0.736933228,-0.409344002,-2.0591051,0.446727872
578,1778413285090,0.6694936733333333,1.0921064111111112,0.7391826822222222,-0.6569831811111111,-1.5550049888888888,0.2663378922222222
579,1778413285100,0.57089714,1.03036502,0.7870174733333334,-0.7138598544444444,-1.4232655777777778,0.2203207326666666
580,1778413285110,0.2944988999999999,0.889637292,0.9855819,-0.735979307,-0.8932266600000001,0.0192035095999999
581,1778413285120,0.2361655511111111,0.8565811444444444,1.0281189444444443,-0.6444268688888889,-0.7939571777777777,-0.0230085806666666
582,1778413285130,0.140474664,0.7864574679999999,1.07619704,-0.181856865,-0.786817061,-0.11257915
583,1778413285140,0.0608572061111111,0.7239819822222222,1.0662038555555555,0.9130385,-1.1804877233333333,-0.36325049
584,1778413285150,0.038294915,0.7117184,1.0496039,1.235497977777778,-1.3270231666666668,-0.4532486444444445
585,1778413285160,-0.0933499531,0.64500412,0.7654105400000001,2.27587937,-1.7503064599999998,-0.746944011
586,1778413285170,-0.1442733244444444,0.61665182,0.5998317666666666,2.576553644444445,-1.8564242,-0.8343494744444445
587,1778413285180,-0.1838386455555555,0.6385603111111111,0.2568645833333333,2.6660428,-1.8090496,-0.8175172500000001
588,1778413285190,-0.131074725,0.6803598500000001,0.102460247,2.45190275,-1.620196,-0.75317467
589,1778413285200,-0.0247236666666666,0.7332237,0.0163932328444444,2.2457037,-1.4714547,-0.71285874
590,1778413285210,0.26385687,0.86893484,0.1119272687599999,1.098654632,-0.3434641499999999,-0.8246437999999999
591,1778413285220,0.3098453333333333,0.8933753000000001,0.1683533233333333,0.8548043933333332,0.02249954,-0.9164745066666666
592,1778413285230,0.3734228677777778,1.0161873222222222,0.2406475044444444,0.4599934333333333,0.8541171755555556,-1.237576588888889
593,1778413285240,0.4369279279999999,1.0904294799999998,0.22171415,0.296245648,1.26619478,-1.54776484
594,1778413285250,0.4961671666666666,1.1133915555555556,0.1896011655555555,0.2643186955555555,1.3169358555555557,-1.711661911111111
595,1778413285260,0.6506748177777778,1.0798123222222222,0.1453404533333333,0.1927138333333333,1.2484530555555555,-2.0664963
596,1778413285270,0.8460981399999999,1.14657914,0.274131854,0.0891684318,1.33717518,-2.37375252
597,1778413285280,0.9773944333333334,1.2480606333333333,0.4131440433333333,-0.0533218773333333,1.8293687333333333,-2.7307502111111113
598,1778413285290,1.03440792,1.38935538,0.4762168079999999,-0.2098413052,2.4128772,-2.93495314
599,1778413285300,1.0881936,1.477230466666667,0.5036167833333333,-0.3465370388888888,2.7937354222222224,-3.0005581333333335
600,1778413285310,1.3712318,1.755275266666667,0.645921838888889,-0.5377322133333333,3.1812500666666668,-3.0311683333333335
601,1778413285320,1.5412637,1.8670450000000005,0.7297987,-0.5819846999999999,3.19526565,-3.05156385
602,1778413285330,2.0918800333333336,2.1127146666666667,1.117616,-0.5398362466666666,3.0860258,-3.1620253666666667
603,1778413285340,2.4668375555555553,2.1673248333333337,1.4480011222222222,-0.3064586688888889,2.948652977777778,-3.5224252333333332
604,1778413285350,2.69903242,2.12228531,1.69938573,-0.15370443,2.9591732,-3.7433484
605,1778413285360,2.7359388666666664,1.7774173777777778,2.1295754222222225,0.7805525222222223,3.3233059666666667,-4.556386222222223
606,1778413285370,2.5157414,1.49194675,2.19395425,1.69258145,3.5138225499999995,-4.93358425
607,1778413285380,2.0957016,1.1348325,1.8708307666666664,2.8855915999999997,3.3668798,-4.825226533333333
608,1778413285390,1.8963099,0.903071,1.4963780333333334,3.4736508111111113,3.0286994666666667,-4.617267066666667
609,1778413285400,1.87621623,0.79217731,1.33353214,3.80325716,2.75342457,-4.46127713
610,1778413285410,1.9050197666666664,0.5658765333333333,1.0872789333333333,4.6579477111111105,2.109272655555555,-4.018365311111111
611,1778413285420,1.8870105555555552,0.4611515777777778,0.9461155555555556,4.886269133333333,1.9925328999999996,-3.9086843333333334
612,1778413285430,1.7958791399999998,0.34863618,0.75876382,5.20576274,1.87447644,-3.70950742
613,1778413285440,1.415617811111111,0.0775485627777777,0.2159746555555555,5.287672166666667,1.8391423444444448,-3.5805236000000003
614,1778413285450,1.22909612,-0.0221964189,-0.0262423859999999,5.2712454,1.81705684,-3.4821500399999996
615,1778413285460,0.8132690222222223,-0.2032537333333333,-0.4047695388888889,4.928688888888889,1.6968827555555557,-3.2146940222222224
616,1778413285470,0.5552864866666667,-0.2824453333333333,-0.5455501166666666,4.592858666666667,1.6447571333333333,-2.9889519333333334
617,1778413285480,0.30029192,-0.33328163,-0.64784268,4.07881048,1.64259882,-2.62349728
618,1778413285490,0.0147976079999999,-0.3552341333333333,-0.7298088333333334,3.4532214000000003,1.6893489666666666,-2.146110066666667
619,1778413285500,-0.0616939815555555,-0.3515482811111111,-0.7443726833333334,3.2665057,1.7080816,-1.9986923000000003
620,1778413285510,-0.226732745,-0.3214029,-0.7443971100000001,2.4072422,1.77527486,-1.26176608
621,1778413285520,-0.2822217533333333,-0.31384961,-0.7350225833333334,1.924601611111111,1.774392488888889,-0.8371322
622,1778413285530,-0.334836616,-0.3340377929999999,-0.69200072,1.3513010399999998,1.69928544,-0.3352329659999999
623,1778413285540,-0.32882,-0.3467072333333333,-0.6587884333333334,0.9783991333333332,1.6146220333333334,2.545333333335102e-05
624,1778413285550,-0.3013353233333333,-0.3713902422222223,-0.5897431111111111,0.6658489488888889,1.517972411111111,0.2983055488888889
625,1778413285560,-0.215875399,-0.435705308,-0.42140873,0.1877591716,1.31384078,0.8426790399999999
626,1778413285570,-0.20379238,-0.44895914,-0.3890471,0.0259525255555555,1.2124130555555557,1.0954611777777776
627,1778413285580,-0.1197021111111111,-0.5214769311111112,-0.2884517955555555,-0.134819085,1.0377786333333332,1.4131696666666669
628,1778413285590,-0.0391394809,-0.54458666,-0.24124883,-0.248156706,0.8045164,1.68412116
629,1778413285600,0.035855752,-0.5388525666666667,-0.2102358366666666,-0.2810406511111111,0.6523339777777778,1.8013291777777778
630,1778413285610,0.199462854,-0.54214138,-0.110933298,-0.2997732919999999,0.18310146,2.01403978
631,1778413285620,0.2463084111111111,-0.5763174799999999,-0.0627272351111111,-0.2777828,0.0385597313333333,2.0673870666666665
632,1778413285630,0.27176382,-0.6017898799999999,-0.0394670726666666,-0.2557922944444444,-0.0476376005555555,2.121684633333333
633,1778413285640,0.28820279,-0.6191824749999999,-0.048722357,-0.259579536,-0.1068219119999999,2.2064566
634,1778413285650,0.29992604,-0.63174415,-0.0617719,-0.27228516,-0.11415208,2.2333338
635,1778413285660,0.30011574,-0.7471608111111111,-0.1752913977777777,-0.4904255244444444,-0.0802839917777777,2.3529921111111114
636,1778413285670,0.278464424,-0.865892012,-0.275019102,-0.8443436419999999,-0.0270452614999999,2.52220364
637,1778413285680,0.2538766066666666,-0.97537192,-0.3523579533333333,-1.13385126,0.0321797716666666,2.6566256
638,1778413285690,0.1929008177777778,-1.125990577777778,-0.3705128111111111,-1.7665532666666666,0.2586598811111111,2.9748430666666668
639,1778413285700,0.140462461,-1.21106466,-0.325799496,-2.05663106,0.416689472,3.1718549
640,1778413285710,-0.0074496211111111,-1.3854060222222224,-0.0484343952444444,-2.6682317777777778,1.042258111111111,3.9158191777777778
641,1778413285720,0.1120898766666666,-1.3599167333333333,0.1489212934666667,-2.7260585333333336,1.4397160666666666,4.6201940666666665
642,1778413285730,0.336964778,-1.26554328,0.2707170319999999,-2.53449692,1.64546983,5.26008968
643,1778413285740,0.6946746755555555,-1.056907811111111,0.1811386255555555,-2.107202477777778,1.6476078111111112,5.810540111111111
644,1778413285750,1.12513273,-0.794290216,-0.0196932248,-1.7168778100000002,1.54083168,6.1912879
645,1778413285760,2.5476351888888886,0.1155385844444444,-0.9664182477777776,-1.5463768,0.5000293888888889,5.946962666666668
646,1778413285770,3.0777405,0.4714909166666667,-1.1426581666666664,-1.9529296,-0.5620813,5.112562466666667
647,1778413285780,3.27949,0.60872453,-1.1890328,-2.1506405,-1.0408074,4.7195587
648,1778413285790,3.3094006333333335,0.9500960888888887,-0.7742321777777778,-3.472853388888889,-1.1613479222222225,3.665304044444445
649,1778413285800,3.1099309666666666,0.9854064555555556,-0.6143820555555555,-4.014004666666667,-0.9982517,3.5451029000000003
650,1778413285810,2.90941996,1.03660328,0.0025611279999999,-5.36194104,-0.432036996,3.69602302
651,1778413285820,2.929287,1.0365545,0.10198766,-5.5250373,-0.37254047,3.7257102
652,1778413285830,3.37824601,1.1902128099999998,0.8328778419999999,-5.631561410000001,-0.536736201,3.33873837
653,1778413285840,3.5345051,1.2459569,1.0893928,-5.6772146,-0.6071058,3.1728933
654,1778413285850,3.462193888888889,1.2794141222222222,1.3126951444444446,-5.5014857,-0.6969003444444445,2.997028677777778
655,1778413285860,2.73881529,1.39223371,1.92879241,-3.13686866,-1.8160336299999995,1.24541062
656,1778413285870,2.6237202,1.4209366,1.9562422,-3.0303369,-1.8605644,1.2071105
657,1778413285880,2.38415,1.4534011555555555,1.842885322222222,-2.3651241888888888,-2.128794266666667,1.0626791222222225
658,1778413285890,1.93904002,1.35361554,1.46356706,-0.932244564,-2.40653976,0.724785526
659,1778413285900,1.7536321666666668,1.3129763444444444,1.3306161888888888,-0.7903515322222222,-2.3720472444444445,0.6807638033333334
660,1778413285910,1.2917705000000002,1.2467678599999998,1.05121988,-0.1550635739999999,-2.16892008,0.444406662
661,1778413285920,1.1204007666666669,1.2177133,0.9706155666666666,-0.0009926266666666,-2.1898111,0.41463803
662,1778413285930,0.9106290222222222,1.1859601,0.8921455222222221,0.3928681133333333,-2.365327966666667,0.4174207722222222
663,1778413285940,0.8712307000000001,1.22927906,0.79891552,0.823406842,-2.55318888,0.421560956
664,1778413285950,0.8866066,1.2505913,0.7733683,0.98247147,-2.6187022,0.41545248
665,1778413285960,0.9471352111111112,1.313769011111111,0.4282499122222222,1.079121022222222,-2.1623908333333333,0.0860276588888888
666,1778413285970,0.81719402,1.2430238,0.21200627,0.84301502,-1.68213589,-0.189362655
667,1778413285980,0.5036371166666667,1.122047277777778,0.0191135827777777,0.31155756,-1.1935191333333333,-0.4053989733333333
668,1778413285990,0.1257559855555555,1.0522192555555554,0.0390673188888888,-0.36042532,-0.6309288466666667,-0.4707596166666666
669,1778413286000,0.0615401753,1.04821358,0.070888281,-0.622483884,-0.409741082,-0.4543481799999999
670,1778413286010,-0.0333115641111111,0.9885570333333332,0.3555288611111111,-1.1861126,0.014125843,-0.27243787
671,1778413286020,-0.01064086472,0.970885942,0.465691819,-1.1961916,0.0180963505,-0.27029991
672,1778413286030,0.0431766407333333,0.9693384044444444,0.6976762,-1.0067272,0.0291934094444444,-0.3745851277777777
673,1778413286040,0.08572655,0.9843257333333332,0.8959465500000001,-0.9045121022222222,0.0351661383333333,-0.4204665455555555
674,1778413286050,0.10052416,1.0082296,0.97859365,-0.74630266,0.048944138,-0.47462833
675,1778413286060,0.1045420075555555,1.0323095777777778,1.0504542166666666,-0.3869717577777777,0.1476468739999999,-0.5799655455555555
676,1778413286070,0.1412074246666666,1.1475059666666665,1.2375315333333332,1.2164259333333334,0.69305713,-1.0484174666666666
677,1778413286080,0.233928284,1.18347756,1.00657092,1.63607802,1.011471454,-1.2825349
678,1778413286090,0.28178473,1.154925166666667,0.9147485,1.8280876444444445,1.2783845777777776,-1.6999879111111111
679,1778413286100,0.291236498,1.13515168,0.903589308,1.85524998,1.32813469,-1.77842071
680,1778413286110,0.2914126633333333,1.1431764444444446,0.9683762822222224,2.0838292,1.8009303999999997,-2.3401558
681,1778413286120,0.3316555333333333,1.1625576999999998,1.0055261,2.160320688888889,2.0494094777777776,-2.5449254
682,1778413286130,0.38778177,1.18627355,1.0396186,2.20599855,2.27952925,-2.702121
683,1778413286140,0.6404946600000001,1.3507834666666667,1.043238411111111,2.278689522222222,2.8383527777777777,-3.1754641555555554
684,1778413286150,0.66744745,1.3694397,1.0415547,2.291585177777778,2.8663075333333334,-3.344329488888889
685,1778413286160,1.347724915,1.84497046,1.47863508,2.29774788,2.72550896,-4.09580716
686,1778413286170,1.654158211111111,1.9971186222222224,1.7262491444444443,2.2775356,2.758671222222222,-4.603896222222222
687,1778413286180,2.33235566,2.1244625299999997,2.56784493,2.4180847,3.49878815,-5.79348142
688,1778413286190,2.2823045222222222,1.8171250333333333,2.789339711111111,2.5661183999999997,4.415229444444445,-6.238464066666667
689,1778413286200,2.287135422222222,1.7092257666666666,2.8321030222222223,2.6564050222222217,4.978176066666666,-6.296019533333333
690,1778413286210,2.6899435,1.4254033,3.01462096,3.13541786,6.591347279999999,-6.018342179999999
691,1778413286220,2.905660666666667,1.3664381333333333,3.0462346444444446,3.624530077777778,7.0276281111111105,-5.9274751
692,1778413286230,3.2410935333333333,0.9027356333333332,2.8081314,4.959952522222222,7.0031942222222225,-6.110389933333334
693,1778413286240,3.0397138499999996,0.410953864,2.31166245,6.195961280000001,6.76947022,-6.3258426
694,1778413286250,2.9346528,0.26949742,2.1432045,6.502851,6.7025213,-6.373733
695,1778413286260,2.24773769,-0.064644024,0.956592465,7.00954875,6.267292830000001,-6.10758696
696,1778413286270,1.6775571666666669,-0.2211816,0.140709434,7.1553714444444445,5.727159622222222,-5.78874508888889
697,1778413286280,1.0077620755555554,0.1012220255555555,-0.3628700971111111,6.292855266666667,4.646333133333333,-4.697839888888889
698,1778413286290,1.064784658,0.48249461,-0.414633935,6.1937623,4.5400457,-4.577766
699,1778413286300,1.1177176,0.62826836,-0.41807315,6.1937623,4.5400457,-4.577766
700,1778413286310,1.6015264222222223,0.8713312844444444,-0.3848869522222222,3.512821444444445,4.452151933333334,-3.061099833333333
701,1778413286320,1.69024808,0.8687152699999998,-0.343276125,3.0191126,4.5296617,-2.9400842
702,1778413286330,1.0337595222222222,0.4157966377777777,-0.0246796253333333,2.384366,4.688482,-2.924813
703,1778413286340,0.6221298066666666,0.2168724133333333,0.0238123646666666,1.8132237222222225,4.721467611111111,-2.584800122222222
704,1778413286350,0.349813099,0.0777392909999999,0.0294072033999999,1.45832142,4.65293048,-2.2221401
705,1778413286360,-0.0170978811111111,-0.1835540699999999,0.0260414911111111,1.2871484666666668,4.0191968,-1.155315767777778
706,1778413286370,-0.0313493902,-0.2183359159999999,0.0418560999999999,1.24733486,3.64894186,-0.596797774
707,1778413286380,0.0969026717777777,-0.2354913766666666,0.0348258797777777,1.2172404555555554,3.026366244444445,0.1453731677777777
708,1778413286390,0.24046118,-0.2119127633333333,0.0309774166666666,1.2137789555555554,2.6179384999999997,0.4442301722222221
709,1778413286400,0.307664287,-0.197209672,0.035977708,1.2145934,2.3928413,0.57427275
710,1778413286410,0.4443044,-0.2026337733333333,0.09319649,1.2705877,1.5810254666666663,0.6791349033333334
711,1778413286420,0.4510527666666666,-0.22492166,0.1006054616666666,1.2901348,1.4293317333333333,0.6750625933333333
712,1778413286430,0.443751519,-0.28450439,0.071988958,1.2682257199999998,1.19478666,0.6611352549999999
713,1778413286440,0.4011108233333333,-0.3415138266666667,0.0642313916666666,1.1901595,1.0767370222222223,0.6510358988888889
714,1778413286450,0.37019845,-0.365411573,0.0661745949999999,1.1661532200000002,1.05814013,0.6536218170000001
715,1778413286460,0.2309247088888888,-0.4205767044444444,0.046154456,1.0804106333333334,0.98931806,0.7554908133333333
716,1778413286470,0.1959294455555555,-0.4387146166666666,0.0135339881111111,1.010841911111111,0.9038672844444444,0.8845153166666666
717,1778413286480,0.184590034,-0.46291115,-0.0422036846,0.88736254,0.7869850620000001,1.0716246210000002
718,1778413286490,0.2043310266666666,-0.4706677066666666,-0.0670567566666666,0.7008708666666666,0.75190206,1.2288974333333331
719,1778413286500,0.2105644533333333,-0.4774770577777778,-0.0856011988888888,0.5863030666666665,0.7580105311111112,1.3026742111111114
720,1778413286510,0.165540152,-0.52074984,-0.149002602,0.1860488039999999,0.73549062,1.47771588
721,1778413286520,0.15150614,-0.5246850611111111,-0.1443410777777777,0.0292103764444444,0.6188052222222222,1.5479633444444445
722,1778413286530,0.169354395,-0.5038708749999999,-0.0134459049999999,-0.0824796484,0.23552742516,1.63201596
723,1778413286540,0.19132213,-0.4853332000000001,0.10832949,-0.13965495,-0.0005344914,1.6799064
724,1778413286550,0.19132213,-0.4853332000000001,0.10832949,-0.13965495,-0.0005344914,1.6799064
725,1778413286560,0.394559614,-0.211798944,0.490552992,0.251287306,-0.28250159428,1.6569384799999998
726,1778413286570,0.54995756,-0.0398024599444444,0.5098637322222221,0.4475728833333333,-0.0888019255555555,1.6188894333333332
727,1778413286580,0.6584191777777778,0.0395924200555555,0.3568195722222222,0.6249222,0.50464466,1.4497525777777778
728,1778413286590,0.81121198,0.227537664,0.0578143413,0.685477538,0.8140456159999999,1.20772136
729,1778413286600,0.8470074222222223,0.3373638522222222,-0.220449865,0.7168886522222222,1.0247472222222225,0.942749422222222
730,1778413286610,0.62250275,0.322890788,-0.8886586160000001,0.608266459,0.89797602,0.533284935
731,1778413286620,0.3656513833333333,0.22623271,-1.1693467333333334,0.4853775711111111,0.7191199266666666,0.4386646944444444
732,1778413286630,-0.2629320222222222,0.1614389622222222,-1.4315028777777778,-0.9304306533333332,0.1330459288888889,1.6689110222222223
733,1778413286640,-0.50664544,0.2116587,-1.4833487,-1.84937064,0.336103433,2.7840125799999997
734,1778413286650,-0.50664544,0.2116587,-1.4833487,-2.0431314,0.39476004,3.025679
735,1778413286660,-0.50664544,0.2116587,-1.4833487,-2.0431314,0.39476004,3.025679
736,1778413286670,-0.50664544,0.2116587,-1.4833487,-2.0431314,0.39476004,3.025679
737,1778413286680,1.907404768888889,1.282801811111111,-1.3398546111111111,-3.2071941444444447,-0.0428696,3.488904933333333
738,1778413286690,2.5971334,1.5888427,-1.2988563,-3.5397835,-0.16790664,3.6212551999999993
739,1778413286700,2.5971334,1.5888427,-1.2988563,-3.5397835,-0.16790664,3.6212551999999993
740,1778413286710,2.5971334,1.5888427,-1.2988563,-3.5397835,-0.16790664,3.6212551999999993
741,1778413286720,2.5971334,1.5888427,-1.2988563,-3.5397835,-0.16790664,3.6212551999999993
742,1778413286730,2.3785739,1.4627513666666667,-0.9124516333333332,-2.796543611111111,-0.38611484,2.980841311111111
743,1778413286740,1.7578837111111112,1.2514179555555556,0.0234193888888888,-0.7426121177777778,-0.9390673666666668,2.0722823777777775
744,1778413286750,1.21469888,1.12357782,0.1111375829,0.67741434,-1.24055446,1.84019268
745,1778413286760,0.7724739333333334,0.9975074,-0.2004690056666666,1.4998591,-1.4073157666666667,2.1614575333333335
746,1778413286770,0.729188908,0.970032212,-0.472356804,1.95219155,-1.48611505,2.6383638
747,1778413286780,0.9685592688888888,0.9634030755555556,-0.7774301800000001,1.8941271,-1.3646922,3.148798866666666
748,1778413286790,1.184086677777778,0.9940281333333334,-0.9254740777777778,1.3690699000000002,-1.0584540666666666,3.5294244666666668
749,1778413286800,1.21078401,1.01028755,-0.91524548,1.3178266,-1.0322555,3.5442884
750,1778413286810,1.2175947000000005,1.0847686111111112,-0.7320481333333333,0.4872779555555555,-0.7385737333333333,3.4800138666666665
751,1778413286820,1.1964112222222223,1.1139504444444444,-0.5890248722222222,0.1480541046666666,-0.6244131533333334,3.3836356666666667
752,1778413286830,1.18170304,1.13798706,-0.32789107,-0.0724617515,-0.532582445,3.2513872
753,1778413286840,1.148627277777778,1.1549149444444444,-0.1327651966666666,-0.1713511344444444,-0.4510682822222222,3.0264936
754,1778413286850,1.07359006,1.16520828,-0.036785683,-0.168242605,-0.3773050839999999,2.84889991
755,1778413286860,0.8807153222222222,1.1499824333333333,0.0235210195555555,-0.1473244822222222,-0.1953269,2.6082328555555554
756,1778413286870,0.6412467666666666,1.0977367999999998,0.0820474713333333,-0.1133885233333333,-0.01926714,2.367720333333333
757,1778413286880,0.5720151,1.0804899,0.11076866,-0.028786177178,0.0724006705,2.24213022
758,1778413286890,0.3809402577777778,1.094989377777778,0.2187560011111111,0.1177153534866666,0.13344468,2.147815366666667
759,1778413286900,0.2846304366666666,1.1140792333333334,0.2798232533333333,0.2379843933333333,0.1427431344444444,2.0802149111111112
760,1778413286910,0.215335738,1.20158842,0.3570208359999999,0.7308024200000001,0.0177909264,1.8583959
761,1778413286920,0.2352948899999999,1.3191318333333333,0.3745408111111111,1.1654541777777778,-0.0988130322222222,1.6859469444444446
762,1778413286930,0.392169208,1.56910366,0.18803535,1.82458554,-0.245484238,1.18951808
763,1778413286940,0.4970615333333333,1.700329566666667,-0.0007588522222222,1.9087195333333336,-0.2705289666666666,0.7658751666666667
764,1778413286950,0.5268600555555555,1.738021577777778,-0.0847542677777777,1.9072942,-0.2735832,0.6005392
765,1778413286960,0.41623162,1.80779452,-0.03711802198,1.41928831,0.2329847842,-0.3319725716
766,1778413286970,0.3150996888888889,1.8471098666666663,0.0166811896444444,1.0863155,0.617244211111111,-0.6618869288888889
767,1778413286980,0.1911222533333333,1.8946193777777776,0.1484639422222222,0.9103915,0.8138013,-0.7989882
768,1778413286990,0.0439141453,1.91307191,0.517694821,-0.647994418,2.42466653,-1.41301187
769,1778413287000,0.027074749,1.9026719000000003,0.6152188,-0.9343757377777776,2.7526389,-1.4992227777777778
770,1778413287010,0.261704304,1.89637294,1.72821674,-1.4780976200000002,3.889127,-1.7472675
771,1778413287020,0.5230386611111111,1.9368644222222224,2.2506868777777775,-1.3112684777777777,4.528643333333333,-1.973986855555556
772,1778413287030,1.0235963166666666,1.9922402,2.9765355,-0.7153530888888889,5.216525388888889,-2.3255633555555555
773,1778413287040,1.58342779,2.0868107,3.46058909,0.48045425,5.75312002,-2.88343574
774,1778413287050,1.8134663,2.0951763555555556,3.6381458,1.1311109222222224,5.912017455555556,-3.1937894222222223
775,1778413287060,2.4234443333333333,1.962960066666667,4.06977,3.0832260666666667,5.957287666666667,-3.9270097333333336
776,1778413287070,2.65188347,1.9359453,4.1847107,4.01589316,5.9696268,-4.2000176
777,1778413287080,3.428187666666666,1.7848806000000002,4.095899333333333,5.007861688888889,5.909981111111112,-4.550888444444444
778,1778413287090,4.13540592,1.6146552,3.7396996,6.62349315,5.58951975,-5.3624373499999995
779,1778413287100,4.4838288,1.441676222222222,3.4200672222222224,7.518299333333333,5.2295567555555555,-6.0556851
780,1778413287110,4.480515333333333,0.74069364,2.5770305999999996,8.427503,4.5359734666666665,-7.263941000000001
781,1778413287120,4.05055324,0.305972136,1.969496,8.6878056,4.10817678,-7.872683
782,1778413287130,3.4816056333333334,0.0665926366666666,1.3676915333333333,8.667363,3.6286618,-8.143637333333334
783,1778413287140,3.0846244666666665,0.0858891599999999,0.7356831444444444,8.416711666666666,2.910865333333333,-8.024674933333333
784,1778413287150,3.0056632,0.1021096199999999,0.5900649,8.310424,2.6402345,-7.9393344
785,1778413287160,2.9305572666666664,0.1789975711111111,0.2039854733333333,7.614295888888888,2.0239575444444444,-7.73992668888889
786,1778413287170,2.78038789,0.223509981,-0.306831932,6.357469289999999,1.68560245,-7.5094811
787,1778413287180,2.50414,0.1098336386666666,-0.75919066,4.7918169,2.3276843333333335,-7.345387533333334
788,1778413287190,2.024701522222222,-0.0870545382222222,-0.9523048444444444,2.501725,3.547419,-7.073764
789,1778413287200,1.6615512899999998,-0.188090248,-0.90954084,1.872277428,3.8354946,-6.88073624
790,1778413287210,0.5295363266666667,-0.4525738177777778,-0.6302027444444445,0.4789296899999999,4.243581333333334,-6.1619725333333335
791,1778413287220,0.146654896,-0.53218548,-0.5444118333333334,0.0808608966666666,3.998631533333333,-5.528676833333333
792,1778413287230,-0.101057723,-0.59819035,-0.4473584149999999,-0.0871220925,3.3693188500000004,-4.7656013999999995
793,1778413287240,-0.2769944733333334,-0.6807409444444444,-0.2263072377777777,-0.1656499088888889,2.089250311111111,-3.4517027
794,1778413287250,-0.294663528,-0.6957814649999999,-0.1598995694,-0.153032519,1.92200034,-3.2566786700000003
795,1778413287260,-0.3320993133333333,-0.7029204433333333,0.1718799451111111,0.1199551366666666,0.9454048977777778,-1.770371088888889
796,1778413287270,-0.2495945022222222,-0.6656892355555555,0.2321680244444444,0.3703346244444444,0.5430601733333333,-1.1392980055555555
797,1778413287280,-0.020525588,-0.6078403490000001,0.3077710079999999,0.7601230489999999,0.0923371969,-0.421667866
798,1778413287290,0.19993036,-0.5997097899999999,0.3288708133333333,0.9879690566666668,0.0096462966666666,-0.0893364133333333
799,1778413287300,0.348727648,-0.634439454,0.268472986,1.06450821,0.14132714705,0.1236507614999999
800,1778413287310,0.5282693177777777,-0.7209397844444445,0.1204474011111111,0.905301088888889,0.8757004577777778,0.62531245
801,1778413287320,0.53499395,-0.7239514722222222,0.0887450111111111,0.7220469166666666,1.2295846511111113,0.825670361111111
802,1778413287330,0.500898135,-0.701428115,0.044621506,0.55329016,1.37993456,1.023856368
803,1778413287340,0.4639227533333334,-0.6762487800000001,0.0206211228888888,0.5085897055555555,1.3516184111111111,1.087045111111111
804,1778413287350,0.4706433,-0.6567456,0.0234403919999999,0.485363964,1.20511004,1.1663059
805,1778413287360,0.5902241222222222,-0.6679217466666666,0.0514122102222222,0.3944970266666667,0.6742565988888889,1.3473339333333334
806,1778413287370,0.60851115,-0.688582868,0.076147736,0.2373599679999999,0.698228978,1.40136
807,1778413287380,0.5680615777777778,-0.7169286755555555,0.0913637311111111,0.0647073877777777,0.863279891111111,1.461019411111111
808,1778413287390,0.5337574111111111,-0.7354426377777777,0.0877591844444444,-0.2380522766666666,1.1906939799999998,1.5978491666666668
809,1778413287400,0.478701709,-0.76833449,0.082196868,-0.3345916,1.294538,1.6475314
810,1778413287410,0.39173016,-0.8059379222222222,0.0415200375555555,-0.7972065866666667,1.7452076,2.095486066666667
811,1778413287420,0.3640252933333333,-0.7910319266666667,-0.024269706,-0.9810037444444444,1.8468797444444445,2.2790796
812,1778413287430,0.335065275,-0.78635687,-0.0794710979999999,-1.2282611,1.89133585,2.52470805
813,1778413287440,0.33448088,-0.7859096933333333,-0.1217245833333333,-1.4785048666666667,1.8607935,2.7412025
814,1778413287450,0.34261143,-0.78501534,-0.12912339,-1.5587295,1.8516308,2.806385
815,1778413287460,0.2258295666666666,-0.7719251666666667,-0.0075715801111111,-1.8323891,1.7726278,3.2777554
816,1778413287470,0.21498205,-0.77159995,0.0028965105,-1.8531579,1.7728314,3.381803
817,1778413287480,0.21498205,-0.77159995,0.0028965105,-1.8531579,1.7728314,3.381803
818,1778413287490,0.6117226311111111,-0.3406296377777777,-0.3501898043333333,-2.0253490000000003,1.9504522222222225,4.572887333333333
819,1778413287500,0.7833688,-0.17049775,-0.49472398,-2.117044,2.010451,4.985888
820,1778413287510,1.45694472,0.23637965,-0.8430126039999999,-3.1179172,1.7196878000000002,5.1261384
821,1778413287520,1.7424797,0.4254618266666667,-0.9091079199999998,-3.570122233333333,1.4893983333333332,5.132287666666667
822,1778413287530,2.25966228,0.872898488,-0.720365204,-4.08844632,0.21181128,4.905256039999999
823,1778413287540,2.674983366666667,1.1900491666666666,-0.4644478366666666,-4.277822544444444,-0.7829619355555555,4.710531622222222
824,1778413287550,2.856880888888889,1.3126105444444445,-0.3003359577777778,-4.3189529888888885,-1.06205128,4.642523999999999
825,1778413287560,3.2139254,1.5756681499999998,0.419628139,-4.332418819999999,-1.24446388,4.45884898
826,1778413287570,3.274462688888889,1.7370221,0.6489131866666666,-4.1959691,-1.1052178222222222,4.343141055555555
827,1778413287580,3.343341888888889,1.9473461,0.8640070222222221,-3.7259561333333338,-1.0747433,4.148145166666667
828,1778413287590,3.48808754,2.19187184,1.14049338,-3.4934812600000003,-1.15540228,4.041274
829,1778413287600,3.5044591777777776,2.238182744444445,1.2290859666666667,-2.8180251333333337,-1.4580839111111112,3.673652422222222
830,1778413287610,3.00414484,2.1193858800000003,1.15348194,-1.18195888,-2.07582702,2.73792432
831,1778413287620,2.5552406,1.9770158,0.9010688533333332,-0.4902897444444444,-2.354061088888889,2.4152307222222222
832,1778413287630,2.007518888888889,1.741466811111111,0.4851062244444444,-0.09361234,-2.5620546,2.2580393888888888
833,1778413287640,1.4700827,1.47921123,0.085547677,-0.06873559,-2.79529801,2.26155515
834,1778413287650,1.3809206444444444,1.4430854666666666,0.0378646744444444,-0.1579294688888889,-2.7826806000000004,2.2807764666666666
835,1778413287660,1.4739342222222225,1.521786,0.0749637222222222,-0.7945595777777777,-2.348911222222222,2.2218634999999995
836,1778413287670,1.45092608,1.47719598,0.097633744,-1.1996734839999998,-1.95561224,2.02992174
837,1778413287680,1.2606426666666666,1.3350982333333334,0.16160496,-1.7789059555555555,-1.3373398333333333,1.7289777
838,1778413287690,1.1112234,1.2475484,0.210622052,-2.15784844,-0.92144784,1.52951572
839,1778413287700,0.8499886,1.1163456,0.31038398,-2.5800662,-0.490434,1.3115654
840,1778413287710,0.4929555999999999,0.9250235,0.52734786,-2.8512824,-0.21555273,1.0794435
841,1778413287720,0.4929556,0.9250235,0.52734786,-2.8512824,-0.21555273,1.0794435
842,1778413287730,0.1531830611111111,0.7899885,0.9738169377777778,-2.169712577777778,-0.7347050288888889,1.0886062
843,1778413287740,-0.1089968755555555,0.696189,1.3868559222222223,-0.9761848555555556,-1.3653029888888888,1.1170445333333334
844,1778413287750,-0.0891332514,0.7205054719999999,1.42285738,-0.3878421979999999,-1.4864815,1.10473258
845,1778413287760,-0.0898697415555555,0.7699636355555556,1.2907290666666666,0.9528793444444444,-1.4994858444444443,0.93603011
846,1778413287770,-0.1424778219999999,0.76682524,1.20550328,1.21978565,-1.4067049,0.8839723349999999
847,1778413287780,-0.16815005,0.7651666,1.1672328,1.7223432333333333,-0.9959440555555557,0.8254667111111111
848,1778413287790,-0.1773917877777777,0.993160928888889,0.8447884622222221,1.8309383,-0.8972583,0.8155574
849,1778413287800,-0.11765931,1.1136625,0.7165052,1.9592161999999995,-0.622377,0.7758524
850,1778413287810,0.2172924882222222,1.351955611111111,0.5200574533333334,1.9027468,-0.2758229931111111,0.447420182
851,1778413287820,0.479296265,1.52109495,0.352734,1.7652110800000005,0.0026419148,-0.0767987764
852,1778413287830,0.54811126,1.5734456,0.30550563,1.6867783,0.062382776,-0.3579565
853,1778413287840,0.5525559444444444,1.566724311111111,0.2648392966666666,1.5373243333333333,0.1575052688888888,-0.78745
854,1778413287850,0.5077674054,1.52207971,0.211515384,1.2909493,0.31718245,-1.4507623
855,1778413287860,-0.019584476,1.1067650777777778,0.2912941022222222,0.1223985333333333,1.5278816666666666,-2.220633466666667
856,1778413287870,0.0324836047999999,1.04782938,0.359075808,-0.491319746,2.39736162,-2.16630868
857,1778413287880,0.26170566,1.0732469,0.3730502177777778,-0.9879266855555556,3.172418322222222,-2.1245268222222222
858,1778413287890,0.512654928,1.1134429899999998,0.323622544,-1.31646748,3.62127048,-2.21340514
859,1778413287900,0.64408232,1.1305808444444445,0.3178234222222222,-1.4656092222222223,3.785649444444444,-2.2931885888888885
860,1778413287910,0.9073548,1.1153852,0.5549409,-1.65646504,3.69622148,-2.74749946
861,1778413287920,1.2617369777777778,1.1221961555555555,1.1067447777777777,-1.2043702777777776,3.086093611111111,-3.2351235
862,1778413287930,1.5130794888888888,1.1191168,1.6463087777777776,-0.51316262,2.734330433333333,-3.6162922333333336
863,1778413287940,1.43745273,0.992371922,1.98296636,0.500917676,2.64438824,-3.9273967
864,1778413287950,1.3592256,0.9364875533333332,2.089329288888889,0.9275631,2.6898573333333333,-3.973026955555555
865,1778413287960,1.13557848,0.966952732,2.05796152,2.86626334,3.21682864,-3.2473402800000004
866,1778413287970,1.2695964333333334,1.01768128,1.8667552666666667,3.533649666666667,3.2928994666666664,-2.8141987
867,1778413287980,1.7243322499999998,1.1780168400000002,1.66063046,4.33909245,3.21585129,-2.2732681300000004
868,1778413287990,2.2456323222222223,1.4102381444444445,1.5271114222222222,4.917532666666667,3.0279274999999997,-1.9522000444444447
869,1778413288000,2.5310013,1.5473465,1.46475,5.17548,2.9060295,-1.8294876
870,1778413288010,3.81349049,2.00840073,1.10836958,5.7391087,2.48789687,-2.30955248
871,1778413288020,4.130173144444445,2.0613906,0.8361090999999999,5.814493766666667,2.4058049333333336,-2.764957755555556
872,1778413288030,4.0106364800000005,1.82511875,0.363816964,5.37266151,2.39540699,-3.5804355
873,1778413288040,3.5846130444444446,1.4470458666666666,0.0463069032222222,4.783876,2.373905166666667,-4.241392666666666
874,1778413288050,3.3277491400000003,1.27919054,-0.0075492204,4.50811398,2.3822737700000003,-4.43751534
875,1778413288060,2.3091829444444443,0.7268547444444444,-0.1396897299999999,3.599417466666667,2.576095666666667,-4.6146202
876,1778413288070,2.0610806,0.6191062350000001,-0.172327135,3.31751145,2.5654058500000003,-4.5117943
877,1778413288080,1.3587242666666666,0.3062916077777778,-0.1805931922222222,2.8107457444444446,2.1909225444444447,-4.045310566666667
878,1778413288090,1.2007171222222222,0.2065195166666666,-0.1476203988888889,2.6012931,1.859571766666667,-3.678802166666667
879,1778413288100,1.1247913,0.14967337,-0.1227815499999999,2.5463169,1.7428999,-3.5503206
880,1778413288110,1.0906530444444444,0.0337926199999999,-0.1663240644444444,2.2826937555555555,1.427295477777778,-3.1297183888888886
881,1778413288120,1.0194344699999998,-0.0284894656,-0.208070059,2.15144979,1.33851899,-3.04087408
882,1778413288130,0.6164485688888889,-0.2616514488888889,-0.3351516577777778,1.7780661111111111,1.241122911111111,-2.826127177777778
883,1778413288140,0.327781328,-0.42221368,-0.438385332,1.49436144,1.19338178,-2.6226421600000003
884,1778413288150,0.2556009627777778,-0.4656606599999999,-0.4680862566666666,1.3624184,1.1735903,-2.5221884
885,1778413288160,0.0365841116666666,-0.6604111555555555,-0.5797086311111112,0.7918871177777778,0.9056998777777778,-1.9837603444444445
886,1778413288170,0.0081346212,-0.747000884,-0.59184552,0.37577797,0.615886768,-1.57170994
887,1778413288180,0.0755125373333333,-0.8223514622222222,-0.4649830888888889,-0.0486811333333333,0.2803534511111111,-1.1388907555555554
888,1778413288190,0.155935932,-0.9009306,-0.32484212,-0.41326872,0.0554191204,-0.7335054
889,1778413288200,0.20498148,-0.948531,-0.25748456,-0.600921,-0.005421269,-0.4923428999999999
890,1778413288210,0.27275304,-1.058791388888889,-0.0922648748888888,-0.79428808,0.0401886588888888,-0.1843061933333333
891,1778413288220,0.298389356,-1.12493445,-0.0190315986,-0.92980116,0.088404868,0.0642153199999999
892,1778413288230,0.2783360222222222,-1.257620777777778,0.0917058917777777,-0.8759380333333334,0.0604144901111111,0.46615283
893,1778413288240,0.2418840355555555,-1.348940511111111,0.1742445833333333,-0.6834532533333334,0.0410709957777777,0.7141568111111111
894,1778413288250,0.21449423,-1.3775499,0.1934869,-0.63512844,0.037948888,0.7605812
895,1778413288260,0.0983085811666666,-1.3771026777777775,0.1169038428888888,-0.3824158366666667,-0.0447191086666666,1.0295576
896,1778413288270,-0.03149574125,-1.33241005,-0.001859864,-0.1159540804,-0.1150072664,1.41101134
897,1778413288280,-0.119021174,-1.2810808333333332,-0.1594808433333333,-0.1752537755555555,0.14637428,1.8170075555555556
898,1778413288290,-0.3507081322222222,-1.175420922222222,-0.6866321911111111,-0.7059867,0.95653591,2.634100666666667
899,1778413288300,-0.38096735,-1.1625679,-0.76412994,-1.28348172,1.5509717200000002,3.1183447600000003
900,1778413288310,-0.5112256111111111,-1.0609324933333335,-1.3200059555555557,-3.0068109222222223,2.9499001666666667,4.1919224
901,1778413288320,-0.2137658611111111,-0.9082643822222224,-1.149027122222222,-5.3474587,4.500815833333333,5.436735622222222
902,1778413288330,0.346895225,-0.7752586499999999,-0.7438849000000001,-6.842466419999999,5.311454299999999,6.2088804
903,1778413288340,1.3793047555555555,-0.5275307944444445,-0.4215625422222222,-8.32211511111111,4.9288246,6.5781036111111115
904,1778413288350,2.08135928,-0.156655494,-0.1446547799999999,-8.5082621,4.38959411,6.31034213
905,1778413288360,3.4871445555555556,0.8358482266666667,0.9353222122222224,-8.188212,1.633159466666667,3.8842672888888887
906,1778413288370,3.617192711111111,0.9463221333333336,1.4789176777777775,-7.241322866666668,0.25210174,2.308960244444444
907,1778413288380,3.31213839,0.9063029,1.68142741,-5.11042456,-1.7694718479999998,0.458043836
908,1778413288390,2.9557652777777776,0.8165043111111111,1.4505351333333332,-3.2275386666666668,-3.5900173333333334,-0.8758871444444445
909,1778413288400,2.681071,0.7327257,1.1228398,-2.440182,-4.459796,-1.3224844
910,1778413288410,2.09827482,0.539113779,0.7203468900000001,-1.91595297,-5.733480999999999,-1.27471606
911,1778413288420,1.778101711111111,0.4418889411111111,0.5572276111111112,-2.098514777777778,-5.887218399999999,-0.7624731055555556
912,1778413288430,1.69732466,0.480906132,0.509102884,-3.22725884,-4.4918192,0.489471906
913,1778413288440,1.7453727666666667,0.5941335777777778,0.6716787333333333,-4.017126577777778,-3.2839827333333336,1.2248251666666663
914,1778413288450,1.7587678333333332,0.6371916444444444,0.7761834666666666,-4.100880488888889,-3.117764444444445,1.3175382000000002
915,1778413288460,1.71188941,0.713059895,1.01650136,-4.06951024,-2.72523398,1.6402012
916,1778413288470,1.667058666666667,0.7053765033333332,1.086232,-3.4921374666666667,-3.2930775666666667,1.7346789333333337
917,1778413288480,1.6101142666666666,0.7047260766666666,1.1477194333333331,-2.7126454666666664,-4.1073371666666665,1.745267
918,1778413288490,1.48233038,0.6489616500000001,1.10069535,-1.87887457,-4.85373118,1.69963666
919,1778413288500,1.3899760777777777,0.5992016222222223,1.0443292444444443,-1.6375288,-5.0565934,1.6829605
920,1778413288510,1.1535002,0.53416529,0.8222980200000001,-1.3499419199999998,-5.08811324,1.79193566
921,1778413288520,1.0332920333333333,0.6293964999999999,0.4588479033333333,-1.3302726666666669,-4.746486999999999,2.270595666666667
922,1778413288530,1.0919404222222222,0.6210118699999999,0.4105557999999999,-2.4768753111111113,-3.891300666666667,2.6864893
923,1778413288540,1.38036098,0.474363032,0.902997842,-3.60648796,-2.81731908,2.92904318
924,1778413288550,1.4935628,0.45767912,1.4027648,-4.1720104,-1.9992267,2.98292
925,1778413288560,1.2845566666666666,0.5005373366666667,2.226898333333333,-4.0378276,-0.33385348,2.5365432
926,1778413288570,1.1177176,0.526006315,2.4436183,-3.69750431,-0.113663401,2.35886305
927,1778413288580,0.83950014,0.6185015333333334,2.6200513333333335,-1.9743431722222224,-0.6612675933333334,1.9404666222222224
928,1778413288590,0.527799046,0.70198304,2.5262695,0.765605434,-1.8627635,1.4755168
929,1778413288600,0.5039318,0.7078157,2.5119455,1.1791643,-2.0548139,1.4202962
930,1778413288610,0.5039318,0.7078157,2.5119455,1.1791643,-2.0548139,1.4202962
931,1778413288620,0.39334001,0.9216575,1.29477972,3.47425478,-3.02235005,1.082986362
932,1778413288630,0.2656083222222222,0.9804535777777778,0.7830707222222222,4.622179333333333,-2.9220897,0.71761828
933,1778413288640,0.2126241999999999,1.0912933333333334,0.3508233066666666,4.410283088888889,-2.2730560222222227,0.6223261111111111
934,1778413288650,0.19360886,1.13303562,0.2129697327999999,4.06610456,-1.7530553000000002,0.545562964
935,1778413288660,0.0944601222222222,1.3107404777777778,0.1329074875555555,3.0016016666666667,-0.5032617933333333,0.3948872866666666
936,1778413288670,0.106637315,1.42909255,0.18691639,2.5927107,0.019287496,0.336653192
937,1778413288680,0.3021517811111111,1.6686644222222222,0.2616751466666666,2.0081518999999997,0.800769838888889,-0.0396202222222222
938,1778413288690,0.42909345,1.6811346222222223,0.3179148877777777,1.8568653333333331,0.8969443388888888,-0.5823410444444446
939,1778413288700,0.435013164,1.65706614,0.3495935659999999,1.85476128,0.875985494,-0.8437022200000002
940,1778413288710,0.3320247733333333,1.581457411111111,0.4264747388888888,1.9406871555555556,0.8083036411111111,-1.4980689444444444
941,1778413288720,0.1247803216666666,1.4621551,0.4099222888888889,2.075956066666667,0.7510876111111111,-2.0913374444444446
942,1778413288730,0.0729127944,1.33984038,0.354038938,2.01492556,0.95796122,-2.4069826
943,1778413288740,0.2412234253333333,1.2767987666666667,0.3788432433333333,1.6793125,1.5310038666666663,-2.521713211111111
944,1778413288750,0.322652972,1.27708368,0.40177345,1.6024815,1.654938,-2.5325727
945,1778413288760,0.9022104966666666,1.4129280333333334,0.5897566333333333,0.8778129577777778,3.1810975333333333,-2.9736130444444444
946,1778413288770,1.0593199544444445,1.481800611111111,0.6300503000000001,0.72001074,3.550677,-3.1210986666666667
947,1778413288780,1.4693846,1.72818015,0.8414515249999999,0.477056428,4.116973,-3.65807416
948,1778413288790,1.4924855,1.8312282,1.2737362111111112,0.3791579777777778,4.591289333333333,-4.424918266666667
949,1778413288800,1.4088627,1.8316618,1.4803607,0.4931827999999999,4.640836,-4.6339636
950,1778413288810,1.9369795111111108,2.074534922222222,2.186919588888889,1.3299078066666667,4.399754555555556,-4.635660666666666
951,1778413288820,2.58958707,2.20438761,2.6453586099999997,1.87650747,4.29772272,-4.7145345999999995
952,1778413288830,3.3827516888888893,2.2151358888888892,2.9042683666666664,2.4588892,4.2382874,-4.91251
953,1778413288840,3.87256742,1.80486154,2.89177244,3.98431224,3.95509841,-6.1160778
954,1778413288850,3.844289233333333,1.5155356,2.7698162,4.3568679999999995,3.8694713,-6.410791244444444
955,1778413288860,3.347674944444444,0.8441142777777777,2.011340288888889,5.303808555555555,3.655674733333333,-6.949083077777778
956,1778413288870,3.01962732,0.5506053,1.45614598,5.34236324,3.4353895999999997,-6.71250888
957,1778413288880,2.6565743444444445,0.4871693333333333,1.0254087555555556,5.023930222222223,3.1805035555555556,-6.0521559
958,1778413288890,2.52206493,0.6682493300000001,0.79012231,4.556859510000001,2.98519522,-5.41074013
959,1778413288900,2.5375872,0.7258655,0.7455313,4.3922973,2.9170246,-5.1959434
960,1778413288910,2.52034828,0.561874234,0.665977898,3.96983533,2.63989096,-4.65247222
961,1778413288920,2.378953288888889,0.3066608577777778,0.4111351066666666,3.673940866666667,2.5276350888888888,-4.328607733333333
962,1778413288930,2.2176447,0.161274655,0.152615609,3.2823877500000003,2.60877595,-4.11260555
963,1778413288940,1.9498394,-0.0440879366666666,-0.1048130206666666,2.7480999333333336,2.7367484,-4.046532233333334
964,1778413288950,1.8557181,-0.110951595,-0.16500962,2.604958,2.7642365,-4.064654
965,1778413288960,0.98334398,-0.379720329,-0.231711683,2.0844399499999997,2.7000976999999997,-3.86735035
966,1778413288970,0.407127431111111,-0.5323413555555556,-0.25495389,1.9322032333333337,2.516504111111111,-3.533691966666667
967,1778413288980,0.1425997819999999,-0.59313825,-0.245776524,1.85757124,2.1977368200000003,-2.9828129599999995
968,1778413288990,-0.1945946833333333,-0.6764114166666667,-0.2285397533333333,1.8199430333333335,1.6093280666666665,-1.8740794666666665
969,1778413289000,-0.206765108,-0.6716763840000001,-0.225799759,1.8107192400000005,1.43008514,-1.51813875
970,1778413289010,-0.0382237751111111,-0.6071899044444444,-0.2228212744444444,1.6688601333333333,0.9735717555555556,-0.6470229888888889
971,1778413289020,0.0168668372,-0.58865021,-0.198877458,1.62019595,0.8703046249999999,-0.4782934
972,1778413289030,0.1309222766666666,-0.5454756022222222,-0.1371794057777777,1.4992481999999998,0.652334,-0.1398840213333333
973,1778413289040,0.1702538366666666,-0.5356105200000001,-0.1122931319999999,1.4332767666666666,0.551747811111111,0.0259694913333333
974,1778413289050,0.16819274,-0.54190356,-0.117714182,1.39125052,0.513020072,0.10526425
975,1778413289060,0.07047837,-0.6069663055555555,-0.1736009111111111,1.1896844222222225,0.3693759377777778,0.3450692955555555
976,1778413289070,0.01641864166,-0.645424855,-0.1351084938,1.06456931,0.227029015,0.5035977380000001
977,1778413289080,0.0004573438,-0.657142,-0.117171474,1.0246199,0.17661121,0.55839074
978,1778413289090,0.02134880704,-0.65035502,-0.0712419652,1.01020391,0.1175422818,0.660829832
979,1778413289100,0.1218939688888889,-0.6188165888888889,0.1246786788888888,0.9863401555555554,-0.0369138364444444,0.9757352
980,1778413289110,0.25321598,-0.5842596820000001,0.17748596,1.03879154,0.1507723662,1.08042078
981,1778413289120,0.3106854666666667,-0.5721167277777778,0.1742445799999999,1.0445742333333332,0.2247917877777777,1.0686518333333332
982,1778413289130,0.3226103,-0.5729298,0.16177773,1.0453887,0.2408265299999999,1.0641723
983,1778413289140,0.224604578,-0.6569834460000001,-0.0571313788,0.99591015,0.367577325,1.04767935
984,1778413289150,0.1917185099999999,-0.6742161666666667,-0.1465431033333333,0.940798141111111,0.3591272755555555,1.080529377777778
985,1778413289160,0.1365079739999999,-0.68368016,-0.21777491,0.661043611,0.157148093,1.16734441
986,1778413289170,0.09402988,-0.7056204666666667,-0.22862106,0.54157546,0.1217028299999999,1.2033097222222222
987,1778413289180,-0.0763154279999999,-0.8019614799999999,-0.310219292,0.27846999,0.25636495,1.3598223500000002
988,1778413289190,-0.2009568433333333,-0.8636073,-0.35584392,-0.2315450522222222,0.6744602066666666,1.7951528333333333
989,1778413289200,-0.2669332519999999,-0.8885945080000001,-0.35979538,-0.32603973,0.75699246,1.8839292999999997
990,1778413289210,-0.4423394977777778,-0.971394788888889,-0.3959783955555556,-1.319888177777778,2.2453556555555556,3.063475288888889
991,1778413289220,-0.5431312811111111,-0.9922767455555556,-0.5470915666666667,-1.6516461555555555,2.758170522222222,3.6001469555555556
992,1778413289230,-0.633030834,-0.889021398,-0.927346788,-2.42436113,3.72340428,4.67515008
993,1778413289240,-0.2679831166666667,-0.5556015400000001,-1.3863004333333333,-3.7603333555555554,4.7769867999999995,5.830460844444445
994,1778413289250,0.0763702999999999,-0.364612748,-1.58102522,-5.1303306,5.5618941,6.68815139
995,1778413289260,1.5037869666666666,-0.2377679311111111,-1.1214374777777778,-7.971276555555556,5.765006955555555,7.194041600000001
996,1778413289270,2.10620822,-0.07551050108,-0.3017341004,-9.1829434,5.02910556,6.891441240000001
997,1778413289280,2.7437981999999996,0.1750711904,0.399139152,-9.356831333333334,4.308127533333333,6.4707302
998,1778413289290,4.100381266666666,0.82163334,2.1416392,-8.060129,0.67025214,4.119096
999,1778413289300,4.26465717,0.836780572,2.97585049,-8.060129,0.67025214,4.119096
1000,1778413289310,3.7958313,0.4111581519999999,3.7587865,-4.9518332,-1.815254812,2.3407362
