id,timestamp,acc_x,acc_y,acc_z,gyro_x,gyro_y,gyro_z
0,1778325725900,0.52470475,0.473276,0.33092907,1.1501312,0.25177002,-0.19117737
1,1778325725910,0.5285488100000001,0.4746793875,0.32638351125,1.12509915,0.2182121275,-0.1833229075
2,1778325725920,0.56595172,0.4844217,0.2947678433333333,0.9792226,0.01266649,-0.1507602266666666
3,1778325725930,0.5975570433333333,0.4909296333333333,0.3028218733333333,0.8765411666666667,-0.1990254733333333,-0.1423543299999999
4,1778325725940,0.61878973,0.5042711,0.31811696,0.8481293,-0.3602295,-0.14804077
5,1778325725950,0.6436019900000001,0.5067530333333333,0.3426445733333333,0.8953603333333332,-0.6638336333333333,-0.2195892333333333
6,1778325725960,0.66503894,0.5054921,0.3716876,0.9195099,-0.9200287,-0.2913208
7,1778325725970,0.6468023622222222,0.5087460444444445,0.3744666377777778,0.7042626355555556,-0.7098202233333333,-0.3052876844444444
8,1778325725980,0.5547655444444444,0.5084480911111111,0.3445693266666667,0.3739098488888889,-0.4374711788888888,-0.2811415044444444
9,1778325725990,0.5093295,0.4931269355555556,0.2534690599999999,0.33733114,-0.6581573533333334,-0.17982483
10,1778325726000,0.5384542833333333,0.5046786200000001,0.16135015,0.3167419433333333,-0.9947764066666668,-0.2275797533333333
11,1778325726010,0.54203385,0.51012886,0.12384661,0.2329406699999999,-1.3370819,-0.27267456
12,1778325726020,0.5706693677777778,0.5304400066666667,0.2010779655555555,0.0338524716666666,-1.2852427222222222,-0.2554592466666666
13,1778325726030,0.64300539,0.5362979,0.3312961377777778,-0.2038285999999999,-0.9670850666666668,-0.2303042911111111
14,1778325726040,0.6506792166666666,0.5261559833333334,0.4019096533333333,-0.3133697566666666,-0.5834045533333333,-0.1972198466666666
15,1778325726050,0.6414333944444445,0.55488655,0.454517291111111,-0.33467102,-0.2826470244444444,-0.1527167388888889
16,1778325726060,0.62537855,0.59469455,0.4699209,-0.30342102,-0.05822754,-0.10064697
17,1778325726070,0.6208503322222222,0.61226713,0.4708424111111111,-0.2915869811111111,0.0009596077777777,-0.074605305
18,1778325726080,0.63770384,0.66193277,0.4654055,-0.2826538,0.22991943,0.05116272
19,1778325726090,0.6603192622222223,0.6965618444444445,0.4494745844444444,-0.30236816,0.26774597,0.094314575
20,1778325726100,0.7946596755555555,0.8264413166666666,0.4070216477777777,-0.27786255,0.049362183,0.044784546
21,1778325726110,0.9452158000000002,0.90660065,0.40756363,-0.18252563,-0.41137695,-0.25935364
22,1778325726120,0.97751283,0.9225863666666666,0.4344503166666666,-0.1961924233333333,-0.5832316166666667,-0.5508880466666667
23,1778325726130,0.9862315622222222,0.9229800444444444,0.47275387,-0.2625359444444444,-0.686024988888889,-0.8529544222222223
24,1778325726140,0.9241869266666668,0.9323083233333332,0.5705537133333334,-0.4532725,-0.4349823066666667,-0.8724263466666666
25,1778325726150,0.8564471888888888,1.010677576666667,0.6866974888888888,-0.6735483977777778,-0.0278201644444444,-0.7425808311111112
26,1778325726160,0.8220894,1.1460205,0.7996414,-0.80197144,0.27626038,-0.5826721
27,1778325726170,0.970042111111111,1.3663769,0.9440698444444444,-0.8613857777777778,0.5037587622222222,-0.3842942955555555
28,1778325726180,1.1524338444444444,1.5000929555555556,1.016039711111111,-0.8725111377777778,0.60922413,-0.3465389711111111
29,1778325726190,1.4306870444444444,1.5979879777777777,1.1493754222222223,-0.7167426222222222,0.6089833588888889,-0.7469567222222222
30,1778325726200,1.5499896,1.6346238,1.2971525,-0.38864136,0.48718262,-1.4226227
31,1778325726210,1.5237541,1.6190026,1.3559697,-0.3020121244444444,0.4417453311111111,-1.538155411111111
32,1778325726220,1.3825670333333333,1.4962421666666668,1.3393737666666667,0.5486094266666667,0.1629943843333333,-2.2249552333333336
33,1778325726230,1.2771342,1.3897116,1.2615192,1.2630463,-0.056106567,-2.7590027
34,1778325726240,1.2162013555555555,1.3702684444444444,1.0888091555555557,1.6516333888888888,-0.2341257741111111,-3.074798544444444
35,1778325726250,1.1394325,1.367420588888889,0.8835025333333334,1.9411468333333337,-0.4649268211111111,-3.3953229333333335
36,1778325726260,1.1084911,1.338093,0.78792745,2.0311127,-0.65052795,-3.5984344
37,1778325726270,1.0572385444444443,1.2380568555555556,0.5897659255555555,1.8604838,-0.3195800766666666,-4.000391666666666
38,1778325726280,0.9527137188888888,1.1391466555555556,0.4205668911111111,1.5265248666666666,0.3299407955555555,-4.258063411111111
39,1778325726290,0.6875326100000001,0.9984331777777778,0.2296870186666667,0.8833465955555556,1.1455841333333332,-4.306945766666667
40,1778325726300,0.3572008188888889,0.8543032444444445,0.0946691268888889,0.1591898615555555,1.7350871,-4.088036388888889
41,1778325726310,0.17692417,0.7893304,0.11018059,-0.046707153,1.7814789000000002,-3.894577
42,1778325726320,0.0827852766666666,0.7713380555555555,0.2286561222222222,-0.0330301918888888,1.4008907777777777,-3.537889288888889
43,1778325726330,0.04379008,0.751745,0.39584813,0.037994385,0.9031829999999998,-3.129181
44,1778325726340,0.1780757066666666,0.7002221555555556,0.4818656144444444,0.2484486966666666,0.6674499577777778,-2.990812544444444
45,1778325726350,0.3551255366666666,0.5920921555555556,0.4990990888888889,0.7416636088888889,0.6565653444444445,-2.916956566666667
46,1778325726360,0.35775612,0.5208950066666667,0.3568816088888888,1.0225372333333334,0.9789852666666669,-2.9209781333333336
47,1778325726370,0.31335112,0.48645514,0.25966537,1.0787659,1.1290131,-2.9123993
48,1778325726380,0.29102135,0.47632775,0.2245203999999999,1.0862122,1.1535187,-2.9022827
49,1778325726390,0.2137364211111111,0.4739952877777778,0.0504806848888888,1.0327759,0.7377014133333334,-2.8353526
50,1778325726400,0.1345937844444444,0.4638937955555555,0.0567585822222222,0.9846055666666664,0.5782640111111111,-2.8567759111111113
51,1778325726410,0.03276725,0.40965881,0.0917938233333333,0.9026387433333332,0.5077768833333333,-2.8243408
52,1778325726420,-0.0470398946666666,0.3647928933333333,0.1194950266666666,0.8747660333333334,0.4909159333333333,-2.7087554666666667
53,1778325726430,-0.101546384,0.35039374,0.13421978,0.88009644,0.4855956999999999,-2.589096
54,1778325726440,-0.1724319182222222,0.3963854377777778,0.1551538333333333,0.9506395155555556,0.3362155488888889,-2.347878355555556
55,1778325726450,-0.1963357944444444,0.43919023,0.1814850511111111,0.9941338333333332,0.2218780477777777,-2.1841837444444447
56,1778325726460,-0.16891941,0.46929061,0.1923592422222222,1.0267978555555557,0.1375952815555555,-2.070783855555556
57,1778325726470,-0.10105798,0.5142787,0.19852912,1.0947418,-0.006576538,-1.9158478
58,1778325726480,0.014504404,0.5585743,0.19242716,1.2523956,-0.32188416,-1.8556671
59,1778325726490,0.014504404,0.5585743,0.19242716,1.2523956,-0.32188416,-1.8556671
60,1778325726500,0.067976578,0.6124743699999999,0.2183951019999999,1.47908171,-0.8461044579999999,-2.01747588
61,1778325726510,0.0206506929999999,0.6245005375,0.304938365,1.7104549249999998,-1.2930717500000002,-2.2061309375
62,1778325726520,-0.05798184,0.6022602,0.3652201,1.8058013666666664,-1.3574981666666668,-2.2526499
63,1778325726530,-0.0662798977777777,0.6032909333333333,0.3628879888888889,1.9981502555555557,-1.3087344666666665,-2.299524922222222
64,1778325726540,-0.0993501116666666,0.6166603866666667,0.3155136799999999,2.1241404,-0.77018229,-2.2585093333333335
65,1778325726550,-0.107404135,0.63618416,0.23708984,2.0960846,-0.49179077,-2.2610016
66,1778325726560,-0.1617065122222222,0.6465302177777779,0.142028922,1.9993235333333332,-0.2985653344444444,-2.2514699111111107
67,1778325726570,-0.26482007,0.66168857,-0.015266566,1.8191223,-0.10296631,-2.206131
68,1778325726580,-0.3593252044444444,0.7174695,-0.1639378733333333,1.4391767666666668,-0.2643093488888889,-2.016040355555555
69,1778325726590,-0.35759784,0.7254224185714285,-0.2114183214285714,1.1989048942857143,-0.4965144528571428,-1.8887677857142855
70,1778325726600,-0.29996508,0.70879173,-0.19049999,0.91311646,-0.78367615,-1.7390137
71,1778325726610,-0.21951792,0.7064122875,-0.10988485875,0.66037368625,-0.6791477325,-1.6888790125
72,1778325726620,-0.1179935162222222,0.7294418022222222,-0.0620715888888888,0.469835071111111,-0.4320220977777778,-1.7179412444444444
73,1778325726630,-0.058958653,0.74064076,-0.06956981,0.383667,-0.30323792,-1.7880096
74,1778325726640,-0.0644495014444444,0.7300515066666667,-0.049760344,-0.0163981102222222,0.0387081568888888,-2.3683522888888886
75,1778325726650,-0.1058176,0.7435696,0.016461138,-0.17347717,0.16334534,-2.6753845
76,1778325726660,-0.1877933666666666,0.7345126844444444,0.0702085735555555,-0.1816423177777778,0.16429308,-2.751018933333333
77,1778325726670,-0.4985050999999999,0.67767376,0.21121989,-0.25282288,0.23898315,-2.9981537
78,1778325726680,-0.7690690333333333,0.6422594777777778,0.3354574466666666,-0.1436886271111111,0.1580234077777778,-3.3038855444444444
79,1778325726690,-0.984801752,0.654147378,0.3380922819999999,0.0847106946,0.1023559558999999,-3.13461154
80,1778325726700,-0.98881614,0.70061636,0.27565056,0.17381287,-0.037460327,-3.0428925
81,1778325726710,-1.0735043866666667,0.7488713911111111,0.2760715588888889,0.3360290533333333,-0.546066286,-2.848305611111111
82,1778325726720,-1.1469252666666665,0.76659261,0.2922475366666666,0.4498952233333333,-0.9065449866666666,-2.619628933333334
83,1778325726730,-1.1637381333333334,0.7443834455555556,0.3147003722222222,0.4729817733333333,-0.9780934333333332,-2.3481699666666667
84,1778325726740,-1.1439148,0.71820175,0.3566232255555556,0.4586588511111111,-0.8343895888888889,-2.1051687
85,1778325726750,-1.127318,0.71831095,0.37083367,0.4507904,-0.6409302,-1.9494019
86,1778325726760,-1.09958124,0.6835322749999999,0.343572231,0.429270931,-0.349208081,-1.77209018
87,1778325726770,-1.0588604,0.6170259,0.2954201,0.38900757,0.09889221,-1.5163727
88,1778325726780,-1.0258859111111112,0.4912011311111111,0.2171044377777778,0.28318617,0.5865563344444444,-1.308534388888889
89,1778325726790,-0.9997991,0.415557,0.16521488,0.2077331533333333,0.8784349333333333,-1.1883951666666668
90,1778325726800,-0.97258675,0.36198637,0.1452027,0.1722107,0.9873352,-1.1467285
91,1778325726810,-0.9189079466666666,0.2051934622222222,0.0783035638888888,0.1365254746666666,1.136174511111111,-1.0728115444444444
92,1778325726820,-0.85019296,-0.013373605,-0.03137462,0.15623474,1.1290131,-0.9922638
93,1778325726830,-0.8234561319999999,-0.1975645999999999,-0.0878858005,0.564337156,0.1370330599999999,-0.98672178
94,1778325726840,-0.8199019088888888,-0.3471086555555555,-0.1251054722222222,1.1052093333333337,-1.2064107333333334,-0.9755757666666668
95,1778325726850,-0.8743802333333334,-0.4515794355555556,-0.0557802112,1.628846888888889,-2.486263711111111,-0.8827820044444444
96,1778325726860,-0.91291416,-0.53187376,-0.0028184429,1.9304352,-3.1789246,-0.71209717
97,1778325726870,-1.1369586,-0.75933546,0.28858554,2.2963562,-3.9086304,0.07887268
98,1778325726880,-1.1118616666666667,-0.8131093466666667,0.4160241733333333,2.4096374333333332,-3.542002366666667,1.0819956333333334
99,1778325726890,-0.9515832377777778,-0.8157803777777777,0.5067458022222222,2.4797617333333335,-2.763829577777778,2.052741133333333
100,1778325726900,-0.514406128,-0.680943862,0.4775711579999999,2.47063911,-1.441207912,2.7036805
101,1778325726910,-0.1893799,-0.6183922644444445,0.4204718333333333,2.4145457222222224,-0.4233788311111111,2.890753888888889
102,1778325726920,0.1532505,-0.5961831,0.28968367,2.3043518,0.5617676,2.9582825
103,1778325726930,0.3946096555555555,-0.5289191277777778,0.2704847922222222,2.235168455555556,1.2232225444444442,2.8794504555555553
104,1778325726940,0.5716192044444445,-0.4197300511111111,0.2271371511111111,2.2494794333333332,1.8844672111111112,2.698240511111111
105,1778325726950,0.5875102088888888,-0.4312005066666666,0.0829534311111111,2.2562341,2.0446099,2.584903288888889
106,1778325726960,0.522497188,-0.4680284149999999,-0.1607851709999999,2.24921115,2.07102509,2.28199009
107,1778325726970,0.45185456,-0.4762281799999999,-0.22613183,2.2659912,1.8741608,2.2413483
108,1778325726980,0.45185456,-0.4762281799999999,-0.22613183,2.278656,1.791958311111111,2.245195211111111
109,1778325726990,0.3210804,-0.4555112166666666,-0.3765802944444444,2.3799744,1.1343384,2.2759705
110,1778325727000,0.2819224022222222,-0.3418753244444444,-0.4295263444444444,2.479641444444445,0.073332045,2.6233096666666667
111,1778325727010,0.2772718466666666,-0.2440084,-0.4795039333333333,2.332931566666667,0.2544301366666667,2.871454866666667
112,1778325727020,0.26295358,-0.16908324,-0.55451,2.1631927,0.51542664,3.0440216
113,1778325727030,0.2569340433333333,-0.0517315961666666,-0.6714551233333333,1.7101084333333332,0.9637146066666666,3.4532674
114,1778325727040,0.224660692,0.0196967472,-0.734600996,1.41879578,1.1446747,3.78300784
115,1778325727050,0.1845165844444444,0.0949739922222222,-0.7017447177777778,1.0672149333333332,1.3205821000000002,4.372421266666667
116,1778325727060,0.2095861766666666,0.1755673199999999,-0.62634446,0.8380126999999999,1.5522817333333334,5.019210833333334
117,1778325727070,0.27247125,0.27058762,-0.6025899,0.7496033,1.7245026,5.4925385
118,1778325727080,0.6568893722222222,0.5321895266666667,-0.7465299444444444,0.8336351222222222,1.4134402888888888,6.1108653
119,1778325727090,0.9937842,0.7429599,-0.8738604,0.9290924,1.0773468,6.5578003
120,1778325727100,1.4267684222222223,1.0283709666666665,-0.9438496822222222,1.2052256444444445,0.4691992888888889,6.524546411111111
121,1778325727110,1.8545743,1.2977016,-0.97648627,1.4846344,0.0823822,6.2451477
122,1778325727120,1.9066795,1.3402217777777778,-0.9859769711111112,1.5248073999999998,0.0724487302222222,6.111336711111111
123,1778325727130,1.92925464,1.4582667,-1.15264638,1.32036132,0.3925964344,5.64434514
124,1778325727140,1.8916698,1.5762935,-1.3535541,0.9306946,0.7375183,5.2171783
125,1778325727150,1.8577051888888887,1.5583960111111113,-1.3616888222222223,0.2595062233333333,0.7073449088888889,4.918599511111111
126,1778325727160,1.7875792333333334,1.5321596333333334,-1.2127735,-0.0733388266666666,0.4103139273333334,4.712056466666667
127,1778325727170,1.589052477777778,1.4852198555555556,-0.9334911888888888,-0.0996110722222222,-0.1161719451111111,4.5385402444444445
128,1778325727180,1.4179279777777778,1.3728585777777778,-0.7301363955555555,0.1808607316666667,-0.8277113333333334,4.5139752
129,1778325727190,1.2358887,1.2152108,-0.49959698,0.55784607,-1.2316132,4.6179504
130,1778325727200,1.12063232,1.059965946,-0.403915369,1.083338941,-1.2040267999999998,4.91713865
131,1778325727210,1.0448322666666665,0.9127290744444444,-0.3681735333333333,1.647081188888889,-1.0492824911111112,5.287361977777778
132,1778325727220,1.2570810444444445,0.8863161388888889,-0.5787123333333333,1.854573555555556,-0.7765112977777778,5.4976281
133,1778325727230,1.701386722222222,1.0055249222222222,-0.8098891111111111,1.9030965,-0.3295186366666666,5.4655507666666665
134,1778325727240,1.9280342,1.0792707,-0.8576295,1.8004761,-0.15304565,5.1271515
135,1778325727250,1.9196008666666668,1.062268111111111,-0.8241123344444445,1.7598165,-0.1216176323333333,4.967183433333334
136,1778325727260,1.6551788,0.9804277,-0.625531,1.5778351,0.30822754,3.5984955000000003
137,1778325727270,1.3177288333333332,0.9129596111111112,-0.6113762399999999,1.5994347555555557,0.3532630088888889,3.5074751222222225
138,1778325727280,0.6566187720000001,0.7360771100000001,-0.65040048,1.63014218,0.244204708,3.70694276
139,1778325727290,0.52385086,0.65534395,-0.6927692,1.6049957,0.07759094,4.0640106
140,1778325727300,0.59961718,0.6084848555555555,-0.7445770111111111,1.5037400777777776,-0.1757066511111111,4.574340811111111
141,1778325727310,0.76483034,0.6258935966666667,-0.7872050333333332,1.350819911111111,-0.3795267788888889,4.991924744444444
142,1778325727320,1.005362291111111,0.7528849255555555,-0.7769550777777778,1.120364688888889,-0.5622795944444445,5.051939211111111
143,1778325727330,1.1992520666666668,0.8644320322222223,-0.6306296777777778,0.9651896,-0.6978691777777777,4.863442355555556
144,1778325727340,1.3324126,0.9150202,-0.4340682,0.9003296,-0.6292114,4.432602
145,1778325727350,1.314393011111111,0.9047433088888888,-0.2524357344444444,0.9782138444444444,-0.4664611733333333,3.857006488888889
146,1778325727360,1.2089192,0.87853444,-0.103615105,1.1016693,-0.19404602,3.1484222
147,1778325727370,0.787823689,0.842011198,-0.042406054,1.3165237399999998,-0.1505920409999999,2.74479675
148,1778325727380,0.4525192444444444,0.7450215477777777,-0.0629395188888888,1.4570482444444446,-0.2370859744444444,2.624608333333333
149,1778325727390,0.2752788,0.64631313,-0.09189959,1.460706911111111,-0.1734025733333333,2.7976566000000003
150,1778325727400,0.3070879133333333,0.6579876733333333,-0.1353018533333333,1.3426429111111111,0.0272216805555555,2.9312862888888893
151,1778325727410,0.35020554,0.6976875,-0.18207888,1.209259,0.22193909,3.030716
152,1778325727420,0.5372882288888889,0.7860223822222222,-0.1761139677777777,1.0472090444444442,0.4587860155555556,3.0910118888888887
153,1778325727430,0.66723526,0.83960664,-0.13619675,1.0207062,0.6064911,3.0578766
154,1778325727440,0.884934132,0.889638076,-0.175929322,1.1163666,0.750521852,2.92195132
155,1778325727450,1.1826164333333335,0.94349332,-0.2671608366666667,1.3317617000000002,0.8232778000000001,2.7065226333333334
156,1778325727460,1.3991624444444446,0.9853364577777778,-0.3350080977777778,1.524214,0.7169935622222222,2.5813547777777774
157,1778325727470,1.5897712999999998,1.0008069333333334,-0.3250567933333333,1.7583923,0.5601603166666667,2.3807271666666665
158,1778325727480,1.7251692777777778,0.9738243933333334,-0.3250287844444444,2.0419955666666665,0.4967244455555555,2.1030476555555557
159,1778325727490,1.7503608666666668,0.9035494466666668,-0.5344573499999999,2.3254801333333335,0.6391652466666666,1.8408152
160,1778325727500,1.772082,0.8510764,-0.78380245,2.435913,0.69703674,1.7438812
161,1778325727510,1.82337111,0.851845,-1.045847665,2.3731124400000003,0.6692413289999999,1.72326814
162,1778325727520,1.9276550777777777,0.8887560922222222,-1.2588469666666666,2.0335336888888893,0.5496876988888889,1.6654629333333333
163,1778325727530,2.1308455,0.93857104,-1.4686265,1.2289581,0.28692627,1.488739
164,1778325727540,2.2190726,0.9572424,-1.3789356,0.8715701637777777,0.3392418788888889,1.2018330777777777
165,1778325727550,2.375446,0.92380598,-0.7830565166666666,0.0261535642222222,0.9224124666666668,-0.0617489333333333
166,1778325727560,2.314133,0.84692806,-0.6313888,-0.08984375,1.2115631,-0.5874634
167,1778325727570,2.2057715,0.7934269771428571,-0.5829086285714286,-0.0630580357142857,1.3445761285714286,-0.9615216857142858
168,1778325727580,1.790996,0.6315474,-0.44322038,0.20524597,1.3580475,-1.5973358
169,1778325727590,1.6531038333333334,0.5364871666666667,-0.4740531933333334,0.4584198033333333,1.1425069,-1.640304566666667
170,1778325727600,1.4784813125,0.38370737,-0.5745993875000001,0.7706375249999999,0.8223533425,-1.6245670375
171,1778325727610,1.3836657,0.25301436,-0.7647655,0.7725067,0.61820984,-1.4945374
172,1778325727620,1.3836657,0.25301436,-0.7647655,0.7725067,0.61820984,-1.4945374
173,1778325727630,1.3543382666666668,0.1730043133333333,-0.8527492,0.6096378111111111,0.4771236888888889,-1.4183112666666666
174,1778325727640,1.3090926333333333,0.11143409,-0.8297129111111111,0.3048485807777778,0.3732638922222222,-1.4025692777777778
175,1778325727650,1.1286261,0.01603495,-0.593682,-0.40782166,0.1910553,-1.4045258
176,1778325727660,1.0939829444444442,-0.0024734824444444,-0.5596085122222223,-0.528376258888889,0.2208794455555555,-1.4074215444444445
177,1778325727670,0.92720442,-0.1183557812,-0.364365874,-0.874250787,0.310406495,-1.39067079
178,1778325727680,0.7925710822222222,-0.2011489922222222,-0.2132785966666666,-0.9721187777777778,0.3842756455555555,-1.393569911111111
179,1778325727690,0.6387620033333333,-0.2484429366666666,-0.1202919306666666,-0.9246571666666666,0.41866048,-1.3237457
180,1778325727700,0.41016172,-0.2424223766666666,0.004055012,-0.82079568,0.4863026866666666,-1.1612853666666667
181,1778325727710,0.3070065,-0.19263403,0.07344906,-0.75935364,0.54844666,-1.0551147
182,1778325727720,0.26193734,-0.1258842215333333,0.0905328886666666,-0.7017737488888889,0.5992245177777777,-0.9685939955555556
183,1778325727730,0.17179902,0.0076153953999999,0.1247005459999999,-0.61502075,0.6624298,-0.8415375
184,1778325727740,0.22953029,0.16319002008,0.0775614625999999,-0.50726623,0.843521129,-0.60083618
185,1778325727750,0.3582040733333333,0.3367947733333333,-0.0101139373333333,-0.4803839666666667,0.8783840599999999,-0.4994642333333334
186,1778325727760,0.6299349133333334,0.5104953799999999,-0.0879140533333333,-0.4980163533333333,0.7510172666666667,-0.7618153866666666
187,1778325727770,0.7911205666666666,0.5745190422222222,-0.1537005333333333,-0.51364136,0.6808878522222223,-1.0650583866666663
188,1778325727780,0.96034706,0.6047006,-0.24101886,-0.57614136,0.4834594699999999,-1.7326202
189,1778325727790,1.018759091111111,0.6142739844444445,-0.2817495766666666,-0.6289842555555556,0.2625359422222222,-2.2555474444444443
190,1778325727800,1.03966686,0.6254468555555556,-0.2973149722222222,-0.6953243688888889,-0.0908440511111111,-3.0684018
191,1778325727810,0.959701258,0.5980505700000001,-0.347061851,-0.7593078719999999,-0.275971986,-3.62618101
192,1778325727820,0.87061572,0.5833455833333334,-0.4754359466666666,-0.92021686,-0.3208211266666667,-3.92689
193,1778325727830,0.83783036,0.59066755,-0.5425518,-1.0384521,-0.2270812999999999,-3.911621
194,1778325727840,0.9623407911111111,0.5887018333333334,-0.6578962355555555,-1.2483740555555556,-0.0350935194444444,-3.7722523333333338
195,1778325727850,1.2092862,0.6022602,-0.78917176,-1.5455322,0.23577881,-3.560089
196,1778325727860,1.7233253555555554,0.7079099644444445,-0.8144997244444445,-1.5863071111111111,0.3800065788888889,-3.5309668555555556
197,1778325727870,1.9565494666666667,0.7345398,-0.8341600333333334,-1.4718475333333332,0.3719584166666667,-3.5829925999999994
198,1778325727880,2.1163256,0.723069,-0.8775203,-1.3266144,0.27786255,-3.638382
199,1778325727890,2.33717294,0.69519786,-0.97694944,-0.99441681,-0.11133728175,-3.6551025
200,1778325727900,2.4240818,0.7112322,-1.0166335,-0.8216858,-0.33094788,-3.654892
201,1778325727910,2.4822077333333334,0.7163030666666667,-1.1077614333333332,-0.7114868166666667,-0.65419516,-3.6094428333333335
202,1778325727920,2.569905,0.7228248,-1.2655711,-0.59158325,-1.1107178,-3.5355835
203,1778325727930,2.577959,0.7068397,-1.3383015,-0.6347351,-1.3061981,-3.5057526
204,1778325727940,2.4557809777777777,0.6042673944444444,-1.4519234444444444,-1.3111165555555555,-2.0232883,-3.4565717777777776
205,1778325727950,2.289279422222222,0.4920545311111112,-1.454878988888889,-1.977851022222222,-2.3291947777777775,-3.4166293555555556
206,1778325727960,2.1714828,0.42849198,-1.3956549,-2.3812256,-2.2510834,-3.372589
207,1778325727970,2.0214686000000004,0.3514514266666667,-1.2731919888888887,-3.1127082222222224,-1.831368355555556,-3.2419195555555556
208,1778325727980,1.7720683222222222,0.2394561755555555,-0.9836982955555555,-4.5015242,-0.9199116888888887,-2.980755277777778
209,1778325727990,1.7999178111111114,0.3008774155555555,-0.6079867644444445,-4.959932111111112,-0.1606174,-2.9841901666666666
210,1778325728000,1.8226024,0.3351396,-0.34157133,-5.091263,0.5697479,-3.1701965
211,1778325728010,1.6780932555555554,0.2945996855555555,-0.192222024,-4.844707988888889,1.0249091166666666,-3.462085333333333
212,1778325728020,1.319209375,0.2111474079999999,-0.0202459693,-4.2442230599999995,1.64289856,-3.94199225
213,1778325728030,0.8826836833333334,0.1890997566666666,0.0196879673333333,-3.4470791666666667,1.7491709666666666,-4.122009277777778
214,1778325728040,0.6508016166666667,0.2334905799999999,0.0263863493333333,-2.8808289,1.5437520333333332,-4.031814566666666
215,1778325728050,0.4788226499999999,0.30573106,0.03110553,-2.3354187,1.2483215,-3.8567657
216,1778325728060,0.4497796166666666,0.3881955755555555,0.0244071481555555,-1.9217427666666664,0.96958074,-3.640280833333333
217,1778325728070,0.45087776,0.5072015,0.0046242997,-1.2834778,0.5340576,-3.2916412
218,1778325728080,0.553313861111111,0.50993925,-0.0851070189222222,-0.5690409377777778,0.0994330488888888,-2.9857872444444444
219,1778325728090,0.6038202833333333,0.47038857,-0.2021729833333333,-0.3614891917777778,-0.0102301699999999,-2.9479115555555553
220,1778325728100,0.61195517,0.4448442499999999,-0.26823115,-0.049362183,-0.15356445,-2.9608765
221,1778325728110,0.5451649533333334,0.3972931166666666,-0.4003889466666666,-0.0074649384444444,-0.2125786688888889,-3.0595312777777774
222,1778325728120,0.48260546,0.37467715,-0.45993814,-0.095703125,-0.2270812999999999,-3.1233215
223,1778325728130,0.42838464,0.3502169288888889,-0.4994350699999999,-0.2906426338888889,-0.1739332439111111,-3.1211954111111115
224,1778325728140,0.3767100659999999,0.3113446159999999,-0.531886516,-0.776623532,0.06054382392,-3.09850768
225,1778325728150,0.39877233,0.2766896,-0.54096526,-1.0523071,0.27360535,-3.12706
226,1778325728160,0.4502412266666666,0.2097491466666666,-0.5325457133333333,-1.4942762444444446,0.4364132311111111,-3.233164477777778
227,1778325728170,0.5022521,0.16991384,-0.5049679,-1.8256836000000003,0.4978485,-3.3289185
228,1778325728180,0.537924921111111,0.1552972744444444,-0.4232220033333334,-2.018627622222222,0.5942535466666666,-3.460654266666667
229,1778325728190,0.6439271,0.13403781,-0.21942014,-2.201797511111111,1.031185611111111,-3.814676911111111
230,1778325728200,0.66711235,0.08449418,-0.16048014,-2.1937408,1.2541809,-4.010681
231,1778325728210,0.6670582577777778,0.0645219137777777,-0.1387455713333333,-2.166576777777778,1.35171,-4.082766966666666
232,1778325728220,0.69688797,0.031166192,-0.09470715,-2.0110474,1.8203583,-4.4144287
233,1778325728230,0.4923818677777778,-0.12337635,0.0311454532222222,-1.8471696444444443,1.9622819666666669,-4.4327119999999995
234,1778325728240,0.3442249,-0.1705469,0.10346734,-1.5998535,2.0936127,-4.360626
235,1778325728250,0.2585337266666667,-0.1680526777777777,0.1284164688888888,-1.5255263,2.11728078888889,-4.291982
236,1778325728260,-0.348970995,0.1335484642,0.339301477,-1.16986085,2.14942627,-3.87199253
237,1778325728270,-0.6025275777777778,0.3118997288888889,0.4160931066666666,-0.9383240000000002,2.0893402,-3.6192017
238,1778325728280,-0.7853817333333333,0.5479033466666666,0.4646326088888888,-0.6629011111111112,1.6312781555555556,-3.479242977777778
239,1778325728290,-1.0605015666666666,0.7616302666666667,0.5711221644444444,-0.3286980422222222,1.1757693777777778,-3.2335781444444445
240,1778325728300,-1.2118838,0.8496128,0.6229443,-0.13192749,1.1343384,-2.9986877
241,1778325728310,-1.3108498666666666,1.0102433,0.5699294666666667,0.1046854644444444,1.119303411111111,-2.573591433333333
242,1778325728320,-1.3963922,1.2365654,0.46711335,0.4784851,1.0310059,-1.8295593
243,1778325728330,-1.3567466444444445,1.2910172666666666,0.4064791588888888,0.5580274733333334,0.9419962777777778,-1.6238437
244,1778325728340,-1.0402029,1.496036,0.211854047,0.7974212439999999,0.525863651,-0.889260864
245,1778325728350,-0.7730424888888889,1.5811478333333335,0.128673982,0.8918050333333333,0.4090677988888889,-0.5729658355555556
246,1778325728360,-0.5182741333333333,1.6335655666666666,-0.0384917593333333,0.9283752666666668,0.3451487233333333,-0.3802744566666666
247,1778325728370,-0.3674471588888889,1.6602355555555557,-0.1891571311111111,0.8673096,0.19743347,-0.40690613
248,1778325728380,-0.2721829833333333,1.5571756666666667,-0.34173256,0.6444854866666667,0.0703125,-0.6705525866666666
249,1778325728390,-0.26741057,1.3698746444444443,-0.4275868822222222,0.29887051,0.0321960444444444,-1.0010240355555555
250,1778325728400,-0.3884622522222222,1.1497078,-0.4096492855555556,-0.1078355583333333,0.14878845,-1.2673373777777777
251,1778325728410,-0.5267755911111112,0.9750445777777776,-0.3291786644444444,-0.3011830677777778,0.2703535277777777,-1.335044033333333
252,1778325728420,-0.6278564,0.8447318,-0.24053201,-0.38972473,0.36787415,-1.3331451
253,1778325728430,-0.7183467555555555,0.5671165711111111,-0.0839549654444444,-0.1968502402222222,0.3835076211111111,-1.1037648555555557
254,1778325728440,-0.7415499059999999,0.401682699,-0.0121791888,0.0290359494,0.357174679,-0.8842986999999999
255,1778325728450,-0.68943954,0.2559432366666667,-0.0089198843333333,0.2838948599999999,0.3078714966666667,-0.6480000833333333
256,1778325728460,-0.6008055111111111,0.072534287,-0.0133812087777777,0.6088646855555555,0.2318810322222222,-0.3347524011111111
257,1778325728470,-0.5269384,-0.041685577,-0.008066471,0.91044617,0.17506409,-0.02180481
258,1778325728480,-0.5269384,-0.041685577,-0.008066471,0.9590945766666668,0.1763661722222222,0.0305124922222222
259,1778325728490,-0.38965595,-0.34285143,-0.0290554699999999,1.4361572,0.19529724,0.60723877
260,1778325728500,-0.3058356211111111,-0.4656939377777777,-0.0583152224444444,1.6793331333333334,0.09498935,0.891131941111111
261,1778325728510,-0.19782762,-0.5924003,-0.124848306,1.9970245,-0.10031128,1.2378693
262,1778325728520,-0.1588182455555555,-0.6091992888888889,-0.1482914335555555,2.0762075,-0.2015075599999999,1.3223826333333335
263,1778325728530,0.015317378,-0.6314493999999999,-0.2266202233333333,2.3368988444444443,-0.6914740777777778,1.7177174777777775
264,1778325728540,0.1988078888888889,-0.6574964977777777,-0.2987122488888889,2.4899411,-1.0884637111111113,2.1307373
265,1778325728550,0.354499448,-0.699273082,-0.377604916,2.30753937,-1.12615506,2.3182129
266,1778325728560,0.5224549333333334,-0.7644742955555555,-0.4476267311111111,1.9599100444444444,-1.0591074666666669,2.4819811000000005
267,1778325728570,0.5829137,-0.81449264,-0.45322803,1.7610626,-0.941864,2.5449524
268,1778325728580,0.53549614,-0.77279376,-0.4836300699999999,1.0643811714285714,-0.5236772742857143,2.630174914285714
269,1778325728590,0.49993297,-0.7415196,-0.5064316,0.5418701,-0.21003723,2.6940918
270,1778325728600,0.4542129566666666,-0.7155130888888889,-0.4596804622222222,0.1185404422222222,-0.2529364722222222,2.7796121888888887
271,1778325728610,0.45563737,-0.7401772,-0.33925217,-0.33750916,-0.53652954,3.0536194
272,1778325728620,0.50481546,-0.7708068,-0.28397366,-0.35882568,-0.5908661,3.1020813
273,1778325728630,0.674042,-0.8448369333333333,-0.2055762655555555,-0.2063700355555555,-1.1430816333333331,3.3050826222222223
274,1778325728640,0.7409394,-0.8691614,-0.17841895,-0.1058197,-1.4057922,3.3758545
275,1778325728650,0.6366173500000001,-0.876275341,-0.161798218,0.30297699,-1.9112060200000005,3.63871005
276,1778325728660,0.53703004,-0.87196743,-0.14327395,0.8864746,-2.5727844,4.129532
277,1778325728670,0.53703004,-0.87196743,-0.14327395,0.8864746,-2.5727844,4.129532
278,1778325728680,0.7045353511111111,-0.3591492588888889,-0.0584647147777777,1.5696682333333334,-2.8228895444444446,6.729966833333333
279,1778325728690,1.3724385,0.38321957,-0.021001443,1.7594604,-2.9648132,7.907501
280,1778325728700,2.7665607,1.3120205966666667,-0.1218646425555555,1.8186441777777775,-2.782296022222222,8.339284333333334
281,1778325728710,3.670616511111111,1.9045099,-0.3334491955555556,1.7275695666666666,-2.4466738666666665,8.092729333333333
282,1778325728720,3.831315766666666,2.2274378666666665,-0.4699048233333333,1.3931919,-2.320504111111111,7.190809333333334
283,1778325728730,3.407930322222222,2.3746856666666667,-0.4863374388888888,0.9174296155555556,-1.9807942777777776,6.329845777777778
284,1778325728740,2.7563655,2.424514,-0.42540443,0.48327637,-1.5661163,6.05394
285,1778325728750,2.51989815,2.3061464899999997,-0.415544244,0.257546996,-1.37969358,6.1665345
286,1778325728760,2.1867352,2.0752683,-0.42442763,-0.1116790799999999,-1.1528015,6.3367615
287,1778325728770,2.121666811111111,2.0183080888888885,-0.4150858755555555,-0.1963077111111111,-1.1341552555555556,6.360612688888889
288,1778325728780,1.8683632999999995,1.7789834000000002,-0.36304873,-0.5505676,-1.0473328,6.4970856
289,1778325728790,1.9279666666666668,1.7103622444444444,-0.3803219688888888,-0.6222381499999999,-1.0266232222222222,6.524429466666667
290,1778325728800,2.22253884,1.69949336,-0.472922572,-0.93491823,-1.27908172,5.746016
291,1778325728810,2.1197423000000004,1.6162231666666669,-0.5122213911111112,-1.1923930222222223,-1.5134989444444444,4.949425622222222
292,1778325728820,1.6811159666666666,1.385969122222222,-0.4850497666666667,-1.4985927777777777,-1.4843818111111111,4.588548422222222
293,1778325728830,1.188053,1.1020905,-0.42259845,-1.9291974888888888,-1.3608704,4.428102244444444
294,1778325728840,0.7708515322222221,0.7382820055555555,-0.2984397166666667,-2.326549977777778,-1.3579203111111111,4.624109822222222
295,1778325728850,0.6739469,0.59079045,-0.23247643,-2.4595184,-1.4420166,4.7798767
296,1778325728860,0.65039456,0.51061726,-0.17195146,-2.485560088888889,-1.4779866444444445,4.831960077777778
297,1778325728870,0.7020266488888889,0.4293739,0.0597415533333333,-2.3673146222222226,-1.873558911111111,5.262797077777778
298,1778325728880,1.322772,0.8039748,0.46503997,-1.8427429,-2.1946259,5.3950653
299,1778325728890,1.5416383111111112,0.9355206555555556,0.5174844644444445,-1.6213446555555555,-2.223795566666667,5.2179378666666665
300,1778325728900,1.8407032666666667,1.220742311111111,0.4002415288888888,-0.6755065777777778,-2.293860488888889,4.024659866666667
301,1778325728910,1.5696362,1.29819,0.18669228,-0.4845276,-2.218048,3.3071594
302,1778325728920,1.1029723777777778,1.2621787222222225,-0.0199437518888888,-0.7360466777777778,-2.0260654222222225,2.700191888888889
303,1778325728930,0.5684322644444445,1.2036044333333331,-0.1078590233333333,-1.301642488888889,-1.7044762555555557,2.328881155555555
304,1778325728940,0.19055079,1.2314811666666667,0.1465445166666666,-2.0247192,-1.04431152,2.443222033333333
305,1778325728950,0.2174241633333333,1.337808788888889,0.4095027455555555,-2.2368197777777774,-0.5759480800000001,2.578035122222222
306,1778325728960,0.3894973,1.4662234,0.6370987,-2.2161102,-0.2702179,2.6174011
307,1778325728970,0.785139,1.7393362200000002,0.779457936,-1.6570068299999998,-0.0350051884,2.15671234
308,1778325728980,1.0503369666666669,1.958514211111111,0.8023939755555555,-1.0752698833333332,-0.0479312468888889,1.507971911111111
309,1778325728990,1.0640318777777775,2.0781025222222222,0.6852195088888888,-0.7533298055555556,-0.2777930366666667,0.797095388888889
310,1778325729000,0.7002228777777777,2.217106633333333,0.1044716266666666,-0.5263061555555555,-0.7636752688888889,-0.6611395833333334
311,1778325729010,0.3403192,2.0946708,-0.13546413,-0.9148865000000002,-0.83161926,-1.2266235
312,1778325729020,-0.0119089062222222,1.9168755555555552,-0.0384782755555555,-1.5826314333333331,-0.4300079366666666,-1.4284922333333334
313,1778325729030,-0.2743657688888888,1.7733020666666668,0.2155854733333333,-2.293221388888889,0.1560177222222222,-1.5557946555555555
314,1778325729040,-0.25493686,1.8050965666666667,0.54232367,-2.4241892,0.8151143333333333,-1.441096
315,1778325729050,0.027962782,1.90827196,0.728169121,-2.02478629,1.14217074,-1.39972683
316,1778325729060,0.4004802,1.9889947,0.7931739,-1.4714813,1.1604462,-1.5003967
317,1778325729070,0.9109667777777778,2.054917477777778,0.6405027355555555,-0.7516055566666666,0.9395718222222222,-1.9231855555555557
318,1778325729080,1.3512053,2.1128538,0.39060166,0.124816895,0.5633545,-2.5933533
319,1778325729090,1.3750828333333334,2.083579711111111,0.0696118022222222,0.4683024127777777,0.3514879044444445,-2.9619378333333333
320,1778325729100,1.3248746777777778,2.111849644444445,-0.4111544455555556,0.6135932155555556,0.1715206555555555,-3.198777977777778
321,1778325729110,1.5990863,2.3187158,-0.61784352,0.43214417,0.10688782,-3.1254578
322,1778325729120,2.101843722222222,2.527004777777778,-0.7069787666666667,0.1142154299999999,0.3717837911111111,-2.9004482888888887
323,1778325729130,2.380273,2.618052,-0.7546381,-0.1766696477777778,0.6827782666666666,-2.7520768888888885
324,1778325729140,3.1101123555555557,2.7280536000000004,-0.9407183944444444,-0.5393269844444445,1.1682485333333334,-2.9104546555555557
325,1778325729150,3.7512107222222224,2.647677711111111,-1.0548006444444442,-1.0162709666666665,1.7050815555555556,-3.538898088888889
326,1778325729160,3.97589524,2.37223724,-0.974240232,-1.25033876,2.02031556,-4.27988588
327,1778325729170,3.972624322222222,2.030998611111111,-0.7709346677777779,-1.1607343833333337,2.1305914555555554,-4.821065288888889
328,1778325729180,3.7715213,1.7041795,-0.43467793,-0.63471985,2.0003967,-5.2405396
329,1778325729190,3.567380611111111,1.4417640333333333,-0.3492587855555555,-0.1629299599999999,1.7803599,-5.3451182444444445
330,1778325729200,3.3225787,1.0654819,-0.40063262,0.85025024,1.1865387,-5.481827
331,1778325729210,3.2413073,0.94284225,-0.49410632,0.9506327288888888,1.0998959444444445,-5.4927046
332,1778325729220,2.7851644,0.5397816,-0.8636101,1.2884437044444443,0.4342804,-5.590174255555556
333,1778325729230,2.4949799,0.3413629,-0.96403813,1.1000671,0.26667786,-5.553192
334,1778325729240,2.169584211111111,0.1144578488888889,-0.9581949022222224,0.6843770222222223,0.3990071688888889,-5.407487555555555
335,1778325729250,1.79465808,-0.126519468,-0.89167603,0.048532104,0.713345348,-5.1772674
336,1778325729260,1.3859433666666667,-0.3166973733333333,-0.7601287333333333,-0.3650410966666667,1.0027821933333334,-4.974751666666666
337,1778325729270,1.1654373477777775,-0.3963007588888889,-0.6948576222222222,-0.4923417822222222,1.0637393666666668,-4.828275888888888
338,1778325729280,0.86443293,-0.46756443,-0.6217482,-0.5931854,1.0315399,-4.517227
339,1778325729290,0.7081821922222223,-0.4797137455555555,-0.6063459422222223,-0.6265038311111112,0.9515889555555554,-4.310209411111111
340,1778325729300,0.6057319,-0.48233014,-0.60515326,-0.72047424,0.7497864,-3.8876495000000006
341,1778325729310,0.5919701288888889,-0.4832927822222222,-0.6135189066666666,-0.8049875911111112,0.7028537444444445,-3.7606455222222226
342,1778325729320,0.5628870166666666,-0.5111287944444444,-0.6520393888888889,-1.249674511111111,0.5987532044444444,-3.303763455555556
343,1778325729330,0.59597003,-0.58629835,-0.6415177,-1.6483154,0.67308044,-3.1110687
344,1778325729340,0.6211348255555555,-0.7256280566666666,-0.5656973,-1.9277750666666664,0.7165730800000001,-3.0654449666666665
345,1778325729350,0.6347749,-0.8612287,-0.5027716,-2.2187653,0.75509644,-3.0354462
346,1778325729360,0.5955095666666667,-1.0259949222222222,-0.4819174222222221,-2.3144073888888888,0.6913079155555555,-3.0066816666666667
347,1778325729370,0.4901036733333332,-1.2572529222222224,-0.4681276711111111,-2.4382172,0.4560648488888888,-2.890214677777778
348,1778325729380,0.39974758,-1.3705767,-0.44212222,-2.4382172,0.2128906199999999,-2.762207
349,1778325729390,0.2941391088888889,-1.432662,-0.3077415333333333,-2.2004869,-0.4516737355555555,-2.375330611111111
350,1778325729400,0.2334237,-1.459535,-0.17060912,-1.9146423,-1.1011353,-1.9723053
351,1778325729410,0.2906006766666666,-1.4445128111111112,-0.03750268,-1.5376603555555557,-1.592157977777778,-1.4667782488888887
352,1778325729420,0.42583748,-1.4181188800000002,0.13270635,-0.996166988,-1.96793214,-0.7047515868
353,1778325729430,0.5506976,-1.4032812,0.21256223,-0.54364014,-2.0028687,-0.095840454
354,1778325729440,0.6930645777777777,-1.4254765444444444,0.2038709966666666,-0.4000091566666667,-1.9327393,0.0556030306666666
355,1778325729450,0.9089743,-1.4645388,0.17839406,-0.1127471899999999,-1.7924805,0.35849
356,1778325729460,1.0522485555555554,-1.441719922222222,0.0794143103333333,0.7894812566666667,-1.757509022222222,0.8087497444444445
357,1778325729470,1.0982397666666666,-1.3614251,-0.0943820593333333,1.6039377333333331,-2.138163266666667,1.1897634
358,1778325729480,0.9486596777777778,-1.1496917444444443,-0.3318764777777778,2.199239033333333,-2.6873016666666665,1.7447662333333334
359,1778325729490,0.7870532533333334,-0.9354771,-0.5009948000000001,2.409800188888889,-2.971023511111111,2.448433811111111
360,1778325729500,0.68578374,-0.67001015,-0.6575029,2.357605,-2.9983673,3.2608185
361,1778325729510,0.8493557711111112,-0.2358593188888888,-0.8094154022222222,1.8302426111111112,-2.6455892000000003,4.5124445
362,1778325729520,1.080057611111111,0.1506055677777777,-0.8724902555555556,1.140304566666667,-2.1723768666666667,5.833255522222221
363,1778325729530,1.6365084333333333,0.6376498866666667,-0.8182962,0.6533711566666667,-1.9217427333333337,6.576446466666667
364,1778325729540,2.4350631,1.2787876,-0.7545152,0.17755127,-1.7935486,7.239044000000001
365,1778325729550,2.607801633333333,1.4078662777777775,-0.739519978888889,0.1398468044444444,-1.8536241555555557,7.244016800000001
366,1778325729560,3.6117992555555554,2.6193672666666665,-0.4381363466666667,0.09054735,-2.846271111111111,5.404061288888889
367,1778325729570,3.358400255555556,2.8916406888888893,-0.2483817655555555,0.0883026122222222,-3.0520460222222225,4.299318222222222
368,1778325729580,2.7656665,2.9118972666666667,-0.1696862277777777,0.03574795,-2.931193066666667,3.9439986
369,1778325729590,2.14134,2.904208,-0.15279165,-0.08026123,-2.7799835,3.7923737000000006
370,1778325729600,2.14134,2.904208,-0.15279165,-0.08026123,-2.7799835,3.7923737
371,1778325729610,1.9511526555555552,2.8715595444444446,-0.56904585,-1.1131557977777775,-2.6877831666666667,3.817114966666667
372,1778325729620,1.9721952777777776,2.8179344444444445,-0.6876036666666666,-1.9376119111111112,-2.563917477777778,3.659401811111111
373,1778325729630,1.8603905333333333,2.6032457333333334,-0.4601014933333334,-2.4263932555555554,-2.3883175555555556,3.4544593000000003
374,1778325729640,1.581541311111111,2.2443459999999997,-0.0348995733333333,-3.655349722222222,-1.7611236222222224,2.778484788888889
375,1778325729650,1.373781,2.040002,0.2525866,-3.9482270000000006,-1.5394897,2.492218
376,1778325729660,1.1962291888888887,1.8514275,0.5747972822222223,-3.8490464444444448,-1.5757565111111111,2.1514604444444445
377,1778325729670,1.00076382,1.65724743,0.8759471299999999,-3.43173665,-1.77000276,1.65950624
378,1778325729680,0.6750041,1.4385221333333331,1.0462618666666663,-2.6448822,-2.014231366666667,1.2206522666666666
379,1778325729690,0.5554425244444444,1.3739826000000002,1.0612975444444444,-2.3524661222222223,-2.089333455555556,1.0935923111111112
380,1778325729700,0.3758440644444444,1.2833838888888889,1.0589657666666663,-1.9016299888888888,-2.1551496777777777,0.94823368
381,1778325729710,0.0354514066666666,1.1053439333333333,1.0201887333333333,-0.9353078233333332,-2.163202866666667,0.6688435866666667
382,1778325729720,-0.0896017,1.032302911111111,0.9594587622222224,-0.4646996433333334,-2.0717043777777775,0.5085856088888889
383,1778325729730,-0.2004982977777777,1.0033139555555557,0.8797745033333333,-0.1766611743333333,-1.9678955,0.34038797
384,1778325729740,-0.4151603599999999,0.9892128,0.74472845,0.025741577,-1.8638611,0.18379211
385,1778325729750,-0.48231683,0.9756409533333332,0.666454588888889,0.0711992041111111,-1.5691359,-0.0197872588888888
386,1778325729760,-0.5458932333333333,0.9375000555555556,0.5685738333333333,0.0233781588888888,-1.1349792555555556,-0.2947523277777777
387,1778325729770,-0.5454854,0.911603,0.5521675,-0.027526855,-0.9669037,-0.4015808
388,1778325729780,-0.5327548311111111,0.8453013,0.5314909555555556,-0.1232248933333333,-0.5457712866666667,-0.7598571933333333
389,1778325729790,-0.51782616,0.7810730222222222,0.5036959222222221,-0.1486697711111111,-0.2796919066666666,-1.1019253444444443
390,1778325729800,-0.5204162922222222,0.7423360144444445,0.4702859188888888,-0.1281907827777778,-0.1781344911111111,-1.3204277444444443
391,1778325729810,-0.5342331833333334,0.6867315555555555,0.4116991911111111,-0.0691867406666666,-0.1164025211111111,-1.5794643444444445
392,1778325729820,-0.51546705,0.68011576,0.38035136,-0.006225586,-0.13014221,-1.7049255
393,1778325729830,-0.482690382,0.68399593,0.348550866,0.0383117674,-0.16977234,-1.80932616
394,1778325729840,-0.40234673,0.68951213,0.27870077,0.091796875,-0.24519348,-1.9914856
395,1778325729850,-0.3120998588888889,0.71413357,0.25180077,0.0894232883333333,-0.2527618533333333,-2.0970628444444444
396,1778325729860,-0.0919339837777777,0.8632259,0.1876813688888889,0.0111762152222222,-0.16346571,-2.4600847999999997
397,1778325729870,-0.0140517739999999,0.9594387,0.15362224,-0.037109375,-0.09338379,-2.6040192
398,1778325729880,-0.0208984392222222,1.1106864666666665,0.1203494777777777,-0.1581929516666666,0.0735117616666666,-2.7300720333333337
399,1778325729890,-0.059812583,1.2944072,0.10993638,-0.29223633,0.2768097,-2.8138733
400,1778325729900,-0.0438130645555555,1.4805412666666666,0.1095834711111111,-0.4032626666666666,0.5424126555555555,-2.6950954666666664
401,1778325729910,0.0910889016,2.0887149999999997,0.0783782228,-0.63557739,1.08459472,-2.44443658
402,1778325729920,0.334463,2.4509938,0.014630394,-0.79452515,1.3798828,-2.3153229
403,1778325729930,0.9152108488888888,2.8323204888888887,0.10837663,-0.7848680222222222,1.3119998555555554,-2.3552110444444443
404,1778325729940,1.4571406333333334,3.203071011111111,0.2503497288888889,-0.6597595,1.1151581,-2.4612732
405,1778325729950,1.9768731,3.5599364777777773,0.3413559777777777,-0.29271952,0.7906104244444445,-2.7897746
406,1778325729960,2.5241034666666664,3.814732688888888,0.2837721344444444,0.10404968,0.5122223,-3.3214722
407,1778325729970,2.8488624,3.818203,0.16326281,0.2190857,0.474411,-3.7401123
408,1778325729980,3.0142927,3.490095888888889,-0.04478314,0.1300828733333333,0.6131235777777778,-4.755669366666667
409,1778325729990,3.0615585,3.396351,-0.10422484,0.11895752,0.63046265,-4.882614
410,1778325730000,2.32655616,2.51762294,-0.150192829,-0.212294012,1.121287515,-5.32607728
411,1778325730010,1.7251016555555556,1.8930800666666667,-0.1339182022222222,-0.3453335266666666,1.406931522222222,-5.378014588888888
412,1778325730020,1.4938976,1.6107053666666666,-0.11720077,-0.1237538660333333,1.2307434000000002,-4.974222866666667
413,1778325730030,1.423012377777778,1.3559093444444443,-0.1382709944444444,0.0504777703666666,1.0406460555555557,-4.82272
414,1778325730040,1.3821198666666663,1.1695858555555556,-0.1601407166666666,0.2299262177777777,0.8171268,-4.670683
415,1778325730050,1.2038494666666668,0.8969463133333334,-0.19230221,0.2934875466666666,0.7297159666666667,-4.561081
416,1778325730060,1.0193555422222222,0.6838436433333334,-0.2219281766666666,0.2901679155555555,0.7176378111111111,-4.390172222222223
417,1778325730070,0.82127536,0.4570875666666666,-0.2538314733333333,0.1990254699999999,0.7740987166666666,-4.159479766666667
418,1778325730080,0.6892136666666666,0.2833724022222222,-0.2672005777777778,0.1143968337777777,0.8025038055555557,-3.9566023222222224
419,1778325730090,0.5897467,0.14916904,-0.2567614,0.044387817,0.8286133,-3.7710114
420,1778325730100,0.4707689711111111,-0.0032719422222222,-0.2519748222222222,-0.052261352,0.9076165111111112,-3.5328589333333333
421,1778325730110,0.3223824866666667,-0.1841330933333333,-0.2516767,-0.1641184466666666,1.0062086277777778,-3.2386711555555556
422,1778325730120,0.1835404688888889,-0.2983249555555556,-0.2454933266666666,-0.2583312966666666,1.0922597,-2.9338888
423,1778325730130,0.0777007438888889,-0.3553527855555556,-0.2393241311111111,-0.35313585,1.1641082555555553,-2.6045973555555553
424,1778325730140,-0.0297927449999999,-0.37823907,-0.2257662999999999,-0.4227295,1.1844025,-2.3270416
425,1778325730150,-0.1077556677777777,-0.3907815655555555,-0.2114613333333333,-0.4572330111111111,1.194700477777778,-2.201221022222222
426,1778325730160,-0.23492312,-0.4176553,-0.18098074,-0.6475067,1.2637634,-1.5254211
427,1778325730170,-0.2534443466666666,-0.4436747199999999,-0.1627982588888888,-0.8095465777777778,1.3937344444444446,-1.0352291622222225
428,1778325730180,-0.2286600844444444,-0.4865880422222222,-0.1270312722222222,-1.073260833333333,1.6138814555555556,-0.2882469997777778
429,1778325730190,-0.16317104,-0.4989266,-0.10349378,-1.1987762,1.6797485,0.073013306
430,1778325730200,-0.0086274616666666,-0.5005807066666667,-0.064023658,-1.251810688888889,1.5937618777777778,0.3762512235555555
431,1778325730210,0.2700321666666667,-0.4849750733333333,0.0189014374444444,-1.2403259,1.3766937,0.6626282
432,1778325730220,0.49391345,-0.4513350533333333,0.0860174633333333,-1.0590548666666666,1.0443233777777778,0.6284841044444444
433,1778325730230,0.66637975,-0.43351912,0.15191282,-0.7464023155555556,0.6140153777777777,0.4337819411111111
434,1778325730240,0.62123024,-0.44279262,0.26601154,-0.29330444,0.3332672,0.17527771
435,1778325730250,0.6277927777777779,-0.4746827822222222,0.2638961533333333,-0.1752370176666666,0.29491678,0.0682118733333333
436,1778325730260,0.58205825,-0.73773676,0.24611913,0.4161132857,0.02646331763,-0.5893280200000001
437,1778325730270,0.47101283,-0.7828059,0.2521396833333333,0.7004174266666667,-0.0834960909555555,-0.8701748344444444
438,1778325730280,0.41549012,-0.80534047,0.25514996,0.7703705,-0.10882568,-0.93634033
439,1778325730290,0.2915496646666666,-0.8183568466666666,0.2644649233333334,0.9351298,-0.1638641333333333,-0.9684753533333332
440,1778325730300,-0.0022690298888888,-0.84552801,0.2837590177777778,1.3399251111111112,-0.3037804533333333,-1.0119120666666666
441,1778325730310,-0.015394111,-0.84585327,0.28394878,1.3493347,-0.30751038,-1.0093079
442,1778325730320,-0.3439763634444445,-0.8833298633333333,0.2320733999999999,1.787462,-0.5141058977777777,-0.70499676
443,1778325730330,-1.0539654255555555,-1.136946672222222,-0.1622431466666666,2.4953206666666667,-0.9921196688888888,1.143946317777778
444,1778325730340,-1.321195388888889,-1.2205086444444444,-0.2924891577777778,2.4785105777777776,-1.2642347444444446,3.005204922222222
445,1778325730350,-1.3733827333333335,-1.1809707555555555,-0.3401750688888889,2.380216888888889,-1.4936184,4.753957077777778
446,1778325730360,-1.235192,-1.0683112,-0.37415296,2.35495,-1.6369475999999998,5.7780304
447,1778325730370,-0.4565951644444444,-0.7267942933333333,-0.5657641955555556,2.192793111111111,-1.983993511111111,7.688403822222223
448,1778325730380,0.39850014,-0.4029303399999999,-0.7218253533333333,1.9912244777777777,-2.2113749333333335,8.823861333333333
449,1778325730390,1.5597658777777776,0.0121301233333333,-0.7706913555555555,1.4600049888888889,-2.1796468222222223,9.432005555555556
450,1778325730400,2.57702925,0.465374975,-0.6718873625,0.97995186625,-1.64934345,9.252594375
451,1778325730410,3.3025649,0.9892128,-0.5316918,0.51950073,-0.7442627,8.698456
452,1778325730420,3.4326825571428574,1.247426057142857,-0.5297390571428572,0.30431693,-0.2758440314285714,8.359091714285714
453,1778325730430,3.5138647333333335,1.900550488888889,-0.6400395422222223,-0.3807186533333333,0.8658887888888889,6.912239877777778
454,1778325730440,3.238164225,2.0351207,-0.726876325,-0.674671175,0.856370925,5.955060875
455,1778325730450,3.0497217,2.084909,-0.7120504,-0.7945099,0.7348633,5.489334
456,1778325730460,2.974335033333334,2.083173711111111,-0.6940432888888889,-0.8134579,0.6861029711111111,5.367670888888889
457,1778325730470,2.266325111111111,1.8184250111111109,-0.4608328655555555,-0.6940884088888889,0.2812957755555555,4.7897626777777775
458,1778325730480,1.4629297333333335,1.4731106444444444,-0.1934952266666666,-0.4572448699999999,0.0458068873333333,4.675065733333334
459,1778325730490,1.1658025333333333,1.2551144,-0.12273344,-0.0204213433333333,-0.196894326,4.979090333333334
460,1778325730500,1.0269878222222222,1.0694680444444442,-0.1188828777777777,0.4066348544444444,-0.4111277211111111,5.306594866666667
461,1778325730510,1.012087,0.9373516,-0.16719183,0.6995239,-0.5258789,5.5244904
462,1778325730520,1.02387549,0.871493192,-0.22314213,0.848291008,-0.5523468100000001,5.64380953
463,1778325730530,1.1924459,0.9257724377777776,-0.3395914377777778,1.0228881733333333,-0.6182590133333333,5.802773355555555
464,1778325730540,1.7504827333333333,1.2337588666666666,-0.5595542466666666,1.1725006000000002,-0.9759572266666668,5.550954333333333
465,1778325730550,2.1460996,1.4424284,-0.7109507,1.1639862,-1.33815,4.958313
466,1778325730560,2.1867352,1.5459081,-0.78758526,0.8950042999999999,-1.3983307,4.114624
467,1778325730570,2.1867352,1.5459081,-0.78758526,0.8950042999999999,-1.3983307,4.114624
468,1778325730580,1.5161743444444444,1.5575009555555557,-0.6008678888888889,-0.2171376555555555,-0.570273508888889,2.5541313777777774
469,1778325730590,0.9642527133333334,1.4371808,-0.37309476,-0.9883880666666668,0.1320953333333333,1.8292795666666664
470,1778325730600,0.5169229377777778,1.2919666666666665,-0.1429758288888888,-1.2732865777777778,0.5102725466666667,1.5832061888888889
471,1778325730610,0.14800403,1.1997125,0.06991045,-1.2339325,0.63578796,1.5558624
472,1778325730620,-0.0450734811111111,1.2111293666666667,0.2379306433333333,-0.8570081900000001,0.39936489,1.7622816222222224
473,1778325730630,-0.14840533,1.2310747,0.35582376,-0.36627197,0.06535339,2.0256348
474,1778325730640,0.1780620593333333,1.4499122111111111,0.3794967333333333,0.2839592838888889,-0.3301069488888888,1.990007177777778
475,1778325730650,0.4882857244444444,1.711622922222222,0.4127561933333333,0.8418629888888889,-0.4508938244444444,1.7098422444444443
476,1778325730660,0.7166964333333333,1.8146971666666667,0.3261300266666666,1.2850697666666666,-0.29134623,0.8307647917333333
477,1778325730670,0.7530344555555556,1.7239888777777777,0.2032339577777777,1.5229729777777776,-0.1912757011111111,-0.0646531842666666
478,1778325730680,0.6373383,1.6237621,0.11506153,1.591156,-0.04118347,-0.58639526
479,1778325730690,0.0548002951111111,1.4245026555555556,-0.0761992362222222,1.423316088888889,0.2338985855555556,-1.4271308066666668
480,1778325730700,-0.338550362,1.26829302,-0.1290949499999999,1.15332338,0.29012146,-1.6883087199999998
481,1778325730710,-0.4506971611111111,1.1691788777777776,-0.0910862722222222,0.9308081666666668,0.2444271488888888,-1.6353369555555557
482,1778325730720,-0.47987602,1.1161095888888888,-0.0054091011111111,0.7042626066666666,0.2041235988888889,-1.4994523666666668
483,1778325730730,-0.44603258,1.1433359,0.06954337,0.58872986,0.20649719,-1.3470001
484,1778325730740,-0.1963617161111111,1.3183928555555555,0.1952475111111111,0.5111524777777778,0.2805311388888889,-1.1333499644444445
485,1778325730750,0.066732705,1.4826969,0.28590086,0.4795532199999999,0.35617065,-0.99012756
486,1778325730760,0.5325426033333334,1.7166259555555556,0.35610821,0.5651211211111111,0.3288760666666666,-0.9469909677777776
487,1778325730770,1.1289917,1.9887506,0.42916235,0.763443,0.19210815,-0.92781067
488,1778325730780,1.7630512,2.2260954,0.4524705,0.9264221,0.07865906,-0.96403503
489,1778325730790,2.02969607,2.36268211,0.491190182,1.0216049100000002,0.129525758,-1.092344671
490,1778325730800,3.2964643555555555,2.885606911111111,0.6078676555555556,1.5016699666666669,0.3907860644444444,-1.929331488888889
491,1778325730810,3.6299273,2.7845396666666664,0.4727673466666666,1.59257,0.50920614,-2.7957509
492,1778325730820,3.7559688,2.6095100444444443,0.2835960566666667,1.4982977888888889,0.6340247277777777,-3.691048488888889
493,1778325730830,3.601290711111111,2.411836411111111,0.1566995866666666,1.084979561111111,0.7865804,-4.3537598555555554
494,1778325730840,3.333953033333333,2.113640088888889,0.1599004788888888,0.72135925,0.9958496,-4.7164307
495,1778325730850,3.0696125,1.8202288,0.25405183,0.26116943,1.5130463,-5.042404
496,1778325730860,2.8641158399999997,1.68010315,0.306170463,0.2231445299999999,1.72460177,-5.01758419
497,1778325730870,2.5270861333333334,1.489544322222222,0.3480279122222222,0.3121303966666666,1.9512244444444444,-4.839706422222222
498,1778325730880,2.491968844444445,1.4289647666666667,0.2777939366666666,0.4986657044444445,1.7661047666666667,-4.659788288888889
499,1778325730890,2.5705824666666666,1.3491438111111111,0.1866786288888889,0.7069855,1.4214325,-4.500717
500,1778325730900,2.6550806,1.2891607,0.11530574,0.76397705,1.2648315,-4.469284
501,1778325730910,2.6667551333333335,1.1352413888888888,-0.0324991944444444,0.6533016566666667,1.2852545555555557,-4.637307
502,1778325730920,2.5812680777777777,0.9316296822222222,-0.1819976444444444,0.4355773955555555,1.3485785222222222,-4.876156111111111
503,1778325730930,2.4501944,0.76467997,-0.2628618,0.22761536,1.3713531,-5.0642395
504,1778325730940,2.07771523,0.4470400329999999,-0.3257805649999999,-0.153483583,1.39229127,-5.31441965
505,1778325730950,1.7674452,0.22372869,-0.34254658,-0.40089417,1.4107819,-5.41098
506,1778325730960,1.441140811111111,0.044346062,-0.2956876366666667,-0.6890513233333333,1.475224833333333,-5.367126333333334
507,1778325730970,1.1702371,-0.09623147,-0.24492455,-0.954834,1.5391388,-5.279953
508,1778325730980,0.8103341166666667,-0.2679669,-0.1119805684444444,-1.1222687,1.6435343,-4.9422709000000005
509,1778325730990,0.7216598,-0.31881225,-0.074693404,-1.1290131,1.6797485,-4.7633057
510,1778325731000,0.62000924,-0.40130302,-0.031740148,-1.0634918,1.6946564,-4.418686
511,1778325731010,0.5482431533333334,-0.4374505733333333,-0.0124999707777777,-0.9741872,1.7436676333333334,-4.048680733333334
512,1778325731020,0.4953783155555555,-0.4491653911111111,-0.0022228852555555,-0.8743455444444445,1.8275926555555555,-3.615593844444444
513,1778325731030,0.4960293466666667,-0.4333153733333333,-0.0160396148666666,-0.8067677666666666,1.9023997,-3.2387339666666666
514,1778325731040,0.4869176266666666,-0.4294644755555555,-0.0402010037777777,-0.7531483777777779,1.9253591222222224,-2.838672233333333
515,1778325731050,0.4618606599999999,-0.43278652,-0.04931186,-0.73698425,1.9162445,-2.5619354
516,1778325731060,0.4596643888888889,-0.4278786177777778,-0.045054816,-0.7249162388888889,1.8635711444444445,-2.2914717111111114
517,1778325731070,0.46125093,-0.4214381,-0.037597902,-0.71302795,1.8166351,-2.0681763
518,1778325731080,0.4920996779999999,-0.391846158,0.0013914892,-0.637709045,1.71693576,-1.84000549
519,1778325731090,0.5079886,-0.37433493,0.03940376,-0.5452423,1.6445923,-1.7102509
520,1778325731100,0.5092624333333334,-0.3921785211111111,0.063537842,-0.38397726,1.5794406333333333,-1.6039022111111112
521,1778325731110,0.5047603155555556,-0.4188612622222222,0.0773948391111111,-0.26560974,1.5396729,-1.5286255
522,1778325731120,0.4965172399999999,-0.45096952,0.0962688,-0.036575317,1.5210266,-1.3933411
523,1778325731130,0.4978186222222222,-0.4668062377777777,0.106627632,0.0869988354444444,1.5375976333333332,-1.3340386333333332
524,1778325731140,0.501154,-0.4975842499999999,0.1175020039999999,0.41244507,1.5822754,-1.2085114
525,1778325731150,0.4757721379999999,-0.523795785,0.0975747421,0.659893821,1.5770035,-1.15849914
526,1778325731160,0.3804674933333333,-0.5904881333333334,0.0230515026666666,1.1711324444444444,1.5226796444444446,-1.0718671777777775
527,1778325731170,0.295291,-0.6210762,-0.043088578,1.4963379,1.4352722,-1.0428619
528,1778325731180,0.1307425377777777,-0.6513807,-0.1371317284444444,1.6853637444444445,1.266489677777778,-0.963916322222222
529,1778325731190,-0.18647763,-0.69246435,-0.28690255,1.9698486,0.92074585,-0.7653656
530,1778325731200,-0.3781989822222222,-0.6873525222222222,-0.3818677222222222,1.976064088888889,0.745697,-0.5700022615555556
531,1778325731210,-0.88614148,-0.626641268,-0.678077534,1.68777464,0.1879577599999999,0.2465454107999999
532,1778325731220,-1.057274533333333,-0.57448882,-0.7825558322222222,1.0933837622222222,-0.2120463066666666,1.20082601
533,1778325731230,-0.9972086111111113,-0.5329453000000001,-0.7353706,0.2478485066666667,-0.4239807133333333,2.4705657999999997
534,1778325731240,-0.8601975,-0.5161328,-0.6327311,-0.30397034,-0.4609069800000001,3.3231354
535,1778325731250,-0.6259027500000001,-0.4412475633333333,-0.4549763166666667,-0.7254588,-0.3884684233333333,4.215464266666667
536,1778325731260,-0.2855654033333333,-0.3047791333333333,-0.23581283,-1.1829834,-0.3138987199999999,5.4817097666666665
537,1778325731270,-0.09935011,-0.2337581,-0.17561139,-1.304779,-0.3415985,5.9830933
538,1778325731280,0.580582583,0.115647464,0.044845280123,-1.28139344,-0.379463195,6.82838291
539,1778325731290,1.365333666666667,0.4872693344444445,0.2767765088888889,-1.097347722222222,-0.3994768033333333,7.387698744444445
540,1778325731300,1.7455472666666667,0.6500831288888889,0.3780052555555555,-0.7492370455555556,-0.395326401111111,7.197733544444445
541,1778325731310,2.4940302666666665,0.8650286666666667,0.5115725888888889,0.0998297794444444,-0.3225928488888889,6.327350166666666
542,1778325731320,2.5655124,0.7657796,0.4259893,0.7096405,-0.20576477,5.457382
543,1778325731330,2.503209911111111,0.7457397666666667,0.3987770144444444,0.8402540333333334,-0.1682451035555555,5.212668377777778
544,1778325731340,1.9628935888888883,0.5909124611111111,0.1742586788888888,1.4792938,0.017410278,4.00383
545,1778325731350,1.5015719222222224,0.6763872166666667,0.1169050611111111,1.7797038,0.1113332099999999,3.8438618666666664
546,1778325731360,1.045103777777778,0.8298445999999999,0.1084440333333333,1.9766032,0.1340535461111111,4.064727666666666
547,1778325731370,0.9255692,0.8942754,0.11896566,2.05188,0.117004395,4.274933
548,1778325731380,1.1219538666666666,0.8953600844444445,0.1132167866666666,2.483605277777778,0.0731540256666666,5.032399555555555
549,1778325731390,1.3674347,0.89671594,0.106030695,2.91687,0.044036865,5.7311554
550,1778325731400,1.859629442857143,1.065411377142857,0.0316625978571428,3.4117715714285715,0.2080056285714285,5.656664142857143
551,1778325731410,2.429471083333333,1.3164542,-0.2015832166666666,3.982854283333334,0.5442683,4.9143651
552,1778325731420,2.5235345,1.3638417,-0.527909,4.2473907,0.8216858,3.9649506
553,1778325731430,2.3816422666666663,1.3742141777777777,-0.7314524777777778,4.1116858,0.8789096333333334,3.5032162
554,1778325731440,1.7978306,1.454021,-1.4040745,3.5294037,1.0091705,2.5513458
555,1778325731450,1.5458412622222222,1.5229534555555555,-1.5539122222222224,2.939424303333334,1.0758666666666667,2.441211255555556
556,1778325731460,0.8812725533333333,1.6706892111111111,-1.7749055888888892,0.8382466599999999,1.3025953333333335,2.3168690555555553
557,1778325731470,0.7577115999999999,1.6103532111111112,-1.5019681777777776,-0.3433193555555555,1.4153950777777775,2.4093644888888885
558,1778325731480,0.7454548,1.5684837,-1.1624568,-1.084259,1.5034485,2.475174
559,1778325731490,0.75139344,1.5701926333333334,-1.1134016,-1.1609598666666667,1.5112609666666668,2.4765981333333333
560,1778325731500,0.8807846500000001,1.5866662,-0.5757841333333333,-1.4469859,1.4256846,2.1341146
561,1778325731510,0.9849294611111112,1.5862594888888888,-0.0966177293333333,-1.414438888888889,1.3339555111111112,1.5677490444444444
562,1778325731520,0.930111732222222,1.5574743222222225,0.1120374228888888,-1.040534106666667,1.3092159555555556,1.0690324711111112
563,1778325731530,0.8123275,1.5155227,0.29920134,-0.53512573,1.2893372,0.52841187
564,1778325731540,0.7121825666666667,1.4750089666666666,0.3511050866666667,-0.1757710766666666,1.2595113333333334,0.2542826366666667
565,1778325731550,0.4107035266666667,1.3432184,0.3912117144444444,0.7018296944444445,1.1361711,-0.2419603166666667
566,1778325731560,0.14031552,1.2111838,0.33959436,1.3450775,1.0070343,-0.46069336
567,1778325731570,0.0754505511111111,1.173435888888889,0.31074076,1.6603851,0.9298096,-0.49531555
568,1778325731580,-0.0345789843333333,1.0572375222222223,0.1631950633333333,2.179707855555556,0.8367140022222223,-0.4214053722222222
569,1778325731590,0.041349605,1.0313137,0.10895957,2.3501587,0.8291321,-0.40104675
570,1778325731600,0.1064644979999999,1.0119359840000002,0.0883493168,2.35063783,0.8468155100000001,-0.426559445
571,1778325731610,0.2422087599999999,0.96078104,0.060881168,2.35495,1.0059662,-0.6561737
572,1778325731620,0.2895696111111111,0.93473412,0.0925535688888889,2.3238220666666667,1.0930803111111114,-0.7950083488888889
573,1778325731630,0.3715182255555555,0.9077527333333334,0.1884813855555555,2.3234625666666666,1.2543487333333334,-1.0738746
574,1778325731640,0.40829003,0.9120914,0.25356343,2.3996887,1.3324738,-1.2708282
575,1778325731650,0.4661042266666667,0.9188030555555556,0.3038254844444444,2.4422980222222224,1.339575911111111,-1.3101246777777775
576,1778325731660,0.54508406,0.928932,0.36204702,2.7831726,1.3963928,-1.6244965
577,1778325731670,0.63030097,0.968645,0.35804732,3.0513899222222225,1.1345757222222224,-1.6846245666666666
578,1778325731680,0.7956900766666667,1.0542952666666665,0.3567590733333333,3.1503990777777777,0.9621836444444444,-1.6384616777777778
579,1778325731690,0.9654727333333332,1.1931637,0.38925982,3.197152011111111,0.7552812288888888,-1.455949588888889
580,1778325731700,1.1801893888888888,1.4036768999999998,0.4507619444444445,3.2088792111111113,0.5698649044444445,-1.1564297477777776
581,1778325731710,1.4243014,1.6285218,0.5182435,3.2396545,0.4387207,-0.79519653
582,1778325731720,1.89118261,1.87199288,0.568739362,3.2857788,0.298962402,-0.583105486
583,1778325731730,2.7388474333333335,2.217838222222222,0.6230806533333334,3.3299035333333333,0.085583157,-0.4341312044444444
584,1778325731740,3.1985967,2.3123705,0.6269713,3.280655,0.051498413,-0.73713684
585,1778325731750,3.7073203888888897,2.097707877777778,0.5133487355555555,2.9186503333333333,0.3650411,-1.9572143333333336
586,1778325731760,3.8004415,1.8927135,0.41012543,2.5727844,0.64697266,-2.781372
587,1778325731770,3.2690208999999997,1.5656226999999998,0.3519591877777778,1.9327392444444444,1.0670437433333335,-3.4488796444444443
588,1778325731780,2.5858912666666667,1.2104517333333331,0.3190118566666666,1.1388837911111112,1.5749376333333334,-4.167341433333333
589,1778325731790,2.1831692666666664,1.0448452977777776,0.3512003188888888,0.6731363933333333,1.8405999222222225,-4.208533222222222
590,1778325731800,1.6190179555555555,0.7643548533333333,0.4266945788888889,0.0353376622222222,2.2485996000000004,-3.9835848222222223
591,1778325731810,1.3579171,0.5795633,0.4829771999999999,-0.30769348,2.528244,-3.6761932
592,1778325731820,1.2786393111111112,0.5057902000000001,0.5146096666666666,-0.5339982711111112,2.838233088888889,-3.3278537555555556
593,1778325731830,1.1653696333333334,0.3864595422222222,0.5643573944444444,-0.8602600022222222,3.3854268222222226,-2.736809666666667
594,1778325731840,1.1284218666666666,0.32326286,0.5773053333333333,-0.8802642666666666,3.6132100666666664,-2.5358378
595,1778325731850,1.0555837555555554,0.2282166288888889,0.5995684155555555,-0.8420969555555556,3.8768090222222225,-2.3116573555555555
596,1778325731860,1.0327104,0.15722308,0.63136387,-0.7071686,3.991378800000001,-2.222641
597,1778325731870,0.964252464,0.0214043025999999,0.622480494,-0.393339546,4.05374606,-2.20761876
598,1778325731880,0.8705349,-0.121735886,0.6041516,0.15304565,4.029724,-2.202942
599,1778325731890,0.7969109022222223,-0.1837666944444444,0.5718,0.4443986777777777,3.9702538888888887,-2.174058688888889
600,1778325731900,0.66821206,-0.2620685,0.49786425,1.1219025,3.788437,-2.0878906
601,1778325731910,0.6410670244444445,-0.2723189888888889,0.4671140511111111,1.2685496333333337,3.724523,-2.0672912666666665
602,1778325731920,0.5984514666666666,-0.2819189466666666,0.40675067,1.6051738000000002,3.5072123666666664,-2.0204162666666665
603,1778325731930,0.4950536,-0.3031926,0.17082843,2.5195245111111113,2.6663716777777777,-1.8899875555555556
604,1778325731940,0.5060629422222223,-0.3093479644444444,0.1146137386666666,2.687603411111111,2.3806406555555557,-1.8760749333333335
605,1778325731950,0.5408539644444444,-0.3323845933333333,0.0104412701111111,2.890302888888889,1.8233879666666668,-1.9048360333333332
606,1778325731960,0.5525283,-0.34785527,-0.021734051,2.8886414,1.6978607,-1.9334259
607,1778325731970,0.5447179888888889,-0.3829451188888889,-0.0599700283333333,2.7705180222222223,1.6990474999999998,-1.9765099444444445
608,1778325731980,0.5349551,-0.42680743,-0.107765,2.6228638,1.700531,-2.030365
609,1778325731990,0.4790803311111111,-0.49026251,-0.1482506488888889,2.3912862444444443,1.8262854555555552,-2.012371511111111
610,1778325732000,0.411413485,-0.554229863,-0.189632363,2.14413002,1.95975034,-1.97822114
611,1778325732010,0.38791075,-0.572021,-0.19940639,2.1067352,1.9774933,-1.9691162
612,1778325732020,0.31835442,-0.6296186666666667,-0.2238126733333333,1.9578365555555557,2.0670335555555557,-1.8682115444444445
613,1778325732030,0.17924176,-0.744814,-0.27262524,1.6135254,2.277893,-1.614914
614,1778325732040,0.0370652527777777,-0.8118344355555556,-0.3075792511111111,1.5187123666666666,2.2619222,-1.3338623333333333
615,1778325732050,-0.1330836311111111,-0.8806313577777778,-0.35252692,1.4446699,2.104446433333333,-0.8834923800000001
616,1778325732060,-0.3417393166666667,-0.9209412333333334,-0.4357771066666667,1.5122663666666665,1.3933224555555557,-0.0824025488888889
617,1778325732070,-0.3994994188888888,-0.9248191,-0.4550845044444444,1.568071111111111,0.9190368888888888,0.3706868488888888
618,1778325732080,-0.43566096,-0.9295651,-0.4645764499999999,1.6140594,0.523407,0.76756287
619,1778325732090,-0.2505977222222222,-0.7972584977777778,-0.3971883888888889,1.6041157666666668,-0.5699157766666666,2.596613566666667
620,1778325732100,-0.0009945399999999,-0.632766889,-0.351601532,1.4052078,-0.709054571,3.74417731
621,1778325732110,0.3829085,-0.4136282866666667,-0.3037017399999999,1.0349019333333334,-0.4843394099999999,4.889251833333333
622,1778325732120,0.9426125666666666,-0.1776650873333333,-0.2619674266666666,0.6276143466666667,-0.00727336,5.5621389
623,1778325732130,1.5070363,0.027262058,-0.221128,0.26968384,0.47601318,5.9591217
624,1778325732140,2.1738554,0.2973249853333333,-0.1187734849999999,-0.0551639116666666,1.0682847811111111,5.776609633333333
625,1778325732150,2.6465263555555554,0.5384933288888889,0.0011259599999999,-0.20861816,1.4565735,5.4461975
626,1778325732160,2.844862911111111,0.7225942666666667,0.1196028733333333,-0.0254533577777777,1.5182495444444444,4.822606411111112
627,1778325732170,2.954999888888889,0.9378795777777778,0.2683013011111111,0.4973076755555555,1.407933522222222,4.018093511111111
628,1778325732180,2.881567,1.089521,0.33154035,1.274231,1.1806793,3.267212
629,1778325732190,2.881567,1.089521,0.33154035,1.274231,1.1806793,3.267212
630,1778325732200,2.7090849444444443,1.2458677,0.2687634427777777,2.485558433333333,0.9007551666666668,2.449913933333333
631,1778325732210,2.36925294,1.31481119,-0.0401226915,2.74797211,0.818383794,2.28471686
632,1778325732220,1.6005363666666668,1.471051,-0.7641288222222222,2.602618777777778,0.6832021077777778,2.3432651222222223
633,1778325732230,1.3606018,1.5186958,-1.0544616,1.9165802,0.57507324,2.7073975
634,1778325732240,1.3917055555555555,1.5245262666666666,-1.0296223844444443,1.4052005355555557,0.5727674666666667,2.9099189222222224
635,1778325732250,1.5210694,1.5317537,-0.88203573,0.29100037,0.5654907,3.2581482
636,1778325732260,1.7993761666666666,1.6343375333333334,-0.38293858,0.0173950193333333,0.40960185,2.9552612666666667
637,1778325732270,1.9193706666666663,1.705968688888889,-0.06867475,0.1148766411111111,0.2786899177777778,2.5265503222222225
638,1778325732280,1.9154648,1.6978334,0.08492037,0.44013977,0.2427062999999999,1.9574585
639,1778325732290,1.62522116,1.51930593,0.1111435569999999,0.9434723,0.382470704,1.162451208
640,1778325732300,1.419786,1.3937386,0.07210672,1.2758331,0.52819824,0.62854004
641,1778325732310,1.0536998,1.2547341333333335,-0.0180319494444444,1.5037367,0.5476158977777777,0.2190619588888888
642,1778325732320,0.54239935,1.0842745,-0.13033898,1.7088623,0.5090332,-0.1421814
643,1778325732330,0.3815791107777777,1.0187853733333334,-0.1633682322222222,1.738516888888889,0.4741143122222222,-0.1499989797777777
644,1778325732340,0.055993997,0.86730736,-0.2430937999999999,1.7184448,0.3998413,0.003753662
645,1778325732350,-0.018850627,0.8371527288888889,-0.2865906,1.6398586666666666,0.37001546,0.1723192068888889
646,1778325732360,-0.0296709033333333,0.8325699,-0.2998375233333333,1.5754682777777775,0.3565809422222222,0.2398461266666667
647,1778325732370,0.04098408,0.8368007,-0.35291976,1.3147125,0.3140869,0.3952484
648,1778325732380,0.0637898244444444,0.8285296,-0.3436455822222222,1.218721157777778,0.3113640555555556,0.3462473444444444
649,1778325732390,0.1402337784444444,0.79876726,-0.2978170222222222,0.8665957933333334,0.2911224311111111,0.1488800027777778
650,1778325732400,0.113224566,0.79225934,-0.19086552,0.73735046,0.20542908,-0.058029175
651,1778325732410,0.0554646306666666,0.7719005250000001,-0.042051107,0.7934493966666666,0.047584535,-0.2526168791666667
652,1778325732420,0.009500579,0.75003713,0.079672344,0.9024658,-0.10191345,-0.4100952
653,1778325732430,-0.0116113005,0.7392984,0.12640996,0.97376250625,-0.16576003875,-0.4501762374999999
654,1778325732440,-0.030404029,0.7375902055555555,0.2658335255555555,1.2685530111111112,-0.2374369311111111,-0.5785217222222223
655,1778325732450,-0.03577338,0.73710215,0.30566883,1.3498688,-0.25531006,-0.6135559
656,1778325732460,0.0495860839999999,0.759690295,0.344950651,1.56723483,0.311630258,-0.9137497
657,1778325732470,0.08747594,0.7700509,0.34740418,1.6779633,0.7226105,-1.1099701
658,1778325732480,0.027112736,0.82012175,0.2343642066666666,1.5512627555555556,1.0182749666666666,-1.2102915666666667
659,1778325732490,-0.018159669,0.9179076333333334,0.1461784633333333,1.2300313333333333,1.1529744666666666,-1.2386932333333334
660,1778325732500,-0.012709435,0.9864068,0.15008363,0.986084,1.1061096,-1.1978607
661,1778325732510,0.1603411911111111,1.1453012222222223,0.3721621755555555,0.7444457999999999,0.94845072,-1.1192067666666667
662,1778325732520,0.3279277622222222,1.280712277777778,0.57237065,0.5220981,0.7092386866666667,-1.0361142
663,1778325732530,0.5652874044444444,1.4555660555555556,0.82369495,0.5389658588888889,0.5283203277777777,-1.040488388888889
664,1778325732540,0.92300737,1.6924641,1.1718298,0.71177673,0.38012695,-1.1323395
665,1778325732550,0.9880894411111112,1.7285846333333332,1.2183628666666666,0.7538452,0.39291382,-1.155777
666,1778325732560,1.6763846555555555,1.956927788888889,1.4052158555555556,0.87505594,1.3377464933333334,-1.5451354888888889
667,1778325732570,1.9063537555555552,2.005549055555556,1.3998192333333332,0.8393707244444444,1.988208311111111,-1.8067186
668,1778325732580,2.1607833333333333,2.0236912,1.3723629,0.47919208,3.0145314,-2.1995595666666663
669,1778325732590,2.3559482222222226,2.004600155555556,1.4265707222222224,0.1552276644444444,3.933147844444445,-2.4953528555555557
670,1778325732600,2.505420333333334,1.9301631333333331,1.5477048111111111,0.1993866,4.419260733333334,-2.6405792
671,1778325732610,2.7103742444444445,1.8147234555555551,1.7003900888888888,0.5116221222222221,4.57597188888889,-2.714323266666667
672,1778325732620,2.8244576,1.7621428,1.7740402,0.892334,4.444641,-2.7126617
673,1778325732630,2.9614589,1.66643535,1.79463849,1.67924808,4.08852842,-2.7525054399999997
674,1778325732640,3.0836456,1.5417583,1.708877,2.835907,3.498169,-2.924652
675,1778325732650,3.0579656666666666,1.3921787555555556,1.4561146,3.199106755555556,3.137625711111111,-3.1221974222222224
676,1778325732660,2.8725232000000003,1.0699283144444445,0.9527467111111112,3.6758728,2.3796234,-3.61174
677,1778325732670,2.6342144,0.87609243,0.6956732,3.6199493,1.7820282,-3.8375854
678,1778325732680,2.351460611111111,0.735516128888889,0.4940278533333334,3.2195909333333335,1.3677571777777775,-3.9299062222222223
679,1778325732690,2.0663746555555553,0.6019485888888889,0.3052763566666666,2.726372644444444,1.0497131555555557,-3.964703044444444
680,1778325732700,1.85319395,0.5021486740000001,0.201786191,2.30914614,0.97348634,-3.87731936
681,1778325732710,1.5881169777777775,0.3763319555555556,0.1183960351111111,1.7104610777777778,1.1737535666666667,-3.691701244444445
682,1778325732720,1.4917822,0.29499236,0.035253868,1.3152466,1.5093079,-3.6042938
683,1778325732730,1.3534829999999998,0.1423484764444444,-0.0581667637777777,0.5581936322222223,2.1784159444444446,-3.452431577777778
684,1778325732740,1.1769488,-0.003855916,-0.11911343,-0.015808105,2.6315613,-3.320404
685,1778325732750,1.0975082,-0.038391173,-0.1187463499999999,-0.16867065,2.7167816,-3.2676697
686,1778325732760,0.8150528222222222,-0.1377494192222222,-0.0953167055555555,-0.4456482055555555,2.6997460444444443,-3.003482411111111
687,1778325732770,0.74839806,-0.1601481555555555,-0.0885920533333333,-0.4885508311111111,2.664474511111111,-2.929267
688,1778325732780,0.586696226,-0.207607095,-0.078026384,-0.514083865,2.35832673,-2.6099699999999997
689,1778325732790,0.37534288,-0.26231274,-0.07201028,-0.5468445,1.8890686,-2.1363525
690,1778325732800,0.3209858688888889,-0.3022023111111111,-0.0336382914444444,-0.5841267922222222,1.6257798888888888,-1.7529805444444444
691,1778325732810,0.2769197822222222,-0.3518682855555555,0.0220207693333333,-0.5969628266666667,1.4862908444444445,-1.4096171444444443
692,1778325732820,0.2476059422222222,-0.3843688655555556,0.0480813426666666,-0.5688052755555556,1.5215589444444444,-1.0441012888888888
693,1778325732830,0.1637588228888888,-0.4349155566666667,0.0213700815555555,-0.5451236355555555,1.5855950555555556,-0.6841667888888888
694,1778325732840,0.047207363,-0.4641487000000001,-0.021245647,-0.54844666,1.6307526,-0.29930115
695,1778325732850,-0.0031910548888888,-0.4738158777777778,-0.0476174782222222,-0.6145477300000001,1.6360202555555556,0.0347781644444444
696,1778325732860,-0.02765822582,-0.50090371,-0.083736375,-0.7552551239999999,1.6209427,0.5768234
697,1778325732870,0.0563595245333333,-0.5404162333333333,-0.0788842566666666,-0.8848876933333334,1.6612904666666666,0.8712463333333332
698,1778325732880,0.20008145,-0.598637411111111,-0.063969394,-1.0394694000000002,1.7581125555555557,1.198761
699,1778325732890,0.2879696,-0.6196126,-0.0618813079999999,-1.0858612,1.8011931999999995,1.2874146
700,1778325732900,0.3697559333333333,-0.6268799066666667,-0.0319976565111111,-1.0425432222222222,1.8208397777777776,1.2877638444444444
701,1778325732910,0.4694122822222222,-0.6542680888888889,0.0067799554333333,-0.8194342777777778,1.7977582888888888,1.1962059777777778
702,1778325732920,0.4797982533333333,-0.7048424666666667,0.0127462470555555,-0.4440460288888889,1.6901634666666667,1.0810529444444446
703,1778325732930,0.4630405455555555,-0.72979126,0.0159193288888888,-0.0018361433333333,1.6132320444444443,1.025124411111111
704,1778325732940,0.4701589,-0.72077477,0.009749448,0.42362976,1.5556488,1.0019226
705,1778325732950,0.438468207,-0.7110488150000001,-0.048189465,0.79146271,1.4157226699999998,0.989244076
706,1778325732960,0.36728883,-0.7001513,-0.15254745,1.6747742,1.0230103,0.96409607
707,1778325732970,0.3103418711111111,-0.7155136044444445,-0.2224568555555555,2.0301005333333335,0.6988152622222221,1.0690867055555555
708,1778325732980,0.0501218971111111,-0.7969746755555556,-0.6213557,2.880598333333334,-0.2039388011111111,1.4695095333333337
709,1778325732990,0.0146257269999999,-0.8074139,-0.8100379,3.071869,-0.75598145,2.0357666
710,1778325733000,0.031357336,-0.8174207111111111,-0.9573269555555556,2.886572966666667,-0.932344222222222,2.6632639444444446
711,1778325733010,0.1254277866666666,-0.7999025622222222,-1.1312865333333333,2.4656117333333336,-1.0127665444444445,3.5359480222222226
712,1778325733020,0.3444825577777778,-0.6997577588888889,-1.2012623111111111,1.827039911111111,-0.9819963333333332,4.435085888888889
713,1778325733030,0.7634172400000001,-0.4878709039999999,-1.2267907,1.067471337,-1.04173282,5.32289257
714,1778325733040,1.3961122,-0.17225632,-1.2312815,0.25637817,-1.3748932,6.1162567
715,1778325733050,1.6590839333333334,-0.0218351566666666,-1.1910119,0.1088358533333333,-1.5304260333333335,6.1989898
716,1778325733060,3.4228858,1.096327907777778,-0.7644547444444444,-0.6283417,-2.5568085,5.81691
717,1778325733070,4.162677544444445,1.589513588888889,-0.4059745111111111,-0.8051672888888889,-2.552552988888889,4.853135788888888
718,1778325733080,4.252896144444445,1.6562490666666667,-0.15399987,-1.075158022222222,-1.8952874,2.857309955555555
719,1778325733090,3.7840893,1.5910592,-0.07969723,-1.1897278,-1.4095154,2.0751648
720,1778325733100,3.2556240333333335,1.7770306333333332,0.0308879431111111,-1.1812066,-1.297071688888889,1.9162089111111111
721,1778325733110,2.1766062,2.2701485,0.310794,-1.1071777,-1.2460022,1.8008728
722,1778325733120,1.9790836888888887,2.3641649888888887,0.4963332,-0.7622612777777777,-1.5060492666666667,2.3395385555555555
723,1778325733130,2.111185711111111,2.2355322111111113,0.6017119888888889,-0.2897016744444444,-1.6419863777777777,2.833290933333333
724,1778325733140,2.314133,2.1968083,0.6309983,0.08433533,-1.5203094,2.745224
725,1778325733150,2.295693155555556,2.197215122222222,0.6237309888888889,0.1606801366666666,-1.4539065555555557,2.633251622222222
726,1778325733160,1.9442518333333336,2.0887590888888887,0.5000211066666667,0.683548,-0.91363525,1.598465
727,1778325733170,1.4961343333333332,1.9023130666666663,0.3884458266666667,0.7750345911111112,-0.7600606055555557,1.2819078
728,1778325733180,1.1148901333333334,1.7420754333333337,0.2898867233333333,0.8475952133333333,-0.6569688333333333,1.020272133333333
729,1778325733190,0.7701292399999999,1.57846518,0.179248922,0.900860588,-0.72305906,0.8387237439999999
730,1778325733200,0.6140035477777778,1.4905074444444444,0.1177864703333333,0.8970692966666667,-0.7926093022222223,0.7504594577777778
731,1778325733210,0.46149513,1.3860502,0.059537273,0.85025024,-0.87049866,0.6663513
732,1778325733220,0.3563603844444444,1.292332677777778,0.0293152271111111,0.7108222133333333,-0.86801656,0.6192491266666666
733,1778325733230,0.2559169711111111,1.1923917888888889,-0.0157133206666666,0.5035112133333334,-0.7711910622222222,0.5813785133333333
734,1778325733240,0.1702264808888889,1.1121781666666668,-0.0674262517777777,0.2386254195555555,-0.6393415688888889,0.5340288111111112
735,1778325733250,0.0584479531111111,1.0314763622222225,-0.0935543966666666,-0.0830908884444444,-0.5338813155555555,0.4752027666666667
736,1778325733260,-0.02051926,0.97823143,-0.085676305,-0.37001038,-0.4656982399999999,0.4288025
737,1778325733270,-0.1046919822222222,0.9185999766666668,-0.0391153134444444,-0.6354963488888888,-0.3650885688888888,0.4050123466666667
738,1778325733280,-0.20112203,0.8558360300000001,0.026957193,-0.9468384,-0.2228241,0.38671875
739,1778325733290,-0.23154784,0.8487992666666666,0.1120916966666666,-1.1169365444444446,-0.0643225811111111,0.3442365877777777
740,1778325733300,-0.2236839155555555,0.8509685555555556,0.2006576544444444,-1.2574886666666667,0.1780276788888889,0.2151082377777777
741,1778325733310,-0.20014521,0.8488817,0.24014005,-1.257904,0.2592163,0.1140289299999999
742,1778325733320,-0.1783021077777777,0.8440546755555556,0.2532920911111111,-1.1968298777777775,0.3090498111111111,-0.0433976922222222
743,1778325733330,-0.0604631003333333,0.8132621155555556,0.3208147822222222,-1.0085178222222222,0.4357062444444444,-0.5008171955555556
744,1778325733340,-0.0213318855777777,0.7879348444444445,0.3474987422222222,-0.8639967022222222,0.4491984111111111,-0.7906901111111111
745,1778325733350,-0.00631474288,0.72995118,0.391822356,-0.6220459,0.4823974599999999,-1.22342222
746,1778325733360,-0.020275056,0.6764543,0.42940658,-0.41156006,0.5654907,-1.5408783
747,1778325733370,-0.0937094222222222,0.6142466822222221,0.4341793355555555,-0.2624223503333333,0.6554429666666667,-1.6456875111111111
748,1778325733380,-0.1989254133333333,0.5345618911111111,0.4427487288888889,0.0099317758888888,0.8349388999999999,-1.764997666666667
749,1778325733390,-0.2297979762499999,0.55459339125,0.43941344375,0.1684875475,1.036071775,-1.5978661
750,1778325733400,-0.1792168816666666,0.6085249250000001,0.4074412616666666,0.2948150633333333,1.335406,-1.3562241000000002
751,1778325733410,-0.06054519,0.65509975,0.35130832,0.31922913,1.5178375,-1.2505951
752,1778325733420,0.0660174231428571,0.7582308914285714,0.2838443499999999,0.1720668257142857,1.9783324857142857,-1.0230800142857144
753,1778325733430,0.12542848,0.8292334699999999,0.26271558,0.0288848879999999,2.34959101,-0.829754655
754,1778325733440,0.3992327555555555,1.0340659,0.2682750588888888,-0.2789204911111111,2.9815096999999997,-0.4698079433333333
755,1778325733450,0.7916226333333333,1.2647544333333334,0.27544732,-0.5003255200000001,3.368021633333333,-0.2629140199999999
756,1778325733460,1.2394138555555554,1.4766229444444443,0.2702400644444444,-0.6231943777777778,3.4713558888888887,-0.2088860355555555
757,1778325733470,1.8032807333333336,1.7076372333333334,0.28423343,-0.7069803833333334,3.0917611999999997,-0.43299865
758,1778325733480,2.2110186,1.8670877,0.31335735,-0.79504395,2.6507416,-0.68333435
759,1778325733490,2.7239054444444446,2.0472696333333333,0.61150118,-0.94169616,1.8326212333333336,-1.0943502
760,1778325733500,3.032027,2.1478758,0.86382943,-1.0549774,1.1497803,-1.4636536
761,1778325733510,3.177377,2.052665511111111,1.0748838477777778,-1.0382216,1.0126631055555555,-1.6642150555555555
762,1778325733520,3.3415194666666665,1.7475541888888888,1.3930939555555557,-0.7492421644444445,1.1835802,-2.1877916222222225
763,1778325733530,3.285116,1.4746429,1.400144,-0.40249634,1.6280823,-2.4106598
764,1778325733540,3.0833477777777776,1.1932593544444443,1.2230680333333332,0.1321512816666666,2.150365122222222,-2.588031377777778
765,1778325733550,2.904141,0.99922043,1.0407706,0.5338745,2.4589996,-2.7190552
766,1778325733560,2.4365282,0.6807255,0.5871896,1.0111237,2.2821655,-2.7712555
767,1778325733570,2.0890874,0.528920944,0.326585515,1.17389678,1.78473811,-2.69935301
768,1778325733580,1.7011838,0.38724658,0.12384661,1.2433472,1.2136993,-2.5645905
769,1778325733590,1.4552141555555556,0.2983147544444444,0.0233088416666666,1.1455756333333331,0.8612772555555556,-2.3527222
770,1778325733600,1.2934448555555556,0.2339513255555555,-0.0398074784444444,1.0153809,0.6123657,-2.1470032
771,1778325733610,1.2027782666666669,0.1735333319999999,-0.0594403173333333,0.8767157666666666,0.6289808311111111,-2.0442691444444443
772,1778325733620,1.102145,0.101943016,-0.07310842,0.6542511,0.76734924,-1.9382172
773,1778325733630,1.0773731,0.08644625,-0.07286421,0.6254883,0.80410767,-1.9334259
774,1778325733640,0.8820729,0.0014864757777777,-0.0582334755555555,0.4631534166666666,0.9470875911111112,-1.8203294666666667
775,1778325733650,0.7268794811111111,-0.0376440467777777,-0.0172175963333333,0.3872918,0.9498189244444444,-1.644214177777778
776,1778325733660,0.6287687011111112,-0.039813703,0.031810659,0.4675360666666667,0.8806932111111111,-1.4741160444444443
777,1778325733670,0.5005027777777777,-0.0388916766666666,0.0645412688888888,0.6945512444444444,0.74172635,-1.211302
778,1778325733680,0.4072732833333333,-0.0530744526666666,0.0212207596666666,0.907608,0.5313975166666666,-1.0070037566666667
779,1778325733690,0.333510754,-0.072875418,-0.0400377538,1.01409908,0.33208618,-0.841308596
780,1778325733700,0.28089237,-0.07658481,-0.095682405,1.0579834,0.1569519,-0.6828003
781,1778325733710,0.2661676066666666,-0.0632428333333333,-0.1427860749999999,0.9962039555555556,-0.0112999815555555,-0.4860822877777778
782,1778325733720,0.2768250833333334,-0.0265935686666666,-0.2067020622222222,0.8988511833333332,-0.1833377411111111,-0.3055758977777777
783,1778325733730,0.3550854433333333,0.0355597673333333,-0.2232843433333333,0.7419636999999999,-0.3781636566666667,-0.22686768
784,1778325733740,0.428736701111111,0.0841683977777777,-0.2163562811111111,0.6160769855555555,-0.513699,-0.2391187933333333
785,1778325733750,0.50835407,0.13916294,-0.19476965,0.45558167,-0.65478516,-0.3371277
786,1778325733760,0.56534163,0.1699131466666666,-0.1323458433333333,0.2777387833333333,-0.6988728911111112,-0.4961496977777777
787,1778325733770,0.6177595,0.18499082,-0.0593590927777777,0.0716671396666666,-0.6875051111111111,-0.7099728088888889
788,1778325733780,0.6383145766666667,0.148436958,-0.0078632273333333,-0.041020712,-0.4735056466666666,-0.9313710666666668
789,1778325733790,0.6198064666666667,0.089293208,0.0223603726666666,-0.071736655,-0.1958262125333333,-1.1469014666666668
790,1778325733800,0.5737475288888889,0.0318846291111111,0.0171266905888888,-0.0492994522222222,0.0217200388,-1.2965748888888888
791,1778325733810,0.4617522933333333,-0.0292383211111111,-0.0457328137222222,-0.0154520668888888,0.19524977,-1.3694848
792,1778325733820,0.3873552788888889,-0.0505798864444444,-0.1049166577777777,-0.0193600124444444,0.2636023611111111,-1.3836856
793,1778325733830,0.3308150011111111,-0.0526942348888888,-0.1848319888888888,-0.038887872,0.1967213944444444,-1.3750457555555555
794,1778325733840,0.2817463,-0.060476754,-0.20257947,-0.022735596,0.07865906,-1.3613739
795,1778325733850,0.17948753,-0.08988686,-0.22027406,0.06462097,-0.24891663,-1.299057
796,1778325733860,0.0980530571111111,-0.067731286,-0.2013731466666666,0.2312808544444444,-0.67265321,-1.203537
797,1778325733870,0.0038194498888888,-0.0229602516666666,-0.1874487511111111,0.4930979377777778,-1.288669177777778,-1.0520392933333331
798,1778325733880,-0.0392305896666666,-0.0102425196666666,-0.1935906233333333,0.7066243533333334,-1.958663933333333,-0.7481435133333334
799,1778325733890,-0.0178885066666666,-0.0191376905555555,-0.1758555944444444,0.8912217866666666,-2.6653526999999997,-0.3118625233333333
800,1778325733900,0.08320628,-0.052545607,-0.15437819,1.0270996,-3.1970367,0.27807617
801,1778325733910,0.08320628,-0.052545607,-0.15437819,1.0270996,-3.1970367,0.27807617
802,1778325733920,0.1950656933333333,-0.079473249,-0.1647923233333333,1.0646786,-3.3606702555555557,0.5550401311111111
803,1778325733930,0.2509954,-0.09293707,-0.16999939,1.1104244444444444,-3.5591633666666667,0.9178771777777778
804,1778325733940,1.1333297733333334,0.2452316711111111,-0.0729043102222222,1.2402717,-4.116358611111112,2.2986433444444447
805,1778325733950,1.6902009,0.6306935,-0.0077009439999999,1.1176453,-3.8138275,2.5950165
806,1778325733960,1.7357311666666666,0.6516282266666668,-0.0376927831111111,0.9990438111111112,-3.5858578111111106,2.5047048333333333
807,1778325733970,1.8704915666666664,0.7213608177777778,-0.1657953955555555,0.4973568399999999,-2.6763492444444443,2.157308044444444
808,1778325733980,1.5508445333333334,0.7282346333333334,-0.35340764,-0.5996280222222222,-1.4056176,1.9634399555555555
809,1778325733990,1.305079,0.7986055,-0.35853332,-1.1050415,-0.9333496,2.0341644
810,1778325734000,1.26673484,0.8265092666666667,-0.3237415874444445,-1.2997487333333335,-0.7951609222222222,2.159983288888889
811,1778325734010,1.0587711999999998,0.9453373555555556,-0.2052511783333333,-2.241977233333333,-0.1884952155555555,2.875072888888889
812,1778325734020,1.0251448,1.1488266,0.095536195,-2.3849487,-0.19511414,3.1212616
813,1778325734030,1.1959851666666668,1.3487094666666666,0.3003819166666666,-2.408867733333333,-0.3148447666666666,3.3478614555555555
814,1778325734040,1.3617261222222223,1.5398336888888888,0.4314128944444444,-2.3179694555555557,-0.4568752733333334,3.4584707
815,1778325734050,1.54847664,1.79030743,0.47709503,-2.1318466999999997,-0.633947752,3.3291504099999996
816,1778325734060,1.6554076625,1.9931734125,0.4793468225,-2.01091965,-0.8077793074999999,3.086847275
817,1778325734070,1.6851987,2.142018,0.49151963,-1.9577941999999997,-0.97276306,2.745224
818,1778325734080,1.5628435888888887,2.2624192222222224,0.5726824144444445,-1.9343481888888887,-1.0897623466666666,2.3081733
819,1778325734090,1.3286299,2.3232307,0.7073887,-1.8810883000000005,-1.1437378,1.5729065
820,1778325734100,1.133494663,2.29406632,0.8208133200000001,-1.67698368,-0.977227748,1.01726076
821,1778325734110,0.8962827225,2.20760925,0.9262465575,-1.386936175,-0.76116943,0.6220130899999999
822,1778325734120,0.7384989,2.12286,0.94766253,-1.1252899,-0.5642395,0.35157776
823,1778325734130,0.5959696555555555,2.015000211111111,0.8522359133333333,-1.0242614666666667,-0.4415537499999999,0.222676596
824,1778325734140,0.3196973,1.8135171,0.5969515,-0.67626953,0.13938904,-0.4005127
825,1778325734150,0.2727973866666666,1.7889895,0.5543637666666666,-0.6757948055555556,0.2224782311111111,-0.4862060555555555
826,1778325734160,-0.09703096,1.5529853,0.2292800099999999,-0.86642456,0.7055664,-0.9411315999999998
827,1778325734170,-0.159607856,1.4912881800000002,0.183983338,-0.923098758,0.76447294,-0.99631043
828,1778325734180,-0.2312357066666666,1.348249211111111,0.1745569766666666,-1.1348673444444444,0.9483252666666668,-1.223069922222222
829,1778325734190,-0.26738343,1.1684748,0.21927392,-1.2403259,1.0730896,-1.4396667
830,1778325734200,-0.2383544044444444,1.0939149666666668,0.2558552733333333,-1.1795501777777777,1.0853915666666667,-1.504357188888889
831,1778325734210,-0.172079,0.9105048,0.34227905,-0.8686727,1.0972290444444444,-1.6966942555555555
832,1778325734220,-0.0983733,0.7482079,0.42330617,-0.5244751,1.128479,-1.7374115
833,1778325734230,-0.0099837993333333,0.6534318100000001,0.4681715566666666,-0.18062846,1.1938171555555557,-1.6633758333333335
834,1778325734240,0.09260265,0.5657744,0.5083587,0.28300476,1.2893372,-1.5600433
835,1778325734250,0.2059528633333333,0.5384402666666666,0.5081430555555555,0.6125267866666666,1.4166972,-1.5136566333333334
836,1778325734260,0.3759655488888889,0.4670665044444444,0.4530674622222221,1.1110721200000002,1.662534922222222,-1.5617150555555557
837,1778325734270,0.4946872066666666,0.4084920688888889,0.3795242044444444,1.4004669,1.8022614,-1.615448
838,1778325734280,0.5941947488888889,0.3610907888888889,0.2812501033333333,1.6544749,1.8742218444444445,-1.7338087111111111
839,1778325734290,0.6683579249999999,0.281068418,0.1112180576,2.18674011,1.9915009,-2.03515623
840,1778325734300,0.5560669377777778,0.2561874266666666,-0.0749248151111111,2.404717333333333,1.9434000666666664,-2.1768341222222225
841,1778325734310,0.4176191522222222,0.2835225911111111,-0.2303897288888888,2.558893811111111,1.8005337444444445,-2.214894588888889
842,1778325734320,0.31457213,0.35478628,-0.3298558,2.5666368222222222,1.6157786444444444,-2.1210377666666664
843,1778325734330,0.2316057422222222,0.4795670044444444,-0.4179753466666666,2.483074655555556,1.3827785888888888,-1.9884084222222225
844,1778325734340,0.17021248,0.56601864,-0.47860956,2.3789215,1.1929321,-1.8743134
845,1778325734350,0.1554196377777777,0.6383543155555556,-0.5233254633333333,2.128051766666667,0.9117024666666668,-1.6411947
846,1778325734360,0.1692633288888889,0.7876355122222223,-0.6076615088888889,1.797287,0.5990448,-1.3587189
847,1778325734370,0.22061004,0.9162412,-0.67751664,1.1261597,0.29223633,-1.1366119
848,1778325734380,0.2924702175,1.0580993374999998,-0.6424321,0.40843773125,0.065677643,-1.04992102125
849,1778325734390,0.3454459,1.145655,-0.55060583,-0.34284973,-0.110961914,-0.97042847
850,1778325734400,0.3648278916666667,1.1788054499999998,-0.3893658583333333,-0.9599889216666666,-0.0987091066666666,-0.835756945
851,1778325734410,0.4215391899999999,1.2250767285714286,-0.0853274485714285,-1.771746,-0.0311410092857142,-0.51130241
852,1778325734420,0.5273090933333333,1.3157618,0.22513116,-2.2446950333333335,-0.1404418933333333,-0.12798055
853,1778325734430,0.6103702,1.3867828,0.46723622,-2.3806915,-0.20471191,0.04425049
854,1778325734440,0.7536317,1.3609128,0.8820109,-2.1830902,-0.23347473,0.4106903
855,1778325734450,0.8361467749999999,1.24987926,1.066225,-1.74729158,-0.082357787,0.60681001
856,1778325734460,0.9256376055555556,1.1111743777777778,1.1752321888888888,-1.1311458888888888,0.1564263266666666,0.83697172
857,1778325734470,0.9913831,1.0047516,1.082910933333333,-0.6551462699999999,0.3856353733333333,0.9383544933333334
858,1778325734480,1.051448,0.898166938888889,0.9022127611111112,-0.0266401477777777,0.6940867111111112,0.9943440822222224
859,1778325734490,1.0646824,0.82191205,0.70751005,0.22442627,0.79559326,0.88952637
860,1778325734500,0.9845501433333336,0.7366552133333334,0.53972092,0.3727281411111111,0.839379208888889,0.6664191233333333
861,1778325734510,0.86589813,0.63276845,0.35338327,0.54345703,0.90104675,0.3084259
862,1778325734520,0.678644037,0.534705733,0.1966498508999999,0.552731338,0.982537841,0.095909119
863,1778325734530,0.41524592,0.4182012466666667,0.012069632,0.47989909,1.127059933333333,-0.0759582533333333
864,1778325734540,0.2822347,0.37174982,-0.07042219,0.39752197,1.2126312,-0.0798645
865,1778325734550,0.1058353994444444,0.3253511066666667,-0.1665409733333333,0.2625308555555555,1.187893322222222,0.0814666777777777
866,1778325734560,-0.06774373,0.28120345,-0.25859213,0.09126282,1.1135559,0.3153534
867,1778325734570,-0.1553468777777777,0.2646208222222222,-0.2954171677777777,-0.0280541299444444,0.9134707888888888,0.584862588888889
868,1778325734580,-0.2510171811111111,0.2441741466666666,-0.3513603588888889,-0.20861816,0.5766754,1.0035095
869,1778325734590,-0.1562028651999999,0.266755044,-0.348490509,-0.43040466,-0.125775152,1.64022828
870,1778325734600,0.0324003424444444,0.3337442288888889,-0.26503248,-0.526068771111111,-0.6176147666666666,1.9795956
871,1778325734610,0.20608853,0.38822183,-0.173538,-0.55163574,-1.0617065,2.1481476
872,1778325734620,0.3668680055555555,0.4221738144444444,-0.0754801059999999,-0.5213351933333333,-1.3371412555555555,2.1379615333333337
873,1778325734630,0.5786416466666666,0.4533317177777778,0.0622088148888888,-0.4632178377777777,-1.5475955666666663,2.0123190222222225
874,1778325734640,0.6949761799999999,0.4506062533333332,0.13662034,-0.4526774111111111,-1.4661644555555555,1.872646788888889
875,1778325734650,0.7779424155555555,0.4388779311111111,0.1818250011111111,-0.4578857399999999,-1.1991425,1.6203003
876,1778325734660,0.80646974,0.4292245799999999,0.21024309,-0.48078918,-0.8449249,1.3193665
877,1778325734670,0.80991276,0.4225401977777778,0.23585552,-0.4751196933333333,-0.578971011111111,1.0300937555555558
878,1778325734680,0.7776709,0.4126281,0.2237893299999999,-0.440678911111111,-0.2879808133333333,0.6341637555555555
879,1778325734690,0.7633936,0.41006634,0.21988365,-0.43925476,-0.26809692,0.581131
880,1778325734700,0.7336185,0.4130351366666666,0.2181348266666666,-0.4170006644444444,-0.2399851455555555,0.5023023955555554
881,1778325734710,0.5648536,0.44435582,0.19987147,-0.29862976,-0.11682129,0.14703369
882,1778325734720,0.460396987,0.474167556,0.158015881,-0.1726669315,-0.13647766,0.0383361813
883,1778325734730,0.3513430566666666,0.51281354,0.1161192233333333,-0.0617879233333333,-0.2888692233333333,0.0312906903333333
884,1778325734740,0.3244696966666667,0.5197556111111111,0.1009603277777777,-0.0036688911111111,-0.5331658277777778,0.1163872627777777
885,1778325734750,0.3262186955555555,0.5180335666666667,0.0970554977777777,0.0543992777777777,-0.8038567444444444,0.21362305
886,1778325734760,0.34129602,0.4885300999999999,0.09944188,0.10458374,-1.0590515,0.30737305
887,1778325734770,0.32681511,0.4462273533333333,0.0837399666666666,0.1560618088888888,-1.3548973888888889,0.4931369333333333
888,1778325734780,0.2724728,0.39212754,0.05929307,0.2190857,-1.7924805,0.8224182
889,1778325734790,0.2531916788888889,0.3968731422222222,0.0578027926666666,0.2404564755555555,-2.1216464555555556,1.1387464777777778
890,1778325734800,0.343688588,0.465381376,0.073314978,0.251046752,-2.85886685,1.89823307
891,1778325734810,0.5987357255555555,0.5414901311111111,0.1258669466666666,0.2083723266666667,-3.3812069555555553,2.4677259555555557
892,1778325734820,0.88542193,0.5854211,0.2045082,0.17648315,-3.6305999999999994,2.7697296
893,1778325734830,0.9528903477777776,0.5943153755555556,0.2221889733333333,0.1703253811111111,-3.6627857777777777,2.8161299555555552
894,1778325734840,1.4799320666666669,0.6354791822222222,0.3830496877777778,0.0924970848888888,-3.4079504888888885,2.769722888888889
895,1778325734850,1.810602933333333,0.6092300644444444,0.4864619055555555,-0.0257551404444444,-2.809873777777778,2.442632111111111
896,1778325734860,1.7985631999999998,0.5517413,0.49090835,-0.09251404,-2.3970184,2.203537
897,1778325734870,1.7985631999999998,0.5517413,0.4909083499999999,-0.09251404,-2.3970184,2.203537
898,1778325734880,1.7985632,0.5517413,0.49090835,-0.09251404,-2.3970184,2.203537
899,1778325734890,1.7985632,0.5517413,0.49090835,-0.09251404,-2.3970184,2.203537
900,1778325734900,1.44375206,0.68192162,0.63734324,0.5322692840000001,-1.97741392,2.8721008
901,1778325734910,1.3124001,0.83524445,0.7180959,1.29859925,-1.760128,3.5650825
902,1778325734920,1.7360431333333333,1.0638139000000002,0.6015887433333333,2.5536194111111112,-1.9266492666666664,4.340869466666667
903,1778325734930,1.9521964,1.1217371,0.46979803,3.2732086,-1.8537445,4.4597626
904,1778325734940,2.0211699999999997,1.1589014,0.2257270655555555,3.5256754,-1.7093963666666665,4.1542104
905,1778325734950,2.0747869000000003,1.21860342,-0.118734062,4.0356154,-1.40173953,3.4951155999999997
906,1778325734960,1.8570552666666669,1.2423962222222222,-0.3765927388888889,3.9405363777777778,-0.9860789333333332,2.513051422222222
907,1778325734970,1.5154154666666666,1.232010066666667,-0.6290701166666667,3.611429833333333,-0.5482534,1.6513723
908,1778325734980,1.2710322,1.1923912,-0.72522795,3.3035583,-0.285141,1.3033905
909,1778325734990,0.9421108211111112,1.1357293222222224,-0.870591721111111,2.595160566666667,0.0475226477777777,1.1082102666666669
910,1778325735000,0.63929033,1.0902537,-0.98429453,1.8473511,0.34710693,1.0061798
911,1778325735010,0.4866056744444444,1.0758944222222222,-0.9715228666666668,1.192326851111111,0.58607822,1.007841311111111
912,1778325735020,0.2859908944444445,1.0679758666666668,-0.8811139,0.1467098599999999,0.9745466533333336,0.993040288888889
913,1778325735030,0.19022468,1.0809786,-0.7138811,-0.5111542,1.2355347,0.947052
914,1778325735040,0.1933163566666666,1.1562708666666666,-0.5094014133333333,-0.9074351,1.4690094,0.76063029
915,1778325735050,0.2317415755555555,1.266720577777778,-0.2683943044444444,-1.2866685555555557,1.7017703666666668,0.46525065
916,1778325735060,0.2530285333333333,1.3165078888888888,-0.1238044391777778,-1.3011033777777776,1.677027388888889,0.0959608322222222
917,1778325735070,0.2197282777777778,1.3313677888888888,0.0241486021777777,-1.1793094333333334,1.483208577777778,-0.4514075399999999
918,1778325735080,0.1560565,1.3439509,0.18425027,-0.8744049,1.142334,-0.9991913
919,1778325735090,0.1358816777777777,1.3442078444444443,0.2925442677777777,-0.5539415016666667,0.8387315577777777,-1.3524984
920,1778325735100,0.12384194,1.3162502,0.45015135,-0.032318115,0.40090942,-1.8364868000000003
921,1778325735110,0.1460780555555555,1.2046482555555555,0.52997165,0.3839077411111111,0.2246008955555555,-2.1714562222222225
922,1778325735120,0.1927067933333333,1.0684922933333334,0.5779423855555555,0.8852369555555556,0.1895039866666666,-2.5858357666666665
923,1778325735130,0.24618632,0.939890032,0.542674056,1.1567932200000002,0.536724858,-2.89620817
924,1778325735140,0.2763764266666667,0.8467241833333333,0.5193423555555555,1.2086029,0.812857731111111,-3.0281626555555556
925,1778325735150,0.31640288,0.80116725,0.5310572,1.2204437,1.3218231,-3.2128143
926,1778325735160,0.3370524622222222,0.7998385677777777,0.5446557888888889,1.2580787,1.6096785,-3.315194011111111
927,1778325735170,0.3088229222222222,0.82660341,0.5610894733333333,1.351471,2.0398102,-3.4754028
928,1778325735180,0.1556640111111111,1.03258825,0.6687453844444444,1.6202698,2.0431875,-3.336029
929,1778325735190,0.1534129611111111,1.2166349444444444,0.7831672866666667,1.871673622222222,1.848600611111111,-3.0208231555555556
930,1778325735200,0.3196973,1.397156,0.9138598999999998,2.0966187,1.669632,-2.6956177
931,1778325735210,0.7791895444444443,1.5746254555555554,1.0252728722222222,2.3665483222222226,1.6077304222222224,-2.419067366666667
932,1778325735220,1.61939957,1.87760702,1.13400016,2.67484739,1.6072601,-2.28453063
933,1778325735230,2.3015645333333334,2.150194033333334,1.1410774333333331,2.8643188666666664,1.5968424333333333,-2.4481201
934,1778325735240,2.6665790666666664,2.2884656000000003,1.094435533333333,2.867048488888889,1.4684109,-2.7035489
935,1778325735250,3.0719316,2.414508,1.0317398,2.756012,1.3085022,-3.0109406
936,1778325735260,3.361437444444445,2.3816549777777776,0.9879867666666668,2.383528,1.2989163111111113,-3.3335961333333333
937,1778325735270,3.5742009,2.2584329,0.9626725,1.8265686,1.3644257,-3.709747300000001
938,1778325735280,3.5726549777777774,2.0787931555555557,0.9686098844444444,1.2135145711111113,1.6638929444444444,-3.9692111333333338
939,1778325735290,3.4869504,1.7485981,0.9893963300000002,0.47901917,2.1601868,-4.2621
940,1778325735300,3.25137432,1.35871639,0.973910759,-0.0233718864999999,2.72248088,-4.5022614
941,1778325735310,2.640546222222222,0.6434246844444445,0.7856219444444446,-0.4856499516666667,3.3885549444444445,-4.7534756555555555
942,1778325735320,2.3130348,0.32647586,0.68273824,-0.6709442,3.66008,-4.8368073
943,1778325735330,1.7873760000000003,0.0971025146666666,0.5799086233333334,-0.7437388066666667,3.7067718666666662,-4.635472633333333
944,1778325735340,1.0105419000000002,-0.106523244,0.4706929266666666,-0.7604268466666667,3.6478271666666666,-3.9904530999999994
945,1778325735350,0.6538119,-0.11026458,0.44710118,-0.6645508,3.5104065,-3.4237213
946,1778325735360,0.4641791211111111,-0.1216273577777777,0.4056385377777778,-0.3940938366666666,3.248058755555556,-2.6402859000000003
947,1778325735370,0.3893348255555555,-0.1459786855555555,0.3549290233333333,-0.1007317438888888,2.9470112888888886,-1.8941328222222225
948,1778325735380,0.4734532999999999,-0.1928377966666666,0.2536857766666667,0.1427459733333333,2.659973133333333,-1.4774932666666667
949,1778325735390,0.522460449,-0.2394936109999999,0.178820864,0.423353575,2.35310514,-1.16276093
950,1778325735400,0.4864287266666667,-0.2867589399999999,0.1260034716666666,0.6751946244444444,2.1382327555555554,-1.0249294777777778
951,1778325735410,0.4073546933333333,-0.3312591444444444,0.0813408001111111,0.83456929,2.016794822222222,-0.9313083
952,1778325735420,0.3062739,-0.365427,0.040623218,1.0164337,1.8858795,-0.7776184
953,1778325735430,0.1750393364444444,-0.3374015622222222,-0.0417051095555555,1.0489875,1.6762017111111112,-0.6057485
954,1778325735440,0.034760796,-0.28720742,-0.13656227,1.0345459,1.4081116,-0.4047699
955,1778325735450,-0.036138907,-0.2493777599999999,-0.24529009,0.8353424,1.0762787,-0.18533325
956,1778325735460,-0.0620365058888888,-0.2590997211111111,-0.26629274,0.5635867611111112,0.8782009555555556,0.0010969383333333
957,1778325735470,-0.087513275,-0.28562087,-0.28543735,0.13493347,0.6459198,0.276474
958,1778325735480,-0.0481949059999999,-0.314309888,-0.230329158,-0.416342165,0.7275665339999999,0.5394821129999999
959,1778325735490,0.04163425,-0.3388659,-0.1447796166666666,-1.00112068,0.9647233888888888,0.7642415277777778
960,1778325735500,0.1366275944444444,-0.3551626733333333,-0.0837648531111111,-1.3686930666666666,1.2337646333333334,0.8195800666666666
961,1778325735510,0.1747279,-0.36689064,-0.056511957,-1.5188904,1.3931885,0.8117676
962,1778325735520,0.21743695,-0.42741716,-0.025638187,-1.6767341,1.633063411111111,0.7844238111111111
963,1778325735530,0.2438765333333333,-0.4363795666666667,-0.0324718915555555,-1.756866466666667,1.766281111111111,0.7445356333333334
964,1778325735540,0.24111064,-0.5249179,0.048311718,-1.8912047999999997,2.0904083,0.5720825
965,1778325735550,0.1394750688888889,-0.5751398111111112,0.0752531839999999,-1.7363874444444445,2.135804988888889,0.6021508055555556
966,1778325735560,-0.0666456,-0.6445073,0.08284542,-1.1433868,1.9748383,0.8618316700000002
967,1778325735570,-0.0970854022222222,-0.6316939833333333,0.0643375072222222,-0.9395124444444444,1.8505554666666664,0.9722035755555556
968,1778325735580,-0.1420463755555555,-0.589986961111111,0.0305486848666666,-0.1708628311111111,1.1840481504222222,1.3090667666666669
969,1778325735590,-0.029915625,-0.45096952,-0.04089231,1.0345459,-0.0007171631,1.7492065
970,1778325735600,0.1236381811111111,-0.4267934355555555,-0.0756029831111111,1.6237623555555554,-0.5294392918,1.7845984555555556
971,1778325735610,0.5781541,-0.3952026,-0.2310127599999999,2.8955688,-1.5187073,1.6490631
972,1778325735620,0.712800985,-0.417935403,-0.306463972,3.48699952,-1.88047482,1.3657135
973,1778325735630,0.5910213044444445,-0.4739510311111111,-0.5025808333333334,3.9888797444444446,-2.0031128,1.114422277777778
974,1778325735640,0.30188137,-0.49123812,-0.79295456,4.2298126,-1.7706451,1.1808777
975,1778325735650,0.0657420622222222,-0.2289580222222222,-1.2056834444444446,3.547924477777778,-1.658728711111111,2.014456855555556
976,1778325735660,-0.0417255066666666,0.3637229222222222,-1.7724927888888888,2.024653146666666,-1.987481022222222,3.5300920444444444
977,1778325735670,0.3802238,0.9457711,-1.6593583,0.31123352,-2.27771,5.1857452
978,1778325735680,0.9160514666666668,1.0937103333333331,-1.4833523333333334,-0.4026726666666666,-2.3749440666666666,5.6580742666666675
979,1778325735690,3.6823175,1.8125403,-0.5670794,-1.9545898,-2.5072784,5.9884186
980,1778325735700,4.516709333333334,2.2636393666666668,0.00857095,-2.646296233333333,-1.32092793,4.205174899999999
981,1778325735710,4.424591111111111,2.512523455555556,0.4216518766666667,-3.0141058999999997,-0.0662180577777777,2.539103188888889
982,1778325735720,3.5707027333333334,2.5226655666666664,0.7450540333333334,-3.008316033333333,0.5933634333333333,1.318659466666667
983,1778325735730,2.8562116222222222,2.4891211666666666,0.9463473222222222,-2.7067277444444446,0.5864935822222223,1.0564863555555557
984,1778325735740,2.1703846,2.4030368,1.1283866,-2.0958031666666668,0.3021884527777778,1.1190304
985,1778325735750,1.9597891111111112,2.2629074555555553,1.142284177777778,-1.5012563222222224,-0.0350273994444444,1.2185753777777777
986,1778325735760,1.8697729,2.1038090666666664,1.0667485955555556,-0.739776632888889,-0.4753401066666667,1.1475677666666666
987,1778325735770,1.6505011333333333,1.918990966666667,0.95079414,-0.0069953079999999,-0.8160010466666667,0.6908043822222223
988,1778325735780,1.4920264,1.8307233,0.8948245,0.333923335,-0.8727951090000001,0.4161849969999999
989,1778325735790,1.0461339,1.605825,0.72129893,0.6915283,-0.86943054,0.17793274
990,1778325735800,0.8013174733333334,1.4881209333333334,0.5970607122222222,0.9753655266666666,-0.8281199044444444,0.0950809055555555
991,1778325735810,0.4424582088888888,1.3160065666666665,0.3831177866666667,1.2275967,-0.8162858844444444,0.0839555522222222
992,1778325735820,0.21402124,1.1920255,0.20999888,1.3573303,-0.8939361599999999,0.14170837
993,1778325735830,0.106024474,1.0957444,0.0785742,1.385025,-1.002594,0.18432617
994,1778325735840,-0.035529178,0.9540694,0.0007186096,1.3642578,-1.1815491,0.229599
995,1778325735850,-0.035529178,0.9540694,0.0007186096,1.3642578,-1.1815491,0.2295989999999999
996,1778325735860,-0.1109154422222222,0.8850692022222222,-0.0179502051111111,1.3227081,-1.2966003,0.27326965
997,1778325735870,-0.2830031,0.7414962,-0.063223645,1.1229706,-1.2028656,0.5172272
998,1778325735880,-0.4746334749999999,0.6365967625,-0.1108908375,0.5545101,-0.73234366875,0.8871326749999999
999,1778325735890,-0.5265713,0.6244702,-0.10776345,0.3447876,-0.5615692,1.0056458
1000,1778325735900,-0.5650458071428571,0.6163112971428572,-0.0820859277142857,0.0682765414285714,-0.3284279914285714,1.1307373428571428
