id,timestamp,acc_x,acc_y,acc_z,gyro_x,gyro_y,gyro_z
0,1778412942560,0.97959985,-0.10241451,0.209737845,0.1608819,-0.089718195,-0.1918060349999999
1,1778412942570,0.9741896055555556,-0.0971025455555555,0.2210528755555555,0.1794788044444444,-0.0874784177777777,-0.1975072777777778
2,1778412942580,0.96517825,-0.09656051,0.2227873999999999,0.19203511,-0.06711684,-0.2015796
3,1778412942590,0.9645278388888888,-0.0906794077777777,0.2031690322222222,0.19875443,-0.0675919488888888,-0.1947245277777777
4,1778412942600,0.9695687,-0.08460859,0.21888472,0.2156836242857143,-0.0745342742857142,-0.1805490014285714
5,1778412942610,0.952592168,-0.0989508928,0.183879631,0.223127231,-0.086969375,-0.158331613
6,1778412942620,0.9452855,-0.1050975988888888,0.1884053011111111,0.2197268533333333,-0.1387895866666666,-0.1097488933333333
7,1778412942630,0.9478602,-0.100219265,0.21254289,0.2189124,-0.17829104,-0.0775776
8,1778412942640,0.95092268,-0.0835245177777777,0.1981551822222222,0.2359482333333333,-0.1442872135555555,-0.0379404004444444
9,1778412942650,0.9459088133333332,-0.0794050433333333,0.2119737466666666,0.2456539277777777,-0.0914149888888889,-0.0342074463333333
10,1778412942660,0.96336412,-0.087535595,0.24487709,0.2610608399999999,-0.093016766,-0.0401937492
11,1778412942670,0.9874051766666666,-0.0975361766666666,0.2745282166666667,0.2811509288888889,-0.1246722322222222,-0.0331893666666666
12,1778412942680,0.9840614866666666,-0.0958287666666666,0.29664334,0.3052454666666666,-0.1664813333333333,-0.01443126562
13,1778412942690,0.96159273,-0.0725987515,0.2748453039999999,0.3247111299999999,-0.207856048,0.010338590112
14,1778412942700,0.9634709,-0.037746105,0.26647896,0.33741677,-0.27236152,0.048944138
15,1778412942710,0.9442827444444444,-0.0323257344444444,0.2479277444444444,0.3139330688888889,-0.2362536599999999,0.0537630421111111
16,1778412942720,0.931395835,-0.03518498,0.248048,0.298566878,-0.1649745739999999,0.0421026476
17,1778412942730,0.92785907,-0.03872177,0.2628202,0.2989334,-0.11659547,0.02817533
18,1778412942740,0.890564182,-0.0405267537999999,0.285016624,0.322206654,-0.02185306074,0.0239604839
19,1778412942750,0.90538824,-0.033843435,0.29989552,0.3361271799999999,-0.0078646581777777,0.0457541555555555
20,1778412942760,0.9264463444444444,-0.0299339967777777,0.3471408355555556,0.3357878366666667,-0.0403074346666666,0.0722920788888889
21,1778412942770,0.942152558,-0.009957898,0.43334236,0.333507342,-0.0673611852,0.146435364
22,1778412942780,0.94176227,0.006433302,0.500517,0.31786963,-0.07566871,0.18455222
23,1778412942790,0.93223938,0.0361199933333333,0.5256506000000001,0.30748523,-0.0836097216666666,0.1992125599999999
24,1778412942800,0.87850859,0.1370110456,0.60997155,0.262160368,-0.08336538,0.243193568
25,1778412942810,0.8638783166666666,0.1837878311111111,0.6379911777777778,0.1692980077777778,0.0205058012222222,0.2596185744444444
26,1778412942820,0.8668493666666667,0.1619708299999999,0.7495965666666666,0.0687797,0.1687465511111111,0.2025382944444444
27,1778412942830,0.8572787099999999,0.118686803,0.823645615,0.00633754,0.28664008,0.10208785
28,1778412942840,0.84852508,0.0851675713333333,1.0181387,-0.0240690771111111,0.3484035066666667,0.0312974387777777
29,1778412942850,0.85291564,0.079638794,1.1245474,-0.038865156,0.5285356,-0.10628742
30,1778412942860,0.80737096,0.0727007192222222,1.1078390333333334,-0.1178002004444444,0.4868622444444443,-0.1590239
31,1778412942870,0.75922114,0.06329638,1.0884172,-0.1935622311111111,0.3921639444444444,-0.1763312397777777
32,1778412942880,0.7806492119999999,0.0620767939999999,1.017102,-0.247912362,0.092436461,-0.0918714298
33,1778412942890,0.8439008966666667,0.0763865666666666,0.9668755166666668,-0.264955,-0.2212539633333333,-0.0121914926666666
34,1778412942900,0.87026423,0.09768862,0.93904865,-0.2673984,-0.39025503,0.025731942
35,1778412942910,0.8800940479999999,0.0789497255999999,0.92107202,-0.312662176,-0.4724140069999999,0.0503490843
36,1778412942920,0.8676183722222223,-0.0150212014444444,0.9432935388888888,-0.4080968788888888,-0.327202028,0.0306017506666666
37,1778412942930,0.83046849,-0.0533567714444444,0.983038387777778,-0.505018,-0.053067356,-0.016492875
38,1778412942940,0.79659828,-0.0558203292,0.989765087,-0.541790995,0.387918541,0.0145534363
39,1778412942950,0.8331583,-0.017744938,0.98908216,-0.505018,0.54869354,0.061161082
40,1778412942960,0.8752339640000001,0.0052076204,0.7629957519999999,-0.44546038,0.251669078,0.1178477032
41,1778412942970,0.9108526,-0.0235548966666666,0.6251618333333333,-0.3771472866666667,-0.2141274166666666,0.17355697
42,1778412942980,0.9009434777777778,-0.0654204822222222,0.6573859333333334,-0.3103613111111111,-0.5487359655555556,0.1929683433333333
43,1778412942990,0.8628095,-0.1213180599999999,0.58055215,-0.237283618,-0.79720148,0.2116127559999999
44,1778412943000,0.8387685,-0.12753794,0.5725029,-0.2197523,-0.8459471,0.21631628
45,1778412943010,0.7590483866666667,-0.1340626999999999,0.48058698,-0.2425572666666666,-0.8133685666666667,0.2216102933333333
46,1778412943020,0.6831404790000001,-0.208545712,0.214927174,-0.371608947,-0.6458946000000001,0.329811712
47,1778412943030,0.6707268155555556,-0.2433035044444444,0.1169207766666666,-0.38468108,-0.6290963,0.34153998
48,1778412943040,0.7058643855555555,-0.2792168411111111,0.0135881872222222,-0.5133662222222222,-0.6918099288888889,0.5004960022222222
49,1778412943050,0.79166204,-0.35303888,-0.3009322,-0.704581744,-1.0492369700000002,0.7138513860000001
50,1778412943060,0.9502993333333334,-0.2124005933333333,-0.26791198,-0.7304206,-1.2845354,0.7660788
51,1778412943070,1.0693002,-0.1264159079999999,-0.2489474519999999,-0.71478292,-1.35197292,0.745554368
52,1778412943080,1.0988547777777775,-0.1321858977777777,-0.2949935,-0.6726616144444445,-1.3881079666666667,0.7210797488888888
53,1778412943090,1.066955911111111,-0.2614007455555555,-0.5211720022222222,-0.5541572522222222,-1.4280167,0.8150144555555555
54,1778412943100,0.9900883,-0.34816054,-0.56402683,-0.54227966,-1.558195,0.8815290000000001
55,1778412943110,0.9553707888888888,-0.4243167533333333,-0.4835343055555555,-0.5160810788888889,-1.324512,0.9316184
56,1778412943120,0.9966807666666668,-0.4047492122222222,-0.2936418155555556,-0.4433223866666667,-0.8687520666666666,0.8701264533333333
57,1778412943130,1.11388505,-0.335098836,-0.345474431,-0.267436574,-0.62139966,0.759970332
58,1778412943140,1.2049279999999998,-0.2675562766666666,-0.4678525033333333,-0.0799276650666666,-0.5378086133333334,0.5546577822222223
59,1778412943150,1.20302457,-0.2482675459999999,-0.430076947,-0.0022143214,-0.50387263,0.4423297599999999
60,1778412943160,1.2484637444444444,-0.2239459955555555,-0.4754410333333333,0.2138219833333333,-0.3999607166666666,0.2062033666666666
61,1778412943170,1.2394591444444445,-0.2249826444444444,-0.4691533888888888,0.3478011533333333,-0.32061845,0.0576741653333333
62,1778412943180,1.18341049,-0.283793999,-0.37403708,0.570393916,-0.2397422859999999,-0.0663380104
63,1778412943190,1.1876810666666668,-0.3149065933333334,-0.3414528599999999,0.8425874777777778,-0.1871822622222222,-0.1452459011111111
64,1778412943200,1.222175,-0.31084132,-0.34633118,1.0197332,-0.15630054,-0.18019994
65,1778412943210,1.26717756,-0.2448435339999999,-0.444056386,1.31862071,-0.0846481578,-0.2938175429999999
66,1778412943220,1.2366371333333337,-0.1400081633333333,-0.4633095533333333,1.6124586,-0.0196743719333333,-0.4544703566666667
67,1778412943230,1.2017232222222225,-0.12904547,-0.4934603555555555,1.65196,0.0031305922,-0.47401747
68,1778412943240,1.16880294,-0.126278713,-0.48327514,1.69856773,-0.02441861959,-0.51524966
69,1778412943250,1.0818313,-0.14610608,-0.4417636,1.7289268,-0.06589515,-0.57297474
70,1778412943260,1.00968394,-0.158545839,-0.4552277919999999,1.7366235199999998,-0.1251473332,-0.63124959
71,1778412943270,1.0390918555555555,-0.1471630588888889,-0.4522248866666667,1.7231577333333332,-0.2368645144444444,-0.6794657833333333
72,1778412943280,1.0506304333333332,-0.1296484886666666,-0.4394328155555556,1.6885430444444445,-0.3436270488888889,-0.7265688977777778
73,1778412943290,1.02496834,-0.1211473181999999,-0.431464216,1.62208963,-0.453233408,-0.7969113259999999
74,1778412943300,1.0210657,-0.109244175,-0.398072,1.5456727,-0.42629504,-0.8441909
75,1778412943310,0.9917042444444444,-0.0995417133333333,-0.37426302,1.4416928444444443,-0.2667960299999999,-0.8887148888888888
76,1778412943320,0.93824377,-0.102713308,-0.385973736,1.33040998,-0.151169424,-0.90356526
77,1778412943330,0.87168705,-0.1615947977777777,-0.40501008,1.2099102222222224,-0.1270477455555555,-0.8568150822222222
78,1778412943340,0.8408824,-0.2038635333333333,-0.4107556766666667,0.9769738466666666,-0.23306369,-0.7366817933333334
79,1778412943350,0.8324266,-0.21736026,-0.41465837,0.85969114,-0.34627405,-0.6658235
80,1778412943360,0.8425356111111111,-0.2014379122222222,-0.3594247644444444,0.6354423377777778,-0.5028545655555556,-0.5442649
81,1778412943370,0.851476535,-0.177400595,-0.30534708,0.4195146239999999,-0.5482201640000001,-0.437244466
82,1778412943380,0.8458149777777777,-0.1615270388888888,-0.2817644122222222,0.2497941111111111,-0.4807961822222222,-0.3481150566666666
83,1778412943390,0.8492365611111112,-0.1687090244444444,-0.2424158988888888,0.19760061,-0.4423806655555555,-0.3086136066666667
84,1778412943400,0.88246,-0.18123008,-0.24089819,0.12972869,-0.34138727,-0.25105822
85,1778412943410,0.9182582077777778,-0.2060045644444444,-0.2274827933333333,0.0837115285555555,-0.2672711277777778,-0.2275066633333333
86,1778412943420,0.91538876,-0.22687298,-0.20870121,0.008780929,-0.14347275,-0.18569757
87,1778412943430,0.920974472,-0.230336606,-0.2127990099999999,-0.0757603322,-0.0234412636,-0.1156333861
88,1778412943440,0.9275338333333334,-0.23232047,-0.20617056,-0.1721146977777777,0.0399850445555555,-0.0173582432222222
89,1778412943450,0.9356643,-0.23345873,-0.1674488,-0.24296449,0.0086282175,0.07154548
90,1778412943460,0.9411117866666666,-0.23167001,-0.16192002,-0.2604754466666666,-0.0029778803333333,0.1008661466666666
91,1778412943470,0.975195782222222,-0.2102053477777777,-0.1621097322222222,-0.29549736,-0.026190076,0.15950748
92,1778412943480,1.009754068,-0.182852126,-0.1670097479999999,-0.36818817,-0.16790664,0.29755896
93,1778412943490,1.0622368,-0.1515535533333333,-0.17648387,-0.4072824133333333,-0.2359143,0.37880166
94,1778412943500,1.0635376,-0.158058,-0.20479853,-0.42438614,-0.25586864,0.39834878
95,1778412943510,1.06690369,-0.183385701,-0.226165634,-0.462136496,-0.27358322,0.422782672
96,1778412943520,1.076817522222222,-0.2124548122222222,-0.2411150166666666,-0.5106513388888889,-0.2922479888888889,0.4439587111111111
97,1778412943530,1.08827682,-0.22057994,-0.230117086,-0.52493161,-0.2987501199999999,0.4506373
98,1778412943540,1.1304555111111112,-0.1980467788888888,-0.1844823188888888,-0.5241578666666666,-0.2768410766666667,0.4480310133333333
99,1778412943550,1.1435728,-0.18610841,-0.16842447,-0.5196783,-0.2271588299999999,0.43011284
100,1778412943560,1.15986955,-0.172375912,-0.230028667,-0.51992262,-0.170227866,0.37440356
101,1778412943570,1.163197933333333,-0.17773395,-0.2931370333333333,-0.5248365666666667,-0.1896256611111111,0.3257936888888889
102,1778412943580,1.1625474777777776,-0.1854613622222222,-0.3476083733333333,-0.5468270744444444,-0.2975420077777777,0.2838488288888889
103,1778412943590,1.1380572599999998,-0.201578828,-0.416448076,-0.5940795189999999,-0.4516451929999999,0.2448428439999999
104,1778412943600,1.1143029,-0.21028666,-0.4712774800000001,-0.6308525,-0.53502584,0.2273115399999999
105,1778412943610,1.0813284099999998,-0.2132136639999999,-0.4716921659999999,-0.67642171,-0.5757082779999999,0.210635406
106,1778412943620,1.0510166666666667,-0.2172789366666666,-0.39426082,-0.7383616,-0.6009973,0.21448374
107,1778412943630,1.080154488888889,-0.2220217577777777,-0.3138326711111111,-0.71257028,-0.5419487866666667,0.21271908
108,1778412943640,1.12010804,-0.213164868,-0.303627484,-0.625721404,-0.382802716,0.172090948
109,1778412943650,1.1094245,-0.20540832,-0.35925877,-0.5868715,-0.33588964,0.14240377
110,1778412943660,1.1007248,-0.2037822133333333,-0.3955515333333333,-0.5365784166666666,-0.40980216,0.10880717
111,1778412943670,1.0894233,-0.20735966,-0.4415196499999999,-0.48669255,-0.5008184,0.076432265
112,1778412943680,1.0437533444444445,-0.2169808166666666,-0.4735167777777777,-0.4548606266666666,-0.5784638666666667,0.0650297823333333
113,1778412943690,0.9593243,-0.2232142399999999,-0.50862724,-0.394698958,-0.7370940920000001,0.06873559
114,1778412943700,0.9541749355555554,-0.2194741844444444,-0.5124214977777778,-0.39873055,-0.76531523,0.08192989
115,1778412943710,0.9201959555555556,-0.18445859,-0.4361772022222222,-0.3975088577777778,-0.6996831177777778,0.1122007655555555
116,1778412943720,0.928054106,-0.163326603,-0.4003190829999999,-0.390911707,-0.620605568,0.143869803
117,1778412943730,0.9338484777777778,-0.1397879644444444,-0.4324371544444444,-0.3677809522222222,-0.5439170533333333,0.1597789777777777
118,1778412943740,0.9313551222222222,-0.1168055972222222,-0.4187778177777778,-0.3399534688888889,-0.4623350177777777,0.1686702022222222
119,1778412943750,0.9339569,-0.118756935,-0.39124236,-0.33398074,-0.4330143599999999,0.16378342
120,1778412943760,0.9263684211111112,-0.1199494044444444,-0.437115631111111,-0.2678056133333333,0.072563566,0.0588534355555555
121,1778412943770,0.919029253,-0.130986298,-0.47906761,-0.256158792,0.165493798,0.0474781031999999
122,1778412943780,0.9180075333333334,-0.1677740244444444,-0.5501608111111111,-0.2604754466666666,0.1246892010999999,0.0764322666666666
123,1778412943790,0.9157242133333332,-0.1971151633333333,-0.5802879133333333,-0.2794117133333333,-0.0669132278,0.1609328066666666
124,1778412943800,0.92907864,-0.20101783,-0.55378234,-0.28389126,-0.18867545,0.22731154
125,1778412943810,0.9549337733333332,-0.16229267,-0.4599523366666667,-0.2726245222222222,-0.2203037533333333,0.2748897577777777
126,1778412943820,0.9539038911111112,-0.1400589844444444,-0.3843550911111111,-0.25518143,-0.15324631,0.28045526
127,1778412943830,0.93834742,-0.127391572,-0.30132856,-0.224883414,-0.0476919004,0.2711703799999999
128,1778412943840,0.9384287266666668,-0.1324264233333333,-0.1738820986666666,-0.0424623644444444,0.42224816,0.1812943811111111
129,1778412943850,0.9605439,-0.14659391,-0.108146556,0.07108735,0.67880404,0.11858072
130,1778412943860,0.9910063555555556,-0.2036433222222222,-0.2121804128888889,0.2546130211111111,0.9638660933333334,0.0153814724444444
131,1778412943870,0.9947227,-0.221019,-0.2552893,0.33558422,1.0648595,-0.032374904
132,1778412943880,0.989133958,-0.218555438,-0.27076276,0.348167676,1.0728005,-0.038727716
133,1778412943890,0.9542562011111112,-0.1867046522222222,-0.3717561077777778,0.4716674055555555,1.0026888555555555,-0.1144999222222222
134,1778412943900,0.93907917,-0.17366867,-0.39758417,0.47546825,0.9744541,-0.11667182
135,1778412943910,0.908958514,-0.16632677,-0.438150551,0.406503578,0.551259106,-0.0971857985
136,1778412943920,0.8931923500000001,-0.17147341,-0.4410318,0.34657946,0.23716144,-0.08124269
137,1778412943930,0.8795329811111111,-0.1920979344444444,-0.3672606,0.2986618888888889,0.0559434282222222,-0.0568087971111111
138,1778412943940,0.8806062600000001,-0.193303968,-0.0455148549999999,0.28537256,0.1539564154,-0.0543043211999999
139,1778412943950,0.9044125,-0.17805916,0.056588665,0.30626354,0.45584476,-0.09773556
140,1778412943960,0.87616087,-0.160448382,0.0071955404,0.308706928,0.720097296,-0.17543533
141,1778412943970,0.8055144666666666,-0.13252806,-0.1273380533333333,0.29954422,1.2297883,-0.3426853
142,1778412943980,0.8031159777777778,-0.12763618,-0.1966510488888889,0.2381880088888889,1.2193359222222222,-0.38449442
143,1778412943990,0.787808145,-0.114805481,-0.207155388,0.158927188,1.095524,-0.398761084
144,1778412944000,0.7593837200000001,-0.09476163,-0.1981823033333333,0.0972180444444444,1.0269190444444445,-0.3867341933333333
145,1778412944010,0.7550474466666667,-0.0626594833333333,-0.16889875,-0.1011885411111111,0.90210262,-0.3430925488888889
146,1778412944020,0.76741674,-0.075876376,-0.0330690031999999,-0.235023487,0.8938222359999999,-0.330040783
147,1778412944030,0.7797101,-0.08387684,0.107109904,-0.3229855,0.9048175,-0.3151972
148,1778412944040,0.7803015999999999,-0.11247607,0.1809617724,-0.3664778199999999,0.93340516,-0.293206696
149,1778412944050,0.8287780166666666,-0.14797611,0.3466055866666667,-0.4727109311111112,0.9837525555555556,-0.2197013933333333
150,1778412944060,0.8721241000000001,-0.1251190866666666,0.4101357166666666,-0.4378247811111111,0.8649766944444445,-0.2640217677777777
151,1778412944070,0.85033011,-0.1147079151999999,0.417347518,-0.395615239,0.828400495,-0.289358354
152,1778412944080,0.81076545,-0.1135262679999999,0.2845592855555555,-0.3333698977777778,0.7579426777777778,-0.3384772522222222
153,1778412944090,0.788274311111111,-0.0849744677777777,0.1210944604444444,-0.3255646266666667,0.6851161066666668,-0.3314864344444445
154,1778412944100,0.7941012,-0.06896744,0.1141834859999999,-0.3516953,0.49554983,-0.27732465
155,1778412944110,0.8020081666666666,-0.05994252,0.2082946666666666,-0.39187548,0.2568867166666667,-0.1508114016666666
156,1778412944120,0.7909303,-0.05847902,0.2540087,-0.44094688,0.1761445922222222,-0.0680670497555555
157,1778412944130,0.824712756,-0.0643330211999999,0.359344152,-0.51943396,0.269658526,0.01998997612
158,1778412944140,0.8743566,-0.0736865499999999,0.4023676655555556,-0.55056,0.3371368033333333,0.0511839091111111
159,1778412944150,0.9054492,-0.0947555284,0.300822422,-0.57911371,0.2470953519999999,0.1255443842
160,1778412944160,0.9407866111111112,-0.1151252804444444,0.3843144188888889,-0.5953554722222223,0.1075854755555555,0.2261577099999999
161,1778412944170,0.9593243,-0.116317764,0.44853225,-0.58748233,0.08803836,0.25602135
162,1778412944180,1.0278039,-0.12095218,0.436860868,-0.5325060699999999,0.15003936,0.2062373199999999
163,1778412944190,1.1642549333333332,-0.1140412083333333,0.4005315133333333,-0.5062396433333334,0.14260738,0.1006370933333333
164,1778412944200,1.2430806666666667,-0.1020079853333333,0.4028080733333333,-0.4748828499999999,0.1090786533333333,-0.0608132377777777
165,1778412944210,1.170178,-0.1091953932,0.3506180279999999,-0.373441474,0.064459656,-0.23090026
166,1778412944220,1.1405916444444444,-0.1152065853333333,0.2705984511111111,-0.3193882633333333,-0.0077289144444444,-0.2870303266666666
167,1778412944230,1.1318649,-0.1172934299999999,0.30721304,-0.30038413,-0.08971819,-0.32558158
168,1778412944240,1.08754825,-0.106365962,0.296453268,-0.295863863,-0.085259006,-0.3389591349999999
169,1778412944250,0.9668382222222224,-0.0721349699999999,0.2208631555555555,-0.2942756533333333,-0.1656668722222222,-0.3320294122222222
170,1778412944260,0.977663755,-0.0581619334,0.22804685,-0.275828074,-0.232045604,-0.291374152
171,1778412944270,0.922408111111111,-0.048451336,0.1795294466666666,-0.23624517,-0.2980171,-0.26938364
172,1778412944280,0.8894861777777778,-0.0587026111111111,0.1841909688888888,-0.2183948711111111,-0.3337855999999999,-0.2260134822222222
173,1778412944290,0.918727391,-0.0770471799999999,0.190764184,-0.214865516,-0.122642853227,-0.196081971
174,1778412944300,0.91563267,-0.08216943,0.21229897,-0.1977618,7.635591e-05,-0.21746163
175,1778412944310,0.96819333,-0.0924681266666666,0.2305927233333333,-0.1600419819999999,0.1513883153033333,-0.2793608166666667
176,1778412944320,0.9964301,-0.10778067,0.20742063,-0.123162076,0.2854184,-0.3384094
177,1778412944330,0.9851557411111111,-0.1056396304444444,0.2086673133333333,-0.0972350056666666,0.2908481366666666,-0.3447893433333334
178,1778412944340,0.97886807,-0.102170594,0.22644614,-0.095063105,0.25731942,-0.27182704
179,1778412944350,0.911044025,-0.05856439135,0.234983224,-0.117053606,0.22005773,-0.19608197
180,1778412944360,0.9239258611111112,0.0244966863888888,0.2735491688888889,-0.1594056822222222,0.1482407444444444,-0.0762201671111111
181,1778412944370,0.979112,0.053783625,0.32602513,-0.14942852,0.1259109,-0.058641337
182,1778412944380,0.969965127777778,0.0478347716666666,0.2612347522222222,-0.0749051456666666,0.30801972,-0.1144320533333333
183,1778412944390,0.9658388666666666,0.0279792776666666,0.2523927633333333,-0.0440912945555555,0.3439918422222222,-0.1447029311111111
184,1778412944400,1.0042354,0.015946053,0.28379703,-0.0232885512,0.351145551,-0.178000897
185,1778412944410,0.9891396777777778,0.0145096543333333,0.3499967077777777,0.02507019,0.3517971333333333,-0.2453569866666666
186,1778412944420,0.9878387888888888,0.0098752378111111,0.3937594266666666,0.04909685,0.3086306,-0.25350162
187,1778412944430,0.9949666,-0.02443740035,0.369213615,0.130583874,0.3058206979999999,-0.2440945659999999
188,1778412944440,0.9876490666666666,-0.0579098833333333,0.3177929333333333,0.2616038211111111,0.37181935,-0.1794533522222222
189,1778412944450,0.993581011111111,-0.0685372013333333,0.3414155866666666,0.2647259366666666,0.3249198533333333,-0.0700183643333333
190,1778412944460,0.95923581,-0.0667691384,0.301465757,0.1879424288,0.2387267579999999,0.0436908493999999
191,1778412944470,1.014236,-0.043356188,0.33529395,0.102851406,0.14118208,0.119802415
192,1778412944480,1.04240535,-0.01807727335,0.373131526,0.0580152189999999,0.0628714565,0.159202073
193,1778412944490,1.0320012555555556,-0.0042448273888888,0.3720745444444444,0.1012224833333333,0.0346910346666666,0.1931041
194,1778412944500,1.0414428444444443,-0.0169081678888888,0.3710379044444444,0.1371267311111111,0.0637402157777777,0.2171986233333333
195,1778412944510,1.01706544,-0.0459965866,0.358222132,0.140357434,0.108074152,0.248446852
196,1778412944520,1.0000888,-0.078022845,0.33285478,0.07291989,0.1246892,0.26701662
197,1778412944530,1.0039440222222222,-0.0627170718888888,0.3601260355555555,0.0093917763555555,0.1617642377777778,0.2431256955555555
198,1778412944540,0.9505433,-0.033111688,0.41118255,-0.061466504,0.23532891,0.1802763
199,1778412944550,0.9366401,-0.038965687,0.32651293,-0.0524395392222222,0.2786312044444444,0.2131263066666666
200,1778412944560,1.10464374,-0.090444298,0.389425156,-0.0555412880999999,0.267825976,0.290289898
201,1778412944570,1.107717,-0.119000845,0.4065481,-0.06024481,0.2780882,0.3018349
202,1778412944580,1.1250655777777778,-0.1513096433333333,0.4479936355555555,-0.0739549411111111,0.26987571,0.2802516422222222
203,1778412944590,1.17048288,-0.155594451,0.482092132,-0.063970983,0.21553746,0.211673844
204,1778412944600,1.1482275333333334,-0.15472447,0.4736556933333333,-0.0469419164444444,0.1683902195555555,0.1824482022222222
205,1778412944610,1.0775324333333334,-0.1448051933333333,0.4618664166666666,-0.0099517203333333,-0.0088827366666666,0.20796804
206,1778412944620,1.0278953,-0.14415476,0.44804445,0.0136677069999999,-0.057343286,0.27801186
207,1778412944630,1.0887220333333332,-0.1112802072222222,0.43488311,-0.0273269308888888,0.0411388635555555,0.2895500777777778
208,1778412944640,1.12649868,-0.0828950852,0.437793834,-0.056579728,0.13812783,0.26274067
209,1778412944650,1.1227315555555557,-0.0695365753333333,0.4235477555555555,-0.0837963655555555,0.1922981122222222,0.1812180143333333
210,1778412944660,1.1104813777777778,-0.0558772455555555,0.45163884,-0.1007643456666666,0.2067972533333333,-0.0690257373333333
211,1778412944670,1.1133271,-0.05506419,0.36553964,-0.0608556569999999,0.1802763,-0.15454435
212,1778412944680,1.125739811111111,-0.0975090726666666,0.4485559833333334,-0.0506748723333333,0.0438537423333333,-0.1968964366666666
213,1778412944690,1.1018901444444442,-0.1286931448888889,0.4909873166666667,-0.0559688827777777,0.0256640687777777,-0.2145431344444444
214,1778412944700,1.0882952,-0.135709138,0.481564686,-0.072217422,0.03214583617,-0.229983994
215,1778412944710,1.074781588888889,-0.1118188526666666,0.5124181111111111,-0.0988639366666666,0.0021803853666666,-0.2959215577777778
216,1778412944720,1.0027719,-0.081681594,0.5920162,-0.06513159,0.0031305922,-0.38239038
217,1778412944730,0.9353933622222222,-0.0573746221111111,0.5577527066666668,0.0125138837777777,0.0215917538,-0.4138829577777778
218,1778412944740,0.84291506,-0.027013771,0.4475566,0.08880192,0.07459972,-0.35612395
219,1778412944750,0.8197977999999999,-0.0485333196,0.442196506,0.105783476,0.09891144,-0.249225672
220,1778412944760,0.8945034066666666,-0.0962352866666666,0.51321083,0.1130321999999999,0.1042597488888888,-0.0181727044444444
221,1778412944770,0.9556654999999998,-0.10729284,0.54981863,0.12300937,0.09048175,0.07215633
222,1778412944780,0.960662716,-0.077800269,0.6483792559999999,0.143228416,-0.012384929,0.117114694
223,1778412944790,0.9029761,-0.0315126803333333,0.5862672888888888,0.1618999799999999,-0.0840848284444444,0.1354808311111111
224,1778412944800,0.88878661,-0.0414780285,0.5848420599999999,0.18861436,0.0311379384,0.135562276
225,1778412944810,0.8782321999999999,-0.0486410486666666,0.6890747,0.2742958811111111,0.3060514477777778,0.1598468477777778
226,1778412944820,0.7877594,-0.03872177,0.6713501,0.33741677,0.44484952,0.19615832
227,1778412944830,0.69684251,0.0151929585,0.731573185,0.363316674,0.3455257539999999,0.4507594679999999
228,1778412944840,0.6390718777777777,0.0703157522222222,0.7701974033333333,0.3570995999999999,0.2982461766666666,0.5833676311111111
229,1778412944850,0.6833021,0.08744413,0.80751663,0.31909135,0.26403874,0.65368295
230,1778412944860,0.756644792,0.0710224399,0.907336485,0.357880132,0.370509402,0.580136926
231,1778412944870,0.84315896,0.032044552,1.0789044,0.4766899299999999,0.5376983,0.4398864
232,1778412944880,0.8724492533333333,0.0237513853333333,1.1307976,0.6162346055555555,0.7174231444444444,0.3505669466666666
233,1778412944890,0.96905042,0.040291986,1.21397029,0.908497865,1.1604571099999998,0.1623784696
234,1778412944900,0.951214022222222,0.0451110321111111,1.1798791666666668,1.0081270833333331,1.4690367333333334,0.07867204
235,1778412944910,0.88089894,0.0433592359,1.09683227,0.88388071,1.356600126,0.13580662
236,1778412944920,0.8607514,0.02643447,1.0908563,0.66544175,0.98667103,0.25357798
237,1778412944930,0.84137018,0.0443013633333333,1.061535477777778,0.3904247144444445,0.5768604033333333,0.3799554911111111
238,1778412944940,0.8248651600000001,0.06671121,1.0913442,0.08428164828,0.364462012,0.455524084
239,1778412944950,0.8631262533333334,0.0927967433333333,1.183656466666667,-0.0195980160444444,0.3277704488888889,0.4578045733333333
240,1778412944960,1.0090527555555555,0.1954992144444444,1.3790980666666668,-0.2184627333333333,0.1922217544444444,0.37371126
241,1778412944970,0.9070956,0.08183405,1.3148938,-0.22769332,-0.16240901,0.23525254
242,1778412944980,1.0228137555555556,-0.09743116,0.8048064333333333,-0.3417181288888888,-1.3664568233333334,0.2632157844444445
243,1778412944990,1.0716784233333334,-0.1583019133333333,0.7382849333333333,-0.4232323011111111,-1.8187553000000003,0.2251396377777778
244,1778412945000,0.962507376,-0.15557004,0.8716057599999999,-0.4913960899999999,-1.49430038,0.1470462065
245,1778412945010,0.7934643444444445,-0.1566215955555555,0.6173564555555555,-0.5565327999999999,-0.67959302,0.0910925986666666
246,1778412945020,0.77068526,-0.17244908,0.54859906,-0.5593834,-0.2405974599999999,0.088649206
247,1778412945030,0.8517021320000001,-0.219415232,0.285022728,-0.650888296,-0.152085692,0.2220582482
248,1778412945040,0.8328331666666666,-0.23908915,0.20229839,-0.7207149055555555,-0.1892184133333333,0.3537569211111111
249,1778412945050,0.8250820333333333,-0.1925484944444444,0.2030572477777777,-0.7744016,-0.2851893,0.473483
250,1778412945060,0.776057456,-0.125842702,0.268229058,-0.983128128,-0.399845354,0.635418566
251,1778412945070,0.70650464,-0.13683724,0.34919718,-1.1512944,-0.5570164,0.76363546
252,1778412945080,0.7380715355555556,-0.2257652066666667,0.4967125511111111,-1.2321976444444445,-0.8268751044444443,0.8638143933333333
253,1778412945090,0.83843918,-0.2795407,0.5151032,-1.17414006,-1.059743656,0.797965038
254,1778412945100,0.9481854166666668,-0.3085545833333333,0.1935885333333333,-1.05518775,-1.3773842666666667,0.46757813
255,1778412945110,0.9748841,-0.3354870466666667,0.020397531,-0.8656214833333333,-1.4893729,0.1269035186666666
256,1778412945120,1.0913746,-0.24519724,-0.009055407,-0.72186875,-1.4299171,-0.032374904
257,1778412945130,1.0380585111111111,-0.2021256111111111,0.0893785245555555,-0.519610441111111,-1.1475699511111113,-0.229203468
258,1778412945140,0.9700566,-0.19540773,-0.026373489,-0.23319094,-0.86427253,-0.42453885
259,1778412945150,0.999912035,-0.227632176,-0.2104878909,-0.0450957994,-0.8793604440000001,-0.523984779
260,1778412945160,0.96786135,-0.29129747,-0.60232174,0.0427847606666666,-0.8790007444444444,-0.8296663244444444
261,1778412945170,0.9753617411111112,-0.3333798788888888,-0.631462971111111,-0.01137703,-0.7873058,-1.0567658
262,1778412945180,0.891241015,-0.23187329,-0.7929274000000001,-0.0923982861999999,-0.7468066099999999,-1.18064561
263,1778412945190,0.8132859433333333,-0.1695152986666666,-0.8380028555555555,-0.1879797666666666,-0.79640059,-1.263842988888889
264,1778412945200,0.7548306,-0.114854254,-0.7207128,-0.1830251,-0.87893283,-1.2003149
265,1778412945210,0.6212374580000001,-0.140703336,-0.87659687,-0.09982771,-0.8355627200000001,-0.8777874999999999
266,1778412945220,0.7274814,-0.22321424,-0.90325385,-0.04008685,-0.80990714,-0.74034685
267,1778412945230,0.8783845666666666,-0.23208671,-1.0050179833333333,0.0383052155555555,-0.6685977933333334,-0.57480726
268,1778412945240,1.08732874,-0.204033245,-0.99986324,0.285922335,-0.548220128,-0.2167896879999999
269,1778412945250,1.136770322222222,-0.17057906,-0.9070142555555556,0.6016421322222222,-0.4677647555555555,0.0521425988888888
270,1778412945260,1.1819795,-0.1747358033333333,-0.8367053466666667,1.1095277,-0.3328354,0.4441623
271,1778412945270,1.2670861,-0.21150625,-0.78757644,1.4271683,-0.06100837,0.6585697
272,1778412945280,1.2683870333333334,-0.25185415,-0.8925012333333334,1.5846311333333334,0.0333335966666666,0.7257629222222222
273,1778412945290,1.2456722666666666,-0.18798861,-0.7034556666666667,1.763609288888889,0.0503694483777777,0.6513752911111111
274,1778412945300,1.24334696,-0.074784855,-0.581552226,1.6489058,-0.09491039115,0.335736915
275,1778412945310,1.2075230111111113,0.1106500888888888,-0.5216395244444444,1.4731854444444443,-0.2946235022222222,-0.0019258633333333
276,1778412945320,1.1899475,0.16433886,-0.5535384,1.364251,-0.42324078,-0.18386503
277,1778412945330,1.08459992,0.1467890528,-0.571612608,1.134328092,-0.597210108,-0.405480418
278,1778412945340,0.9847221,0.055247124,-0.58110094,0.78944373,-0.8581641,-0.7379035
279,1778412945350,0.960056,-0.05213719,-0.60405964,0.6482701566666668,-0.9537277,-0.8579010111111111
280,1778412945360,0.851080136,-0.187334098,-0.6424094300000001,0.4126731419999999,-1.03298857,-1.02536826
281,1778412945370,0.7580692888888889,-0.2275776411111111,-0.6524804788888888,0.2288895633333333,-0.9204704666666668,-1.0298885
282,1778412945380,0.7000679555555557,-0.2484867222222222,-0.5796408666666667,0.1531445,-0.7311078333333333,-0.8991671666666667
283,1778412945390,0.6751826910000001,-0.26754,-0.50470018,0.1621036,-0.5796177,-0.7818845
284,1778412945400,0.6919407733333334,-0.2806464533333333,-0.49316905,0.2278035999999999,-0.3239441722222222,-0.5498304033333334
285,1778412945410,0.68997588,-0.2856331911111111,-0.4601860722222223,0.2607214799999999,-0.2231543788888889,-0.3960326488888889
286,1778412945420,0.71504176,-0.2666619,-0.3931937,0.262832308,-0.197410554,-0.24629361
287,1778412945430,0.77118318,-0.2350848566666666,-0.39286846,0.1763566955555555,-0.2916371611111111,-0.038398534
288,1778412945440,0.8351706866666667,-0.2148126633333333,-0.3830575866666666,0.10651649,-0.38475743,0.058106847
289,1778412945450,0.905534536,-0.19365155,-0.33212913,-0.1221847171999999,-0.719135208,0.30256793
290,1778412945460,0.92347188,-0.1807659766666666,-0.2826316455555556,-0.19104247,-0.8023054588888888,0.3741185044444444
291,1778412945470,0.9620073,-0.14830133,-0.24504478,-0.25518143,-0.80502033,0.4441623
292,1778412945480,1.00564706,-0.104490855,-0.181038007,-0.29769641,-0.634593972,0.439764204
293,1778412945490,1.0222852,-0.08729168,-0.17135146,-0.30649263,-0.51670045,0.41361994
294,1778412945500,1.0466972,-0.0716606866666666,-0.15492774,-0.27730769,-0.2932660717777777,0.3162916
295,1778412945510,1.0888348799999998,-0.0492589736,-0.178772629,-0.23978809,-0.0751800276,0.16439427
296,1778412945520,1.1005012,-0.0620090406666666,-0.2124683555555555,-0.22117761,-0.0799446366666666,0.0748033381666666
297,1778412945530,1.0786606,-0.0879421233333333,-0.2222792266666666,-0.2055501033333333,-0.1227039433333333,-0.0025876165
298,1778412945540,1.0615864,-0.10826851,-0.23431244,-0.18363595,-0.1440836,-0.043981
299,1778412945550,1.0601770333333334,-0.0749535577777777,-0.2421448855555555,-0.1687720133333333,-0.13960405,-0.0989572533333333
300,1778412945560,1.0364629,-0.06335735,-0.2226044399999999,-0.1522112677777777,-0.10716127,-0.1355402166666666
301,1778412945570,1.04743912,-0.06809544,-0.191742902,-0.1207186899999999,-0.05612159,-0.15454435
302,1778412945580,1.0504474333333331,-0.0916821766666666,-0.2014446866666666,-0.0609913995555555,0.0587855637777777,-0.1601777233333333
303,1778412945590,1.0545127,-0.09509701,-0.2099208,-0.035200074,0.088649206,-0.15882029
304,1778412945600,1.0463079700000002,-0.1035853109999999,-0.200856236,-0.0027029987999999,0.0884048675999999,-0.161508014
305,1778412945610,1.0268925111111111,-0.1141767166666666,-0.1857425422222222,0.0425132713666666,0.0675410424444444,-0.1630962222222222
306,1778412945620,1.0221496888888888,-0.1113852237777777,-0.1650638366666666,0.096132085,0.022066858,-0.1692047
307,1778412945630,1.01121148,-0.1115369904,-0.165009626,0.149520137,0.0080173704,-0.195348954
308,1778412945640,0.9917618,-0.1005444849999999,-0.1732756855555555,0.1869447155555555,0.0132435084999999,-0.2194977844444444
309,1778412945650,0.9526030277777776,-0.07524491,-0.1829239533333333,0.20119782,0.016569233,-0.2351761899999999
310,1778412945660,0.93300572,-0.0692113602,-0.171790518,0.25287549,0.0420415625,-0.2430561249999999
311,1778412945670,0.9239564,-0.067503944,-0.17964463,0.28793812,0.069712944,-0.2443389
312,1778412945680,0.9218424233333332,-0.0934709,-0.18200248,0.3232315244444445,0.1384162902222222,-0.2382304311111111
313,1778412945690,0.923614856,-0.10090223,-0.200188506,0.381519916,0.2470571719999999,-0.215629082
314,1778412945700,0.9422772111111112,-0.1128487266666666,-0.2296509422222222,0.4439077933333333,0.32600578,-0.1716480811111111
315,1778412945710,0.953497388888889,-0.116859802,-0.2308434244444444,0.4726176088888889,0.3624530011111111,-0.1496575877777778
316,1778412945720,0.951275032,-0.117878835,-0.235824728,0.483897916,0.4121081,-0.13182085
317,1778412945730,0.9969585377777778,-0.1014930544444444,-0.2868256777777777,0.47261762,0.4440350466666666,-0.1109705866666666
318,1778412945740,1.0217974,-0.09119435,-0.31654286,0.4510343399999999,0.43751934,-0.10934166
319,1778412945750,1.03194741,-0.079461958,-0.3481697,0.405220792,0.370203976,-0.1270562304
320,1778412945760,1.0340238,-0.07314452,-0.37392426,0.38139775,0.3232909,-0.13255386
321,1778412945770,1.0300906,-0.0670161,-0.41295093,0.30870694,0.2353289099999999,-0.12644538
322,1778412945780,1.02540739,-0.073806135,-0.439708573,0.220622758,0.156529609,-0.1018893209999999
323,1778412945790,1.0217974,-0.084364675,-0.43664134,0.14744325,0.09292514,-0.07818845
324,1778412945800,1.0152388,-0.0865057227777777,-0.4282499155555556,0.0948425196666666,0.0822692455555555,-0.0545690219999999
325,1778412945810,1.0328072499999998,-0.075257438,-0.435836421,0.0686439598,0.0738056186,-0.0416597824
326,1778412945820,1.048008388888889,-0.0647937518888888,-0.4337922555555555,0.053169165,0.0558670706666666,-0.0447954646666666
327,1778412945830,1.034287966666667,-0.0508091994444444,-0.4230396066666667,0.0271063469999999,0.0569530222222222,-0.0591843144444444
328,1778412945840,1.0249684,-0.050429773,-0.43786094,0.010002624,0.07215633,-0.06963659
329,1778412945850,1.0106856444444443,-0.0593225677777777,-0.4611684977777778,-0.0455166046666666,0.0870202842222222,-0.0857222344444444
330,1778412945860,0.9978394177777778,-0.0866683355555555,-0.4721718311111111,-0.12071869,0.085594974,-0.09162709
331,1778412945870,0.98960036,-0.09143826,-0.4754240799999999,-0.185247062,0.1088071734999999,-0.071835635
332,1778412945880,0.9883808222222225,-0.0920345044444444,-0.4100747477777777,-0.2532131533333333,0.1218385844444444,-0.0265973108888888
333,1778412945890,1.0254562,-0.0831451,-0.35584393,-0.2765611,0.08926006,0.034283802
334,1778412945900,1.04284744,-0.088803964,-0.334769538,-0.268925512,-0.02142546625,0.0945744314
335,1778412945910,1.0323875,-0.0942839566666666,-0.3193377333333333,-0.2405211133333333,-0.16037286,0.14688332
336,1778412945920,1.0197242000000002,-0.1052195549999999,-0.3327938,-0.2106812199999999,-0.200281548,0.15755278
337,1778412945930,1.026431877777778,-0.1146374511111111,-0.35628434,-0.1807853355555555,-0.2165707988888889,0.1599825933333333
338,1778412945940,1.0247245,-0.12241568,-0.40051118,-0.1750841,-0.22227205,0.1466797
339,1778412945950,1.00130848,-0.135020072,-0.417780488,-0.189019054,-0.219767565,0.138616521
340,1778412945960,0.9502994,-0.14415476,-0.51204205,-0.23196925,-0.2192178,0.15400986
341,1778412945970,0.9606556311111112,-0.1604971711111111,-0.4897575688888889,-0.2636654266666666,-0.2547148211111111,0.1814301177777778
342,1778412945980,0.997356908,-0.164229101,-0.371671078,-0.31907606,-0.398257135,0.242888142
343,1778412945990,0.97618496,-0.14561825,-0.32998878,-0.3242072,-0.4012503,0.26212984
344,1778412946000,0.9673870455555555,-0.1126624044444444,-0.2593511777777778,-0.27662896,-0.2184712135555555,0.2864958544444445
345,1778412946010,0.98735642,-0.072720707,-0.2310195629999999,-0.205198864,-0.0566102680179999,0.288884944
346,1778412946020,0.9835229,-0.0543324366666666,-0.2651340166666667,-0.1679575433333333,0.0077458819199999,0.2716997822222222
347,1778412946030,0.9715445,-0.041282896,-0.3197717,-0.118519639,0.0652537536,0.201106184
348,1778412946040,0.970141241111111,-0.0499690417777777,-0.3302597855555556,-0.1203114555555555,0.0614325684444444,0.1563175077777777
349,1778412946050,0.9666620466666668,-0.0510802173333333,-0.3389323866666667,-0.2370087399999999,0.1395786,0.0609574666666666
350,1778412946060,0.95125061,-0.05711309,-0.34028207,-0.395065472,0.211017182,0.0237772288
351,1778412946070,0.9572916,-0.0451449116666666,-0.34730687,-0.5701749911111111,0.1717159533333333,0.0607538508888888
352,1778412946080,0.9572916222222224,-0.0654848501111111,-0.2886855522222222,-0.68705046,0.066658705,0.123467505
353,1778412946090,0.9690809,-0.077291094,-0.22089703,-0.76829314,-0.0988809,0.26151899
354,1778412946100,1.0193921444444445,-0.0691910277777777,-0.1810065,-0.76965058,-0.2571582244444444,0.3782586855555555
355,1778412946110,1.096009,-0.0567716059999999,-0.16037522,-0.7585196,-0.5057052,0.5070796
356,1778412946120,1.0969304777777775,-0.0715522791111111,-0.1510149133333333,-0.7379543888888889,-0.5490074733333333,0.4926907444444444
357,1778412946130,1.0860287888888889,-0.1160535188888889,-0.1441445844444444,-0.6377754333333333,-0.5251165533333333,0.3664489666666666
358,1778412946140,1.0681721,-0.13220283,-0.15061855,-0.5978668,-0.41774318,0.2761793
359,1778412946150,1.0334444666666665,-0.15602536,-0.16915621,-0.5612837844444445,-0.2568188544444444,0.1481050022222222
360,1778412946160,0.9881063777777778,-0.1850006311111111,-0.1931142388888888,-0.5483881,-0.16301987,0.06299362
361,1778412946170,0.93921939,-0.198136555,-0.199282974,-0.55620699,-0.0855644275,0.0366661065
362,1778412946180,0.8537015666666667,-0.1851056522222222,-0.192128422,-0.523682768888889,0.0475188277777777,0.0705952801111111
363,1778412946190,0.8573061,-0.18415709,-0.109366134,-0.47142136,0.07459972,0.114304796
364,1778412946200,0.933519922222222,-0.15019847,-0.0081915328888888,-0.3300441588888889,0.2189293611111111,0.1457973613333333
365,1778412946210,0.9812259733333334,-0.1313084733333333,0.0602575833333333,-0.21539153,0.3735840144444444,0.1317478733333333
366,1778412946220,0.983404988,-0.1390812819999999,0.1047683069999999,-0.1392884499999999,0.501352883,0.0762413755
367,1778412946230,0.9538056733333332,-0.1655381133333333,0.0794456866666666,0.10162971,0.8814016333333332,-0.0924415566666666
368,1778412946240,0.9109983,-0.1829375,-0.02856874,0.18103985,1.0092723,-0.14049487
369,1778412946250,0.907071258,-0.184986407,-0.157051857,0.205595912,0.949164984,-0.14709202
370,1778412946260,0.9114150266666664,-0.16732684,-0.1849396633333333,0.2374414155555555,0.7941184088888888,-0.1353366044444444
371,1778412946270,0.9219440666666668,-0.1088816893333333,-0.1259795744444444,0.3086390555555555,0.3268202433333333,-0.0648855584444444
372,1778412946280,0.9131936,-0.034087352,-0.10985397,0.31176118,0.2936648149999999,-0.0607793015
373,1778412946290,0.9131936,-0.034087352,-0.10985397,0.29587916,0.35077903,-0.06902574
374,1778412946300,0.8756608800000001,-0.0279894384,-0.0241965352,0.268207763,0.637388557,-0.086618139
375,1778412946310,0.9111608555555556,-0.0243781177777777,0.0106273141111111,0.2625540277777778,0.8304977666666666,-0.1020114922222222
376,1778412946320,0.9093213555555556,-0.0127310955555555,0.0720367222222222,0.2713773822222222,0.9098400422222224,-0.1161967211111111
377,1778412946330,0.920883,-0.0420390392,0.0482955,0.249576924,0.974881698,-0.110380104
378,1778412946340,0.9261516,-0.043356188,0.061467,0.20425205,0.9359707,-0.10567658
379,1778412946350,0.909053672222222,-0.0524624117777777,0.0360454632222222,0.1700446033333333,0.8109506333333334,-0.1146356733333333
380,1778412946360,0.91062017,-0.05477149,0.0543568302,0.12820157,0.65467555,-0.119726065
381,1778412946370,0.9623393444444444,-0.0372311708888888,0.1032241788888888,0.0672186493333333,0.553987581111111,-0.1282100513333333
382,1778412946380,1.02707208,-0.0215012544,0.167143892,-0.0527924748,0.70482613,-0.2017017619999999
383,1778412946390,1.0462196,-0.029696856,0.1437279,-0.10850175,0.77715045,-0.26083177
384,1778412946400,1.0506101333333335,-0.041513264,0.1956753711111111,-0.12927055,0.7400923833333333,-0.3325045166666667
385,1778412946410,1.0357312,-0.06530869,0.21156722,-0.13293563,0.7044596,-0.40193748
386,1778412946420,1.0230441555555556,-0.06663668,0.1843535655555555,-0.0930948188888888,0.5559558533333333,-0.4187018622222223
387,1778412946430,1.0238605,-0.0547660659999999,0.16448453,-0.0725296294444444,0.3642176822222222,-0.4292898777777778
388,1778412946440,1.0364629,-0.066040434,0.13150157,-0.07185091,0.28786176,-0.4306473
389,1778412946450,0.9920463411111112,-0.0653256304444444,0.074404746,-0.1650135977777777,0.1274380046666666,-0.4132720933333333
390,1778412946460,0.935832013,-0.02069328125,0.0867428656,-0.31504446,-0.13064496,-0.37078428
391,1778412946470,0.8779780666666667,0.0147264686666666,0.1959464,-0.3846131888888889,-0.3578122655555555,-0.2831616466666666
392,1778412946480,0.8306379333333332,0.04002266,0.2062722099999999,-0.4089113333333333,-0.5122208733333333,-0.1635034533333333
393,1778412946490,0.8416954000000001,0.07110171,0.07658983,-0.4072824,-0.5386909,-0.0775776
394,1778412946500,0.8546907888888888,0.061741408,0.0683508711111111,-0.46225866,-0.51405341,0.0069738393333333
395,1778412946510,0.8526717,0.037166804,0.0658575,-0.5266691144444445,-0.4455706488888889,0.0800973444444444
396,1778412946520,0.8722154999999999,0.016799761,0.1216382,-0.5884597140000001,-0.2432851839999999,0.075943584
397,1778412946530,0.8746547,0.008384636,0.15202107,-0.5932514788888889,-0.0848314155555555,0.0509802955555555
398,1778412946540,0.94433253,-0.0232086699999999,0.157289663,-0.57831967,-0.07505786,0.047722444
399,1778412946550,1.003805188888889,-0.0383423444444444,0.1750813577777777,-0.439860941111111,-0.1114372075555555,0.0075422671111111
400,1778412946560,1.0628059,-0.05286894,0.13711166,-0.3666271466666667,-0.0573432846666666,-0.023067967
401,1778412946570,1.07833122,-0.0529665052,0.195346772,-0.3852919039999999,-0.041705597,-0.0447140182
402,1778412946580,1.0894199333333334,-0.050809196,0.2877031055555555,-0.4020562522222222,-0.0390857393333333,-0.0490035244444444
403,1778412946590,1.0562202,-0.03237994,0.33651355,-0.3523061466666666,-0.0512348123333333,-0.0376689146666666
404,1778412946600,1.069099,-0.0271845133,0.351148536,-0.2718575689999999,-0.0783564329,-0.0433701548
405,1778412946610,1.0440481555555556,-0.0294529391111111,0.3515042488888889,-0.2079340988888888,-0.1471378366666666,-0.0719442322222222
406,1778412946620,1.0032598,-0.027501604,0.37386328,-0.1710117711111111,-0.2553256711111111,-0.1000432044444444
407,1778412946630,0.949845048,-0.0320140642,0.2419836269999999,-0.179932688,-0.216346832,-0.138784497
408,1778412946640,1.0570332,-0.0807669113333333,0.2803822066666666,-0.2224671777777778,-0.2097836222222222,-0.1478250366666666
409,1778412946650,1.16881822,-0.13706288,0.4147558919999999,-0.1882020419999999,-0.220195164,-0.230411584
410,1778412946660,1.1369871,-0.197603,0.5207621,-0.1225512299999999,-0.20516832,-0.31580803
411,1778412946670,1.0517382,-0.2298812933333333,0.4298218266666667,-0.0180284788888888,-0.1932228622222222,-0.3925032988888889
412,1778412946680,1.03410296,-0.209932984,0.23601376,0.13278292,-0.1367534246,-0.502727292
413,1778412946690,1.0549395933333334,-0.1722830811111111,0.1798614422222222,0.15199068,-0.0190635244444444,-0.5516629666666666
414,1778412946700,0.9160799133333334,-0.1302243944444444,0.2588057611111111,0.1492758,0.042835664,-0.5522059
415,1778412946710,0.6833021,-0.13220283,0.24815473,0.17737478,-0.043904647,-0.4245388500000001
416,1778412946720,0.70725335,-0.1094101813333333,0.2494827144444444,0.1271495542222222,-0.0611441112222222,-0.1790970233333333
417,1778412946730,0.7796704999999999,-0.069598572,0.2495694399999999,0.024357535,-0.0578319633,0.128171028
418,1778412946740,0.8216943,-0.051649354,0.2540087,-0.027869906,-0.04573719,0.24197187
419,1778412946750,0.8553141444444444,-0.0373870044444444,0.2600862955555555,-0.0668962604444444,0.008560345,0.3108618644444444
420,1778412946760,1.01776057,0.0296053866,0.273333024,-0.0758825019999999,0.1028819519,0.41557467
421,1778412946770,1.0701674222222222,0.0348800847777777,0.2850437277777777,-0.0632990467777777,0.1416571833333333,0.4609266822222222
422,1778412946780,1.0874516666666667,-0.027969112,0.3016842733333333,-0.0711721907777777,0.1522451866666666,0.5240475811111112
423,1778412946790,1.1279712700000002,-0.062098137,0.250654872,-0.12035218,0.141304242,0.521251264
424,1778412946800,1.1684828,-0.0689064616666666,0.1914644166666666,-0.1883445733333333,0.16744851,0.5023964399999999
425,1778412946810,1.2016554,-0.059942525,0.21181113,-0.2148655199999999,0.15034479,0.48814332
426,1778412946820,1.1890700666666667,-0.0499690394444444,0.2598898288888888,-0.1779856199999999,0.1584894133333333,0.4644560066666666
427,1778412946830,1.1572626666666668,-0.0575135166666666,0.2594053899999999,-0.1338858411111111,0.1515664717777777,0.4546145911111111
428,1778412946840,1.19322822,-0.0894869319999999,0.2741379539999999,-0.09750649,0.024510246,0.4942517999999999
429,1778412946850,1.2910781222222223,-0.1334529155555555,0.30347301,-0.1135242666666666,0.0381525033333333,0.43031643
430,1778412946860,1.3554145,-0.15415533,0.29550505,-0.14393088,0.16195089,0.31954947
431,1778412946870,1.31153993,-0.1246810542,0.342404128,-0.1085628255,0.279119022,0.1725796221
432,1778412946880,1.201699511111111,-0.0965605122222222,0.3980923222222222,0.0246629566666666,0.3925202666666666,0.0428356626666666
433,1778412946890,1.1489694,-0.10753676,0.3728876,0.1201587466666666,0.3112775866666666,0.0880383593333333
434,1778412946900,1.06292791,-0.15237779,0.4099477099999999,0.162225768,0.2015948659999999,0.1724574499999999
435,1778412946910,1.0088190666666668,-0.2101511466666666,0.3055632244444444,0.16271444,0.14240377,0.23647425
436,1778412946920,1.05095156,-0.221945884,0.398151268,0.1085322868,0.157514606,0.2103299809999999
437,1778412946930,1.0469513,-0.1697761633333333,0.4548740766666666,0.0760419991111111,0.3078839977777778,0.1031059317111111
438,1778412946940,1.0363206555555555,-0.1125980366666666,0.4786695122222222,0.1134394266666666,0.5150969466666666,-0.0376180082
439,1778412946950,0.98768566,-0.05667404,0.5220731479999999,0.18226155,0.59633962,-0.1078145374999999
440,1778412946960,0.96542215,-0.04481969,0.59030885,0.20669544,0.5700732,-0.098957255
441,1778412946970,0.8775986444444445,-0.0284501695555555,0.6542556666666667,0.23913822,0.5399380666666667,-0.0148384974444444
442,1778412946980,0.7885063800000001,-0.049713267,0.76249877,0.271689596,0.51851768,0.1077076402
443,1778412946990,0.7437967555555556,-0.0774266062222222,0.8423492911111111,0.28305134,0.5144861,0.18210883
444,1778412947000,0.714066,-0.080462016,0.9314873,0.3163085966666667,0.6095067988888888,0.2300942811111111
445,1778412947010,0.786536736,-0.0745348356,0.8974609100000001,0.366493073,0.760352137,0.259747532
446,1778412947020,0.8624961222222223,-0.0333962583555555,1.0911138444444444,0.5062820822222222,1.031330761111111,0.2085788911111111
447,1778412947030,0.904424768,0.02712963162,1.23305364,0.682789776,1.17346812,0.19212673
448,1778412947040,0.9242816,0.0903812923333333,1.4395250333333331,0.7983349244444445,1.135989211111111,0.2021989199999999
449,1778412947050,0.9439676633333334,0.11024018,1.517202333333333,0.929870698888889,1.2394939111111112,0.2214066766666666
450,1778412947060,0.99764967,0.10308529,1.5518588,1.0343934,1.3739482,0.2370850899999999
451,1778412947070,1.1923425966666668,0.0864176457777777,1.5788692444444443,1.2291858444444443,1.2293810444444444,0.1406899997777777
452,1778412947080,1.2463430000000002,0.0593835449999999,1.5913123666666664,1.3984584333333332,0.7352734888888889,-0.0196828564444444
453,1778412947090,1.2121744,0.1002650035,1.7504069999999998,1.52685854,0.3075081699999999,-0.0963306116
454,1778412947100,1.2192480111111113,0.1802205533333333,1.8740423111111109,1.6991309888888888,-0.1157131377777777,-0.2079595477777777
455,1778412947110,1.2329073,0.19604802,1.9601448,1.7979525,0.11125056,-0.31764057
456,1778412947120,1.2329073,0.19604802,1.9601447999999997,1.7979525000000005,0.11125056,-0.31764057
457,1778412947130,1.2329073,0.19604802,1.9601448,1.7979525,0.11125056,-0.31764057
458,1778412947140,0.65026966,0.0474234968,1.2023811800000002,1.3358465899999998,0.4844247719499999,-0.149222348
459,1778412947150,0.6809442,0.1090917266666666,1.1068125666666666,1.0631032777777778,-0.1920690447222222,0.2611796288888889
460,1778412947160,0.786052,0.09768862,1.0698795,1.0142355,-0.4452312999999999,0.35009184
461,1778412947170,0.7786125,0.174924837,0.298611953,0.7637881200000001,-0.94722554,0.319610546
462,1778412947180,0.7928139066666666,0.1590675422222222,-0.24420803,0.4198811333333333,-1.3690359333333333,0.15337356
463,1778412947190,0.7428685444444444,0.0885586917777777,-0.4281720255555555,0.1231451088,-1.6158182888888888,-0.1294317466666666
464,1778412947200,0.60756592,0.0022318371999999,-0.366210404,-0.0154697063599999,-1.3665111099999998,-0.373716342
465,1778412947210,0.4421904,-0.04481969,-0.32657394,-0.11277767,-0.79036,-0.55403847
466,1778412947220,0.358950813,-0.117281233,-0.4719574039999999,-0.406114153,-0.223615904,-0.523923697
467,1778412947230,0.4262240388888889,-0.1535319933333333,-0.5704397888888889,-0.7636099599999999,0.0045559023333333,-0.3933856466666666
468,1778412947240,0.6360770888888889,-0.1979959722222222,-0.5833064000000001,-1.1810222666666668,-0.0760759353333333,-0.2125748433333333
469,1778412947250,0.6705056,-0.237053471,-0.47438743,-1.4435848,-0.172793419,-0.0792650658
470,1778412947260,0.7123586,-0.25227082,-0.4024625,-1.5697248,-0.16851749,0.020845164
471,1778412947270,0.7669993777777777,-0.2302674977777777,-0.4210374455555555,-1.7182285666666666,-0.1859605733333333,0.2224926422222222
472,1778412947280,0.7948909200000001,-0.277427771,-0.2841263539999999,-1.82078295,-0.12471974,0.396882738
473,1778412947290,0.9119299666666666,-0.3577613866666667,-0.2822522533333333,-1.8023896777777777,-0.1642415622222222,0.4924192355555555
474,1778412947300,1.17790106,-0.415880978,-0.2056156509,-1.61285056,-0.216652258,0.4927857399999999
475,1778412947310,1.251689,-0.4367633,0.010945761,-1.4475553,-0.1349209,0.42278266
476,1778412947320,1.3033619444444444,-0.3385461822222222,-0.0022968813333333,-0.9788997222222224,-0.1239935088888888,0.2476052333333333
477,1778412947330,1.276111,-0.31376833,0.033416584,-0.4393137,-0.420186565,0.0565415494999999
478,1778412947340,1.2040539666666663,-0.3353142866666667,-0.0907674888888889,-0.1854685,-0.65780616,-0.015271181
479,1778412947350,1.2906443333333333,-0.2890378644444444,-0.1124455877777777,0.2178943033333333,-0.6248203866666666,-0.2756957333333333
480,1778412947360,1.3193147,-0.2366296499999999,-0.23089762,0.3465183779999999,-0.435091231,-0.414459865
481,1778412947370,1.406037311111111,-0.1910748244444444,-0.4129272066666666,0.55487835,-0.2338781499999999,-0.53815645
482,1778412947380,1.39858771,-0.104396336,-0.694949072,0.671061514,-0.199548522,-0.602173218
483,1778412947390,1.3101611666666666,-0.0963504788888889,-0.7503825111111112,0.7241509666666667,-0.1725219266666666,-0.6314803388888889
484,1778412947400,1.1907131333333334,-0.16515531,-0.7383391666666667,0.849442511111111,-0.1846031333333333,-0.5921824777777779
485,1778412947410,1.3041614,-0.12046435,-0.9381341,0.9091698,-0.11781716,-0.5210527
486,1778412947420,1.2474846777777775,-0.1464990666666666,-1.0955449888888888,0.9200971766666668,-0.1650560144444444,-0.5141297633333334
487,1778412947430,1.1966145,-0.1260947533333333,-1.0830306333333335,0.93686154,-0.2817278433333333,-0.3891096966666667
488,1778412947440,1.15331727,-0.0835353608,-1.03467625,0.8731298000000001,-0.143594923,-0.265901815
489,1778412947450,1.0405688222222222,-0.0932811911111111,-0.9040432888888889,0.7617519755555555,-0.1382466088888888,-0.1185043644444444
490,1778412947460,0.9993571,-0.085828185,-0.8315119,0.72408307,-0.19356222,-0.07269082
491,1778412947470,0.91066967,-0.1177541591111111,-0.7391420322222222,0.5180917822222222,-0.5177863899999999,0.0824728622222222
492,1778412947480,0.88977754,-0.1168056,-0.71827364,0.38506284,-0.64864343,0.145458
493,1778412947490,0.812672414,-0.0679948224,-0.6757254070000001,0.0627111079999999,-0.94081169,0.199579078
494,1778412947500,0.8428472933333333,-0.0179075484444444,-0.5406243455555555,-0.2594573666666667,-1.0941546999999998,0.2788263266666667
495,1778412947510,0.86441016,-0.018720604,-0.4939922400000001,-0.39017868,-1.1336561,0.30977592
496,1778412947520,0.8654834040000001,-0.0176443217999999,-0.490013346,-0.4093592819999999,-1.12186676,0.305866496
497,1778412947530,0.8808339799999999,-0.0134967233333333,-0.43467981,-0.5890433888888889,-0.986034788888889,0.2630800288888889
498,1778412947540,0.901290428,-0.0274040395999999,-0.373668138,-0.60641863,-0.830675922,0.231709641
499,1778412947550,0.92515562,-0.0305912173333333,-0.3301412166666667,-0.5561255266666667,-0.65760251,0.2104114333333333
500,1778412947560,0.94566494,-0.028477272,-0.30898145,-0.48974678,-0.55090785,0.19004986
501,1778412947570,0.938127882,-0.0456063212,-0.3373215209999999,-0.316556332,-0.547731448,0.126338489
502,1778412947580,0.9320056,-0.08452729,-0.2916633533333333,-0.0903799453333333,-0.5233518844444444,0.068626992
503,1778412947590,0.9472368,-0.0946091766666666,-0.2988724555555555,-0.0060830198888888,-0.4945063333333333,0.0534236835555555
504,1778412947600,0.97348663,-0.093999385,-0.287638735,0.180306848,-0.38891118,0.0101858786
505,1778412947610,0.98911256,-0.08997476,-0.26824737,0.252509,-0.30534726,-0.014049487
506,1778412947620,1.0126404022222222,-0.0862889077777777,-0.2687894011111111,0.2905172577777778,-0.2060506577777777,-0.0534830715555555
507,1778412947630,1.03323106,-0.0986581916,-0.270088922,0.289037646,-0.0576487102999999,-0.112029388
508,1778412947640,1.0278140666666666,-0.0981866226666666,-0.2339059333333333,0.2317401833333333,0.0291934093333333,-0.13764426
509,1778412947650,1.0061867555555557,-0.0968315288888889,-0.21975876,0.1429637113333333,0.036727192,-0.1260381553333333
510,1778412947660,0.9842341999999998,-0.10509759,-0.22626321,0.068033114,-0.0133622839999999,-0.099568106
511,1778412947670,0.9898646666666664,-0.0829147286666666,-0.1497953277777778,-0.0253586447777777,-0.1372964057777778,-0.03776223905
512,1778412947680,1.0047232999999998,-0.05096639,-0.0990240728,-0.082296396,-0.2190956439999999,0.000748287919
513,1778412947690,1.0038288666666668,-0.0292090213333333,-0.0898426393333333,-0.1135242644444444,-0.2741940711111111,0.0064563163777777
514,1778412947700,1.0067016444444443,-0.0289922066666666,-0.0371227597777777,-0.1213974055555555,-0.2283126388888889,-0.0091966447111111
515,1778412947710,1.0149677,-0.03969744,-0.015153322,-0.10728005,-0.18378867,-0.019547112
516,1778412947720,1.0149677,-0.03969744,-0.015153322,-0.10728005,-0.18378867,-0.019547112
517,1778412947730,1.0458807555555556,-0.0425431344444444,-0.0470149375555555,-0.0489102007777777,-0.0955551766666666,-0.0636638581111111
518,1778412947740,1.0260599,-0.0558447232,-0.0962739079999999,0.0900236156,0.0450347144,-0.1689603519999999
519,1778412947750,1.012095,-0.0427328463333333,-0.1361021066666666,0.1287784786666666,0.0566815362222222,-0.2083667877777777
520,1778412947760,1.005455,-0.033111688,-0.15183812,0.15538427,0.015347538,-0.24494976
521,1778412947770,1.00179622,-0.0178211623,-0.161155743,0.153796069,-0.0244186191999999,-0.270055573
522,1778412947780,1.0069184,-0.013080033,-0.17281497,0.14133479,-0.053678203,-0.2895416
523,1778412947790,1.0204559000000002,-0.0326238535,-0.19307528,0.1117086899999999,-0.0338256665,-0.29534465
524,1778412947800,1.013910833333333,-0.043193576,-0.2188643866666666,0.0894806388888888,-0.0253756131111111,-0.2892701133333333
525,1778412947810,1.0001430666666666,-0.0520287797777777,-0.2268323466666666,0.0786211344444444,-0.0280226181111111,-0.2748133933333333
526,1778412947820,0.977688133,-0.056942346,-0.221872695,0.0631463352,-0.0062764558,-0.22894555
527,1778412947830,0.9488358266666664,-0.06660958,-0.2231735799999999,0.0617210256666666,0.0188090051111111,-0.1921453955555555
528,1778412947840,0.9428192688888888,-0.0709526533333333,-0.2237698355555555,0.0647752644444444,0.0453469243333333,-0.1367619088888888
529,1778412947850,0.95405565,-0.075681246,-0.2248972659999999,0.07475243,0.0657424385,-0.03478011385
530,1778412947860,0.9615195,-0.073632345,-0.21918961,0.07902836,0.058106847,-0.0035887277
531,1778412947870,0.9868292666666666,-0.0609520648888888,-0.1952078666666666,0.1052269211111111,0.0357769853333333,0.0428356636222222
532,1778412947880,0.99803992,-0.054381221,-0.17779086,0.13156123,0.031840414,0.07459972
533,1778412947890,0.9931778666666666,-0.0469336313333333,-0.1918506266666666,0.1722843755555555,0.0343516738888888,0.10575293
534,1778412947900,0.98185912,-0.0446733379999999,-0.2138966309999999,0.190569076,0.01510319856,0.1424037699999999
535,1778412947910,0.971764,-0.047746688,-0.21065253,0.19203511,0.0055739814,0.1698919
536,1778412947920,0.9815681111111112,-0.0449009945555555,-0.2189998988888889,0.1863338666666666,-0.0061678606,0.1950723744444444
537,1778412947930,0.986917406,-0.0366728719,-0.242093391,0.1700446,-0.046348035,0.23769593
538,1778412947940,0.9942077466666668,-0.0242764838888888,-0.2333638777777777,0.17113056,-0.1207356572222222,0.2556141344444444
539,1778412947950,1.0143716111111112,-0.0248727246666666,-0.2421245511111111,0.1784607266666666,-0.1576579788888888,0.2647768388888888
540,1778412947960,1.0252183,-0.0359411216,-0.271125576,0.179207318,-0.174015113,0.25767065
541,1778412947970,1.0395525222222222,-0.048451336,-0.2976122266666666,0.1814470866666666,-0.19274776,0.2397321
542,1778412947980,1.0440243,-0.052381106,-0.32242736,0.17737478,-0.20455748,0.22181392
543,1778412947990,1.0486587200000002,-0.0564301215999999,-0.3162257659999999,0.16027105,-0.19356222,0.2004342499999999
544,1778412948000,1.0894639222222222,-0.0434916967777777,-0.2971650366666666,0.1350226988888888,-0.069356616,0.1876743366666666
545,1778412948010,1.1045461,-0.033843435,-0.29434645,0.1236202099999999,0.0153475379999999,0.18516308
546,1778412948020,1.1014565666666667,-0.0464457983333333,-0.3254254933333333,0.13950224,0.03917058,0.1670412733333333
547,1778412948030,1.0918591666666666,-0.0615415294444444,-0.3563046766666666,0.15782766,0.045279052,0.14851224
548,1778412948040,1.08228262,-0.058625371,-0.335586654,0.181223118,0.0448514587,0.0956128644999999
549,1778412948050,1.0938951,-0.0401039646666666,-0.32037438,0.1809041111111111,0.0864773059999999,-0.0063460238888888
550,1778412948060,1.0989361,-0.032623854,-0.33389142,0.1700446,0.10575293,-0.042759307
551,1778412948070,1.04908564,-0.016696096,-0.3859676419999999,0.0747524303999999,0.133118886,-0.1057987494
552,1778412948080,1.0298467,-0.012104365,-0.40197468,-0.0048613268888888,0.15204158,-0.1323502444444444
553,1778412948090,1.00752836,-0.0235013724,-0.34130345,-0.0607334896,0.169647556,-0.14025053
554,1778412948100,1.008626,-0.042380523,-0.26092985,-0.0846787,0.1906607,-0.14904673
555,1778412948110,1.0082464333333334,-0.0542816244444444,-0.2625288622222222,-0.067032002,0.1614079022222222,-0.1636391866666666
556,1778412948120,0.98606365,-0.08094985,-0.221750745,-0.0199288932,0.139227364,-0.1970593199999999
557,1778412948130,0.9859959,-0.0779415444444444,-0.1711075544444444,0.0177400224444444,0.1813113411111111,-0.2241130733333333
558,1778412948140,0.9899256666666668,-0.07370349,-0.15598471,0.0136677073333333,0.3438561066666666,-0.2473931399999999
559,1778412948150,0.98520995,-0.06579652,-0.176229785,-0.0344670556,0.4981154,-0.240795988
560,1778412948160,0.9826352622222222,-0.0597257055555555,-0.1979146544444444,-0.06452074,0.50288,-0.21807247
561,1778412948170,0.971785402,-0.0584393889999999,-0.235458863,-0.1021489318,0.342578402,-0.155704973
562,1778412948180,0.957589758888889,-0.07374076,-0.2181292555555555,-0.120107844,0.19310409,-0.1007898
563,1778412948190,0.9569934677777776,-0.0794321422222222,-0.1753354244444444,-0.1020539122222222,0.0297363824444444,-0.0561300757777777
564,1778412948200,0.96620268,-0.09202366,-0.177888428,-0.080769278,-0.0773790762,-0.0356734798
565,1778412948210,0.9615195,-0.10607326,-0.18769388,-0.0653352043333333,-0.1544679966666666,-0.0130059563333333
566,1778412948220,0.9250336111111112,-0.0813767033333333,-0.1951807644444444,-0.0559688812222222,-0.2268194544444444,0.0284468185555555
567,1778412948230,0.8929484500000001,-0.03164819,-0.22650711,-0.06452074,-0.29190862,0.076432265
568,1778412948240,0.8785302500000001,-0.0090147535333333,-0.1872771833333333,-0.0905835544444444,-0.2915014044444444,0.1263181199999999
569,1778412948250,0.88206972,-0.0005427145399999,-0.120781434,-0.114182622,-0.1851325373,0.167937174
570,1778412948260,0.8971763488888889,-0.0068601562777777,-0.1374301066666666,-0.1219403853333333,-0.0025706486666666,0.184145
571,1778412948270,0.9099277666666666,-0.0284772705555555,-0.1532880844444444,-0.1249946206666666,0.1391713666666666,0.1890317733333333
572,1778412948280,0.9207854,-0.04311227,-0.13497739,-0.127132591,0.250416837,0.194325786
573,1778412948290,0.9757750666666666,-0.0437627168888888,-0.1042235633333333,-0.1090447177777777,0.3792173644444444,0.1747108055555555
574,1778412948300,1.0026635222222222,-0.0461747825555555,-0.1564556077777777,-0.0801991566666666,0.4902558233333333,0.0908889806666666
575,1778412948310,1.0131384,-0.0568935685,-0.139383133,-0.087855108,0.449980624,0.0532200676
576,1778412948320,1.0120949833333333,-0.0714235466666666,-0.1110464493333333,-0.0681179522222222,0.3535617911111111,0.0188090052
577,1778412948330,0.99984497,-0.07826676,-0.1147322999999999,-0.04314109,0.29763532,-0.0023670332
578,1778412948340,1.0039914966666668,-0.0948801955555555,-0.1297738322222222,-0.0145670108888888,0.2157563424444444,0.0012980504
579,1778412948350,1.0278546777777775,-0.1052602044444444,-0.1516585777777778,0.0242557266666666,0.1096216326666666,-0.0017561860666666
580,1778412948360,1.03434085,-0.1007314865,-0.200411075,0.0328483134,0.0737445415,-0.00676513388
581,1778412948370,1.0395255,-0.0688759725555555,-0.2288243233333333,-0.0353358162222222,-0.0464837816666666,0.0104607592222222
582,1778412948380,1.03939,-0.055308107,-0.19452354,-0.061466504,-0.09093989,0.019623468
583,1778412948390,1.03738068,-0.0606834193999999,-0.126537869,-0.0509599315999999,-0.0671168418,0.0455233916
584,1778412948400,1.0182267444444446,-0.0951783177777777,-0.1332869044444444,-0.0332317880333333,-0.015805672,0.0877668744444444
585,1778412948410,1.04863429,-0.13118144,-0.07684595,0.01366770733,0.0494328146,0.172885037
586,1778412948420,1.0935800333333332,-0.1584374277777777,-0.08284359,0.0801143142222222,0.1191237033333333,0.2143480022222222
587,1778412948430,1.1043022,-0.17049775,-0.09546289,0.10101887,0.15523157,0.2267007
588,1778412948440,1.1208824,-0.1527894,-0.102201086,0.110670252,0.21859169,0.218270994
589,1778412948450,1.0847584,-0.14732568,-0.15061855,0.11018158,0.29580277,0.18943901
590,1778412948460,1.0684973444444443,-0.1212536888888888,-0.19282629,0.0881232044444444,0.2746776666666666,0.1924932555555555
591,1778412948470,1.08295345,-0.090819321,-0.199496395,0.0435992228,0.0430800008,0.2293884279999999
592,1778412948480,1.0815874,-0.06262561,-0.15183812,0.046042614,-0.100102596,0.24013934
593,1778412948490,1.0135043,-0.04969802,-0.121805884,0.0536442686666666,-0.1903722502222222,0.2705459477777778
594,1778412948500,1.05691536,-0.0224159412,-0.0229708503999999,0.130339535,-0.053678205,0.2990860899999999
595,1778412948510,1.1065788,-0.0097465036666666,0.1469801233333333,0.1646827244444444,0.1352178244444444,0.2480803411111111
596,1778412948520,1.1390116300000002,-0.0119610639,0.248423046,0.258800712,0.67807098,0.072576293
597,1778412948530,1.1221081,-0.017257104,0.17153439,0.304431,0.8913789,-0.0555871
598,1778412948540,1.0850632333333334,-0.0478381564444444,0.098054499,0.30341292,0.8076927933333333,-0.2093169966666666
599,1778412948550,1.05602498,-0.08499886,0.0277455209999999,0.27889758,0.619063144,-0.341830134
600,1778412948560,1.0185892222222224,-0.1089528333333333,0.0022189641111111,0.2502013311111111,0.4938530344444445,-0.3573456511111111
601,1778412948570,0.9307860233333334,-0.14700045,0.0011179526666666,0.1698409933333333,0.1924847585555555,-0.3240884111111111
602,1778412948580,0.92298067,-0.14147167,0.03609967,0.1071273399999999,0.0061848285,-0.27610296
603,1778412948590,0.8991547555555557,-0.0594309728,0.0868749877777777,-0.0025536804444444,-0.1168669566666666,-0.2071450933333333
604,1778412948600,0.8996968200000001,0.0024222281,0.11906183,-0.0464668113333333,-0.1191745966666666,-0.1829148099999999
605,1778412948610,0.913300248,0.0370692351,0.1315015789999999,-0.0893822265,-0.0200205189999999,-0.182826582
606,1778412948620,0.926930711111111,0.0365705598888888,0.1248887233333333,-0.1451016766666666,0.13705886,-0.2110816622222222
607,1778412948630,0.9100226,0.027654054,0.12564757,-0.2069245099999999,0.25731942,-0.24861483
608,1778412948640,0.8926774,0.0191982735555555,0.2182817122222222,-0.2454757544444444,0.2497177488888889,-0.2464429277777777
609,1778412948650,0.91608665,0.0355711805555555,0.2325440588888888,-0.2116076666666667,0.1583112466666666,-0.2148146199999999
610,1778412948660,0.949933439,0.0454325262,0.198264615,-0.185117264,-0.04317162776,-0.1801999339999999
611,1778412948670,0.95590943,0.010579886,0.16494864,-0.22036316,-0.19905984,-0.16065283
612,1778412948680,0.9556384077777778,0.0087640618444444,0.1658972055555555,-0.22036316,-0.19905984,-0.16065283
613,1778412948690,0.956982636,-0.02047985388,0.180876404,-0.277538448,-0.1594769492,-0.169937702
614,1778412948700,1.007491,-0.0317667591111111,0.29453616,-0.3398177333333333,0.1142708522222222,-0.2581169055555555
615,1778412948710,1.06489445,0.0025306349999999,0.41485654,-0.3273836,0.1885074576,-0.339875418
616,1778412948720,1.0817907555555557,0.0216374413333333,0.4547928122222222,-0.3372386,-0.0049461637777777,-0.4005800588888888
617,1778412948730,1.0764652,0.02423922,0.45219103,-0.34131092,-0.06467345,-0.43125817
618,1778412948740,1.01408965,0.0226537614,0.450669594,-0.341677426,-0.072675552,-0.495702551
619,1778412948750,0.9408340111111112,-0.0032759364444444,0.39849209,-0.3170127622222222,-0.0416648744444444,-0.5689702666666666
620,1778412948760,0.9022986166666668,-0.0379087173333333,0.3287793566666666,-0.2881671966666667,-0.0491986546666666,-0.5847844333333333
621,1778412948770,0.8807038300000001,-0.080492502,0.342995626,-0.252738046,-0.1005912704,-0.561979484
622,1778412948780,0.88246,-0.09631659,0.39410836,-0.2490729699999999,-0.11231954,-0.53449136
623,1778412948790,0.7914994111111111,-0.0803197251111111,0.3417679177777778,-0.3066962199999999,0.0264785308888888,-0.4826372088888888
624,1778412948800,0.7265058,-0.045551438,0.2830653,-0.39384377,0.1228566539999999,-0.44164258
625,1778412948810,0.7207568555555555,0.0707595455555555,0.2292376366666666,-0.4640912,0.1422001483333333,-0.3479793133333333
626,1778412948820,0.835408528,0.201767868,0.238544402,-0.519311796,0.0758214162,-0.190950852
627,1778412948830,0.92298067,0.25022802,0.2449838,-0.50685054,0.051998373,-0.12827793
628,1778412948840,1.0093440933333333,0.2428563033333333,0.2618818111111111,-0.4892716966666666,-0.0235430704444444,-0.0741161354444444
629,1778412948850,1.09857312,0.2258088959999999,0.229080444,-0.465190718,-0.0177603844,-0.034696125
630,1778412948860,1.1386097888888889,0.21212619,0.2240882844444444,-0.4685028722222222,0.0475866988888888,-0.0978713038888889
631,1778412948870,1.0661022,0.2197248777777777,0.2428292055555555,-0.38427381,0.1542389333333333,-0.1463997266666666
632,1778412948880,1.0357312,0.2111708499999999,0.2669668,-0.34314343,0.23166382,-0.13988402
633,1778412948890,0.9394111555555557,0.0392638077777777,0.2962503422222222,-0.2417937,0.1029871477777777,-0.0407061833333333
634,1778412948900,0.8522508999999999,-0.096066581,0.254325816,-0.165188368,-0.0468367132,0.1424037699999999
635,1778412948910,0.8176526777777778,-0.1562421788888889,0.1682279711111111,-0.1943682066666666,-0.0344025793333333,0.2340987355555555
636,1778412948920,0.8346930233333334,-0.1207997293333333,0.2145653666666666,-0.3687990266666666,-0.0665059986666666,0.4885505633333334
637,1778412948930,0.9022172699999998,-0.047746688,0.2742843,-0.4384355999999999,-0.048180576,0.61519957
638,1778412948940,0.9910096922222222,0.0435323504444444,0.2760255955555555,-0.4244539955555555,0.0171122084444444,0.6893156788888889
639,1778412948950,1.0323163,0.08695629,0.32309812,-0.37918344,0.067269556,0.7581378
640,1778412948960,1.0453794222222224,0.0513376867111111,0.3932478733333333,-0.2197353433333333,0.0245781184444444,0.7371653866666666
641,1778412948970,1.0310357888888888,-0.0150381403999999,0.4191402977777778,-0.0801991537777777,-0.0025027768888888,0.6851754800000001
642,1778412948980,1.0120409,-0.0560398549999999,0.32309812,0.009391776,0.069712944,0.6341358
643,1778412948990,0.9990048277777775,-0.0917770375555555,0.2933165666666666,-4.242022222222345e-05,0.141657182,0.6039328344444445
644,1778412949000,0.9874322511111112,-0.1190279522222222,0.2450684811111111,-0.030313294,0.16256173,0.61519957
645,1778412949010,0.976965521,-0.122220539,0.265625243,-0.0923142928,0.133118889,0.69625898
646,1778412949020,0.9944855233333334,-0.1261354,0.3052481555555555,-0.1148138299999999,0.0882419766666666,0.79091995
647,1778412949030,1.0474391,-0.13147108,0.39313272,-0.11277767,0.07032379,0.81005985
648,1778412949040,1.0684803555555555,-0.1197393706666666,0.5012894022222222,-0.0081191771111111,0.2650398333333333,0.6223261099999999
649,1778412949050,1.0913746,-0.1080246,0.54125106,0.06864396,0.40392274,0.4783697700000001
650,1778412949060,1.10283873,-0.1070245399999999,0.4947422619999999,0.163813968,0.480706237,0.308432063
651,1778412949070,1.1081778333333334,-0.0997585377777777,0.3867095511111111,0.2686625155555555,0.58738053,0.0553750022222222
652,1778412949080,1.1264174,-0.07500438,0.4062330333333333,0.24395712,0.58595526,-0.02260135
653,1778412949090,1.1239131,-0.0576497065999999,0.51231038,0.236932379,0.527558222,-0.07067503
654,1778412949100,1.0969847,-0.029940773,0.6483915,0.25373068,0.40942037,-0.0684149
655,1778412949110,1.038142865,-0.0116714128,0.681890424,0.310111889,0.3109441572999999,-0.100973054
656,1778412949120,0.9324934666666668,-0.0084659406666666,0.7675854266666666,0.5188383799999999,0.0112752224666666,-0.1193188333333333
657,1778412949130,0.9329813,0.02862972,0.7189444,0.6239041,0.0055739814,-0.11972606
658,1778412949140,0.904421652,0.111957753,0.64217769,0.71919629,0.08993198908,-0.111113119
659,1778412949150,0.92517596,0.14455111,0.6418057,0.7503495,0.15339902,-0.1123959
660,1778412949160,0.9212732888888888,0.1485621855555555,0.6568879044444444,0.7483812266666666,0.29502226,-0.1297711066666666
661,1778412949170,0.89110079,0.179845858,0.889814092,0.7166918,0.913308252,-0.198586451
662,1778412949180,0.8712399,0.16092403,1.0808557,0.7308024,1.1326635,-0.24006297
663,1778412949190,0.7973907,0.1148983087777777,1.0133890333333333,0.8894190555555556,1.0080506955555557,-0.2337508811111111
664,1778412949200,0.85059226,-0.0101621787,0.836612812,0.920165032,0.647772988,-0.1870414348
665,1778412949210,0.9922326666666668,-0.0467710233333333,0.8646811844444444,0.8856861111111112,0.1609073444444444,-0.0637317313333333
666,1778412949220,1.04291754,-0.0205164426,0.9774930000000002,0.8596911300000001,-0.0316877008,0.0011835173
667,1778412949230,1.0059157377777777,0.0570189088888888,1.1524047,0.8425874,-0.057343286,0.041003123
668,1778412949240,0.9723839688888888,0.1221819277777777,1.198620111111111,0.8921339777777777,0.2901694177777777,0.1060922911111111
669,1778412949250,0.96073901,0.232251365,1.1678181200000002,0.91759947,0.564636681,0.1106397094999999
670,1778412949260,0.9598662844444444,0.2545372177777777,1.0599669333333337,0.9319068511111112,0.7751821377777779,0.0732422892555555
671,1778412949270,0.95834863,0.23803219,0.8878262,0.92321926,0.82785076,-0.0060321167
672,1778412949280,0.8895336,0.15799703,0.8978268,0.905626892,0.649972048,-0.05251759454
673,1778412949290,0.8912749044444445,0.1278394366666666,0.9178889333333332,0.7867967088888889,0.1818288633333333,-0.0945455826666666
674,1778412949300,0.9163949500000002,0.12772086,0.9700566,0.62818,-0.24731678,-0.11850437
675,1778412949310,0.841072108888889,0.0925833122222222,0.7907913666666667,0.1800896653333333,-0.3940558688888889,-0.0311871455555555
676,1778412949320,0.8271959611111112,-0.0078866411111111,0.5391134533333334,-0.0912113712222222,-0.3126095777777777,0.1111148166666666
677,1778412949330,0.8234017,-0.07704718,0.46536252,-0.27228516,-0.37437302,0.24319357
678,1778412949340,0.8242960466666667,-0.1336324555555555,0.5214972211111112,-0.3728713577777778,-0.3700292244444444,0.25989006
679,1778412949350,0.82852393,-0.13391025,0.49759,-0.4237753,-0.3365005,0.2407501799999999
680,1778412949360,0.762419443,-0.0565825695,0.467048572,-0.46042612,-0.37620556,0.19554748
681,1778412949370,0.6046490666666666,0.1193463833333333,0.4916445499999999,-0.644902,-0.1208714,0.11735903
682,1778412949380,0.5835096,0.12503777,0.35285595,-0.8026838529999999,0.0440573584,0.1717855129999999
683,1778412949390,0.5582236,-0.0442810362222222,0.0619582219999999,-1.0264779266666666,-0.1991277208888889,0.3921045477777778
684,1778412949400,0.5610658888888889,-0.1602058166666666,-0.0351578766666666,-1.1851624444444444,-0.5098453555555555,0.6335928211111111
685,1778412949410,0.54986744,-0.295108684,-0.0299041812,-1.20248336,-0.72292246,0.80370703
686,1778412949420,0.5904613,-0.33612056,0.0804992777777777,-1.1038518922222222,-0.9485015611111112,0.9772962333333334
687,1778412949430,0.8434029,-0.20662792,0.17812014,-0.88557583,-0.98216605,0.96643674
688,1778412949440,0.9701938,-0.0789832715,0.1118662785,-0.7777612749999999,-0.786817095,0.7649182299999999
689,1778412949450,1.0969847,0.048661377,0.045612417,-0.65101045,-0.5252523,0.50891215
690,1778412949460,1.07238572,0.03831321198,0.0041221916,-0.65101045,-0.5252523,0.50891215
691,1778412949470,0.91150644,-0.1264199827,-0.12913355,-0.64693815,-0.2124984933333333,0.3114048566666667
692,1778412949480,0.96712965,-0.22565341,-0.19745055,-0.457575511111111,-0.1223645855555555,0.0997123335555555
693,1778412949490,1.02585868,-0.31400001,-0.32979972,-0.1721978371999999,-0.7259766940000001,-0.124246336
694,1778412949500,1.0997051333333332,-0.2804770444444444,-0.2918124,-0.0456523482222222,-0.8141830388888889,-0.2088418911111111
695,1778412949510,1.161463388888889,-0.1768158755555555,-0.4544167722222222,0.0947067744444444,-0.7112892388888888,-0.38829522
696,1778412949520,1.12988298,-0.133160207,-0.58091198,0.153063051,-0.68541647,-0.432968519
697,1778412949530,1.0992037444444445,-0.1587152188888888,-0.6681894111111111,0.2060846,-0.6828509,-0.3970507
698,1778412949540,1.07153815,-0.26027128,-0.689366409,0.276942864,-0.668312724,-0.1588202892
699,1778412949550,1.0520736,-0.29373667,-0.59402853,0.32092386,-0.60344076,-0.041537613
700,1778412949560,0.9828148,-0.3200389944444444,-0.5486769822222223,0.3889994,-0.2304166777777777,0.1732685226666666
701,1778412949570,1.07272112,-0.27392451,-0.493162928,0.446269726,0.109662358,0.379290326
702,1778412949580,1.2410887111111113,-0.1686311188888889,-0.5389677644444445,0.5098792866666666,0.1108433266666666,0.3755438
703,1778412949590,1.3296304666666667,-0.10037171,-0.64919438,0.5553534666666667,0.0300757444444444,0.2782154768888888
704,1778412949600,1.3752022,-0.05335677,-0.7883082,0.5463265,-0.06589515,0.114304796
705,1778412949610,1.3512678333333334,0.0042278893333333,-0.7751163833333333,0.4341342366666667,-0.1037676753333333,-0.2137965333333333
706,1778412949620,1.3517455,0.0453989916666666,-0.8562287999999999,0.3354484722222222,-0.0479769615555555,-0.43098666
707,1778412949630,1.2994020000000002,0.0180162962999999,-0.975627005,0.198571164,-0.0266176694,-0.65653862
708,1778412949640,1.192779611111111,-0.070718895,-0.9255858666666666,0.2157902866666666,-0.1519567355555555,-0.8007528577777778
709,1778412949650,1.1821421,-0.110951595,-0.92666996,0.28060797,-0.18012358,-0.83808243
710,1778412949660,1.1482918777777775,-0.2031520972222222,-0.9288380311111112,0.4603327966666666,-0.3120665844444444,-0.8739188122222222
711,1778412949670,1.0837828,-0.23565398,-0.80269927,0.7338566,-0.2454842499999999,-0.89733464
712,1778412949680,1.0886245,-0.25470999,-0.7651726799999999,0.8874236310000001,-0.145671798,-0.79061958
713,1778412949690,1.0728979,-0.2396582833333333,-0.7235482799999999,0.9140566,-0.1889469333333333,-0.6815019022222222
714,1778412949700,1.0261879,-0.22565341,-0.69214404,0.9055047,-0.26258796,-0.5974086
715,1778412949710,0.9827036999999998,-0.188956144,-0.57193582,0.782602246,-0.369486231,-0.4176973559999999
716,1778412949720,0.9978935777777777,-0.1646708533333333,-0.5057747488888888,0.6177956366666667,-0.4330143466666666,-0.2677547166666667
717,1778412949730,0.9963488,-0.1321960644444444,-0.4287682333333333,0.4292474522222222,-0.4964067288888889,-0.1332156072222222
718,1778412949740,1.01361095,-0.101356527,-0.3457366309999999,0.15434583,-0.567278598,0.06409314875
719,1778412949750,1.0532389444444443,-0.0634386622222222,-0.2822827222222222,-0.0394760044444444,-0.6112460188888889,0.1992804333333333
720,1778412949760,1.06480603,-0.0429171399,-0.20656083,-0.206993236,-0.7114995989999999,0.29334413
721,1778412949770,1.0758961777777776,-0.0271221792222222,-0.1161958017777777,-0.3334377777777778,-0.8230742588888889,0.3542999155555555
722,1778412949780,1.0704215888888888,-0.0214782172222222,-0.0775146857777777,-0.4106081255555555,-0.9275970266666668,0.37086065
723,1778412949790,1.06402552,-0.0066406311999999,-0.0153667505999999,-0.439046471,-1.00238512,0.3300560489999999
724,1778412949800,1.0618303,0.004481969,0.009238344,-0.4433224,-1.0096542,0.28045526
725,1778412949810,1.0103095888888889,-0.0153701385555555,0.0352696737777777,-0.4454943,-0.8838875133333333,0.1733533644444444
726,1778412949820,0.97671246,-0.0237940718999999,0.0544909836,-0.434892706,-0.78926048,0.111372726
727,1778412949830,0.9568851000000002,-0.023111105,0.054149497,-0.40606073,-0.6871268,0.07032379
728,1778412949840,0.94182933,-0.0360874717,0.0055064166999999,-0.369532051,-0.538813084,0.0061466515999999
729,1778412949850,0.91270566,-0.063113436,-0.060552314,-0.31504446,-0.31573167,-0.09468132
730,1778412949860,0.8818909133333332,-0.0588855493333333,-0.0636520893333333,-0.2802261877777778,-0.1893541622222222,-0.1448386755555555
731,1778412949870,0.870532498,-0.052649415,-0.0961214645,-0.24088762,-0.0376740052,-0.212086168
732,1778412949880,0.8791536555555556,-0.0539801166666666,-0.1093932405555555,-0.2230101533333333,-0.0213032986666666,-0.24148829
733,1778412949890,0.9014313055555556,-0.0516493586666666,-0.1583798377777777,-0.2106574688888889,-0.0416648742222222,-0.2870982166666667
734,1778412949900,0.913367297,-0.0399169651,-0.176107835,-0.21303298,-0.051845662,-0.3023694
735,1778412949910,0.9299458844444444,-0.0333556046666666,-0.18222269,-0.2133044622222222,-0.0343347062222222,-0.3403776688888889
736,1778412949920,0.9436051688888888,-0.0400768642222222,-0.2035924988888889,-0.2063815322222222,-0.0183848049777777,-0.3722774788888888
737,1778412949930,0.948055344,-0.0465758882,-0.199597012,-0.18504091,0.01583621528,-0.4042587199999999
738,1778412949940,0.9807178,-0.0497793253333333,-0.1884256333333333,-0.1510574433333333,0.1061601666666666,-0.4074351166666666
739,1778412949950,0.999601,-0.05189327,-0.18598646,-0.13598987,0.14606886,-0.4049917499999999
740,1778412949960,1.0016065555555556,-0.0505381777777777,-0.18858824,-0.1286597033333333,0.1621035977777777,-0.4034985655555555
741,1778412949970,1.0107127,-0.0338434383333333,-0.1870705311111111,-0.0740228055555555,0.2937666288888889,-0.3764176422222222
742,1778412949980,1.0332158,-0.0358435552,-0.192313047,-0.0127819783,0.350717953,-0.31709081
743,1778412949990,1.030649588888889,-0.0459850681111111,-0.2089722122222222,0.0240521106666666,0.3031329533333333,-0.2622571
744,1778412950000,1.0239927,-0.0562837719999999,-0.21601869,0.038712446,0.25670856,-0.2235701
745,1778412950010,1.02583427,-0.0542104782,-0.215884541,0.0509904737,0.173625696,-0.14880239
746,1778412950020,1.0349995,-0.04530752,-0.19647488,0.051540237,0.13873868,-0.0904054
747,1778412950030,1.04397556,-0.0292943927999999,-0.185108362,0.0581373878,0.0859614804,-0.04434751
748,1778412950040,1.0439430333333333,-0.0066568923333333,-0.19314135,0.073734356,0.0069992933333333,0.001043531
749,1778412950050,1.0491467,0.006677219,-0.18842563,0.08513684,-0.04023956,0.025121093
750,1778412950060,1.0562445500000002,0.0080675437999999,-0.213698434,0.097353784,-0.096437512,0.0524870505999999
751,1778412950070,1.0530221444444443,0.0082491263888888,-0.2198129588888888,0.1097064666666666,-0.1612551944444444,0.0948934277777777
752,1778412950080,1.046029833333333,0.0007114236666666,-0.22642583,0.1334616466666666,-0.1774087144444444,0.12543579
753,1778412950090,1.03953623,-0.0241599467,-0.267347903,0.1618592569999999,-0.165524331,0.171663351
754,1778412950100,1.0415852,-0.03457519,-0.29605386,0.16271444,-0.1300341,0.19860171
755,1778412950110,1.04658545,-0.020046902,-0.300566315,0.1362647568,-0.0737139961999999,0.224745971
756,1778412950120,1.046057,-0.0086082262,-0.3050889433333333,0.1122177306666666,-0.0318913179999999,0.24808034
757,1778412950130,1.0413412111111109,-0.0162949887111111,-0.3455994133333333,0.0791641088888888,-0.0360993771111111,0.2591434755555555
758,1778412950140,1.0356092,-0.0339653975,-0.367308,0.0481805799999999,-0.0460426115,0.26762746
759,1778412950150,1.0337799,-0.040673107,-0.3714546,0.03321482,-0.050013117,0.27312508
760,1778412950160,1.0516128777777778,-0.0419739945555555,-0.3063830622222222,0.0398662675555555,-0.0263936916666666,0.2733965733333333
761,1778412950170,1.08645056,-0.0328433783,-0.269418148,0.075424365,0.0341005496999999,0.255838108
762,1778412950180,1.1095870444444444,-0.0305912173333333,-0.2706052266666667,0.0970822955555555,0.0951733988888888,0.2279902577777778
763,1778412950190,1.12688887,-0.0360630805,-0.288763798,0.14573289,0.257808093,0.137089393
764,1778412950200,1.1304013,-0.038477857,-0.31754902,0.16332528,0.3721587,0.06177193
765,1778412950210,1.1214272,-0.0412422442222222,-0.3428384377777778,0.1673976022222222,0.4359583111111111,0.0108255716666666
766,1778412950220,1.0789044,-0.05945469,-0.39099842,0.164241557,0.5634760649999999,-0.11673291
767,1778412950230,1.0632124666666667,-0.0566089933333333,-0.3979907066666667,0.1528051433333333,0.5672904366666667,-0.13397917
768,1778412950240,1.0542078888888888,-0.0487494577777777,-0.3608476177777777,0.1190727955555555,0.5814757022222222,-0.1578022088888888
769,1778412950250,1.0283831,-0.04969802,-0.30824968,0.092467,0.618941,-0.1887518
770,1778412950260,1.0173797999999998,-0.0460934742222222,-0.2706865133333333,0.0820147244444444,0.6821297666666666,-0.2129820822222222
771,1778412950270,1.0156995,-0.041404855,-0.2455326299999999,0.06681142,0.7661552,-0.24983653
772,1778412950280,1.010926188888889,-0.0429496607777777,-0.2367211377777777,0.0704765037777777,0.7678519966666667,-0.2515333288888889
773,1778412950290,0.9682949888888888,-0.0512970305555555,-0.1727336488888889,0.1106566788888889,0.7873990944444444,-0.2561486266666666
774,1778412950300,0.9627391,-0.046283185,-0.18086421,0.12423106,0.794865,-0.24494976
775,1778412950310,0.9801148111111112,-0.0761629806666666,-0.26470718,0.1120141193333333,0.7313368777777778,-0.2106065588888889
776,1778412950320,0.9705648,-0.1029023426666666,-0.2967856199999999,0.086154914,0.6146650333333333,-0.1734806233333333
777,1778412950330,0.95732416,-0.129001426,-0.312786564,0.042377527,0.44252829,-0.106043084
778,1778412950340,0.95899908,-0.1103011566666666,-0.30711143,-0.0205397383333333,0.1927477633333333,-0.0044540933333333
779,1778412950350,0.95883644,-0.07485193,-0.29263905,-0.063299045,0.08315159,0.03061872
780,1778412950360,0.9159748433333332,-0.0164101715555555,-0.16557877,-0.1444993188888889,0.1711390511111111,0.0625863922222222
781,1778412950370,0.8732149111111112,0.0203094514444444,-0.0944567277777777,-0.19531842,0.3422272,0.08742751
782,1778412950380,0.8466256,0.0184309537,-0.0640616673,-0.19457776,0.44252829,0.1306144129999999
783,1778412950390,0.8775545777777778,-0.0445012433333333,0.0235548965555555,-0.1413517488888888,0.5114318833333333,0.2733287066666666
784,1778412950400,0.9073395,-0.08948693,0.056588665,-0.08162446,0.4479037499999999,0.37757996
785,1778412950410,0.939417603,-0.1014876305,0.03257811898,-0.0238383125599999,0.370570492,0.445017492
786,1778412950420,0.97984374,-0.10460976,0.0033843436,0.053372778,0.2506001,0.5180748
787,1778412950430,0.9734917733333334,-0.1051788966666666,-0.0032014063333333,0.1116068844444444,0.2233834444444444,0.4863107711111111
788,1778412950440,0.98009073,-0.0938530352,-0.0575155499,0.143167328,0.208909764,0.44000856
789,1778412950450,1.0035037,-0.077291094,-0.13302605,0.14133479,0.13446276,0.4282803
790,1778412950460,1.00345493,-0.0576558023,-0.0517133825,0.164974577,-0.04524851,0.424859544
791,1778412950470,0.99586095,-0.0435187999999999,0.0288533099999999,0.2259032,-0.0960981544444444,0.42115374
792,1778412950480,0.99130785,-0.03457519,0.114915244,0.2849517633333333,-0.0113855155555555,0.4123303833333333
793,1778412950490,1.02712697,-0.00762239632,0.2659362568,0.453111218,0.355543644,0.347037586
794,1778412950500,1.0554883,0.0017988854,0.26428372,0.55060244,0.54502845,0.29389387
795,1778412950510,1.074032811111111,-0.0322071644222222,0.1581393102222222,0.6344921044444445,0.4804822888888888,0.2161126711111111
796,1778412950520,1.0891794,-0.06921136,0.063418336,0.68437797,0.3849865,0.17050274
797,1778412950530,1.048381,-0.08840286,0.0212139745555555,0.7173638,0.28664008,0.1228566539999999
798,1778412950540,1.01740686,-0.106317186,-0.0268186372,0.71626422,0.1243226896,0.0554191188999999
799,1778412950550,1.0135043,-0.10436585,-0.08226089,0.6629983,-0.035963632,0.0080173705
800,1778412950560,0.9930965822222222,-0.0715861555555555,-0.0129614603333333,0.5960087666666667,-0.1780195537777777,-0.0129465682222222
801,1778412950570,0.972498864,-0.0473076385,0.0402462492,0.5130353400000001,-0.2521424719999999,-0.0574807274
802,1778412950580,0.9317887822222222,-0.0232601657333333,0.0691774822222222,0.4612151333333333,-0.1705536419999999,-0.0588449493333333
803,1778412950590,0.940976308888889,0.0025035335333333,0.0885451439999999,0.3773254444444445,0.0446682084444444,-0.0728944402222222
804,1778412950600,0.96820896,0.031020102,0.1033048068,0.34474692,0.13996038,-0.09162709
805,1778412950610,1.0213231555555558,0.0310417846666666,0.0700752277777777,0.2358124877777777,0.2871660844444444,-0.1523724577777777
806,1778412950620,1.03565488,0.0228732862,0.04534105935,0.1410904394,0.371731097,-0.209764948
807,1778412950630,1.0308934555555556,0.03013726,-0.0174840828888888,0.0236448808888888,0.2302045717777777,-0.2342259888888889
808,1778412950640,1.0340948666666665,0.0537836266666666,0.007134564,-0.090787172,0.052812837,-0.2425063666666666
809,1778412950650,1.025944,0.07329696,0.07219934,-0.16897562,-0.012751437,-0.2583884
810,1778412950660,0.9992724111111112,0.0867123722222222,0.0566428739999999,-0.2723360566666666,0.001705282,-0.2991115533333333
811,1778412950670,0.9732275,0.07841921,0.07268717,-0.35108447,-0.021914145,-0.3243599
812,1778412950680,0.9642026,0.067808835,0.069028418,-0.374602097,-0.0274728554999999,-0.31922876
813,1778412950690,0.9163441,-0.0127886873333333,0.0654645253333333,-0.4468517422222222,-0.1808701833333333,-0.1994755622222222
814,1778412950700,0.93976214,-0.0365265216,0.172753988,-0.48486,-0.17279342,-0.13011047
815,1778412950710,0.9123194433333334,-0.052543715,0.1822667399999999,-0.5043392422222222,-0.0516420454444444,-0.0997038466666666
816,1778412950720,0.88172823,-0.064089105,0.15446024,-0.50746137,0.07459972,-0.061084725
817,1778412950730,0.8868505170000001,-0.0651135549,0.0872703384,-0.500864199,0.0075286923999999,0.00715454868
818,1778412950740,0.92279774,-0.0544137423333333,0.025682394,-0.5252437977777777,-0.1002383368888888,0.0625185213333333
819,1778412950750,0.9439575,-0.045795355,-0.01612899,-0.5789305,-0.21188764,0.101477005
820,1778412950760,0.925407644,-0.0292090206,0.10276819,-0.6555307499999999,-0.338271938,0.1708081635
821,1778412950770,0.9181328466666666,-0.021993153,0.1626991955555555,-0.6980457333333333,-0.3476993455555555,0.2165198977777777
822,1778412950780,0.92983478,-0.0036160644999999,0.188495753,-0.715088312,-0.126430111,0.2344584489999999
823,1778412950790,0.936341938888889,0.0157563403333333,0.2124073811111111,-0.7220044800000001,0.0796307244444444,0.2366099911111111
824,1778412950800,0.9644736044444444,0.0103630713888888,0.1941881633333333,-0.7347644111111111,0.2102078155555555,0.2218817788888888
825,1778412950810,0.974264144,-0.0072748149,0.122976686,-0.7475854,0.1392884512,0.217599071
826,1778412950820,1.0035341111111111,-0.0103427446666666,0.1608867588888888,-0.7420267,0.020845164,0.22914408
827,1778412950830,1.0724914333333335,-0.0118706116666666,0.2655744466666667,-0.6664852666666667,0.0192162346666666,0.1880136966666666
828,1778412950840,1.12333687,-0.0257697964999999,0.3150397139999999,-0.56396475,0.12652174,0.0831515825
829,1778412950850,1.1464455444444444,-0.040835717,0.2823572544444444,-0.51336624,0.14057123,0.0147112379999999
830,1778412950860,1.1091958,-0.0528201549999999,0.210396421,-0.4811949359999999,0.0794864964,-0.0334744296
831,1778412950870,1.0693917,-0.064089105,0.20595714,-0.4721000888888889,0.0036056953333333,-0.0487999082222222
832,1778412950880,1.0237419755555557,-0.0692215216666666,0.2553739866666666,-0.4549963577777778,-0.1630198633333333,-0.0452026975555555
833,1778412950890,0.992917708,-0.072065181,0.29774908,-0.420721056,-0.145671804,-0.0111021482
834,1778412950900,0.9827606,-0.0694654333333333,0.26272874,-0.3757219733333333,-0.0939262466666666,0.0351661382222222
835,1778412950910,0.964690422222222,-0.0797844655555555,0.2255246644444444,-0.3454511066666666,-0.0757365764444444,0.1105039688888888
836,1778412950920,0.93285621,-0.0987801495,0.203368566,-0.3376458329999999,-0.065284304,0.166287893
837,1778412950930,0.9052255666666666,-0.12136887,0.1973184333333333,-0.3509487166666666,-0.0686778986666666,0.2163841577777777
838,1778412950940,0.8987211755555555,-0.1276158377777777,0.2449973711111111,-0.3386639066666667,-0.065487915,0.22181391
839,1778412950950,0.891411789,-0.0980727959999999,0.342224247,-0.29794076,-0.035352785,0.19371493
840,1778412950960,0.8681908722222222,-0.0729683466666666,0.3740123388888888,-0.1755422333333333,0.0471115956666666,0.1784437533333333
841,1778412950970,0.8468421100000001,-0.0700437204999999,0.34982835,-0.127865604,0.1267126296,0.189744427
842,1778412950980,0.8278836866666667,-0.0980240133333333,0.200987339,-0.1498611933333333,0.22270473,0.25622497
843,1778412950990,0.86416626,-0.12583052,0.045612417,-0.2301366999999999,0.2353289099999999,0.31771693
844,1778412951000,0.8843168590000001,-0.148667211,0.1132627086,-0.5786861400000001,0.233129858,0.3287121919999999
845,1778412951010,0.9630507666666668,-0.13842271,0.27379308,-0.8063014333333334,0.2535185788888889,0.2586683666666667
846,1778412951020,1.0098455444444443,-0.1123846111111111,0.3530727766666666,-0.8781777711111112,0.3315712844444444,0.1288887792222222
847,1778412951030,1.0160897800000002,-0.0324165244,0.334501226,-0.7400719840000001,0.38681902,-0.1116628802
848,1778412951040,0.9987066666666666,0.021972827,0.3398369066666666,-0.6138166433333334,0.3403267677777777,-0.2370087377777777
849,1778412951050,0.9830086,0.0479784104,0.3998160039999999,-0.449797382,0.320847538,-0.322771684
850,1778412951060,0.9150839333333334,0.0714269353333333,0.3456299133333333,-0.2676020022222222,0.4161396977777778,-0.3437033888888889
851,1778412951070,0.8983145999999999,0.084761046,0.28330922,-0.2301366999999999,0.46500748,-0.3323009
852,1778412951080,0.884045495,0.0727359476,0.3349981979999999,-0.222073516,0.5732495839999999,-0.2104979719999999
853,1778412951090,0.8727034,0.06841862,0.36432004,-0.2111919466666666,0.6171084422222222,-0.0818450455555555
854,1778412951100,0.937009277777778,0.0068804824444444,0.3919334422222222,-0.1589984533333333,0.4938530555555556,0.1398925055555555
855,1778412951110,1.06823304,-0.10501223,0.3623808819999999,-0.0884048698,0.1721444015,0.326940729
856,1778412951120,1.1067414,-0.14586218,0.38069293,-0.070018366,-0.010918895,0.3897969
857,1778412951130,1.1052779333333334,-0.1303226433333333,0.3548174566666666,-0.1051081481111111,0.0048273901111111,0.3181920344444444
858,1778412951140,1.09932628,-0.098258782,0.380220351,-0.0991557808,0.0845794368,0.22871649
859,1778412951150,1.0791380888888888,-0.0802553611111111,0.3299413377777778,0.04230966,0.2586768444444444,0.11539075
860,1778412951160,1.04426819,-0.112497421,0.288358283,0.158194176,0.296047128,0.0730115204
861,1778412951170,1.047683,-0.16049717,0.29160237,0.17981817,0.26709297,0.062382776
862,1778412951180,1.0103265777777777,-0.1895401877777777,0.3488956955555555,0.1232129833333333,0.1270138144444444,0.0401886596666666
863,1778412951190,0.971239568,-0.16366809,0.346026298,0.089534936,0.07765396,0.0163096225999999
864,1778412951200,0.97886807,-0.14391084,0.35407555,0.07536328,0.09475768,-0.023823043
865,1778412951210,0.9887873622222224,-0.1492736133333333,0.3598245277777778,0.1803611299999999,0.1706724222222222,-0.0475782157777777
866,1778412951220,0.998869284,-0.163283914,0.36105766,0.224410004,0.176855552,-0.0561979483999999
867,1778412951230,1.0227325222222223,-0.1753930277777777,0.3721694111111111,0.20513438,0.088241972,-0.0898624166666666
868,1778412951240,1.0132705333333334,-0.1458520033333333,0.3688833199999999,0.2215593888888888,0.0145330734444444,-0.1730055222222222
869,1778412951250,0.941899475,-0.11017106,0.405157794,0.242613259,-0.0018783554999999,-0.239818641
870,1778412951260,0.8746005166666666,-0.08539455,0.40080254,0.2702914244444445,0.1729800711111111,-0.2638860133333333
871,1778412951270,0.8690446,-0.0787546,0.37166804,0.25128728,0.25548688,-0.24861483
872,1778412951280,0.9071870466666666,-0.0706037133333333,0.3016131366666666,0.14622156,0.2887441088888889,-0.2055840366666667
873,1778412951290,0.9504077222222224,-0.0733613277777777,0.2375070955555555,0.0537121404444444,0.2871066944444445,-0.1676436333333333
874,1778412951300,0.9629831,-0.10265843,0.3123353,-0.016874656,0.10514209,-0.12583454
875,1778412951310,0.9820898066666668,-0.0889855384444444,0.5251525844444445,-0.036286024,0.0277002278488888,-0.0850435122222222
876,1778412951320,0.99350303,-0.072138354,0.62009716,-0.022983128,0.012904149,-0.05314371
877,1778412951330,0.89227156,-0.0610157588,0.75364153,0.1376696984,0.116259504,0.0156682324
878,1778412951340,0.8509642666666666,-0.0290362483333333,0.8018252566666667,0.2698841833333333,0.1514307333333333,0.1311370255555555
879,1778412951350,0.8550397333333333,0.0293716326666666,0.78132608,0.3412854422222222,0.1789188622222222,0.2313159722222222
880,1778412951360,0.8697031900000001,0.060491336,0.740043168,0.375961227,0.136417468,0.347037595
881,1778412951370,0.8968816333333334,0.0642720457777777,0.7658610533333333,0.40033403,0.04833329,0.41972843
882,1778412951380,0.9355424,0.055734956,0.8634040000000001,0.471680965,0.151604658,0.429440896
883,1778412951390,0.9211750222222224,0.0378036955555555,0.9437271388888888,0.5768010111111112,0.2798528833333333,0.4150452633333333
884,1778412951400,0.9376867866666668,0.0091875286666666,0.97917302,0.6477272,0.3232909,0.40995488
885,1778412951410,0.996869088,-0.036483836,1.02643192,0.8172372750000001,0.4973213,0.3949280119999999
886,1778412951420,1.025944,-0.075339764,1.0508236,0.91894335,0.6232169,0.37513658
887,1778412951430,1.0364459,-0.1253867277777777,0.9016515377777776,1.0333753666666663,0.6926499,0.34744484
888,1778412951440,1.0674403,-0.076986202,0.900845232,0.926029152,0.364797978,0.3470376
889,1778412951450,1.0691207111111112,-0.0088961838888888,1.0027210644444446,0.79066542,0.0131077633333333,0.34296528
890,1778412951460,1.021135845,0.079721113,1.014275618,0.70245906,-0.20382446,0.293771724
891,1778412951470,0.99106395,0.1106467,0.95176286,0.6990383,-0.2436516999999999,0.27373594
892,1778412951480,0.9955695722222224,0.0950834613333333,0.8699694955555556,0.6454195,-0.2055755577777777,0.1243498398
893,1778412951490,1.05495172,0.0541677948,0.864001648,0.574181156,-0.046210592,-0.04404208648
894,1778412951500,1.0113801555555555,0.0321258586666666,0.9447163933333332,0.4572106855555555,0.2737444166666666,-0.2870981955555555
895,1778412951510,0.9055711433333332,0.0138321076666666,0.9093823533333334,0.3980942333333333,0.2754157633333333,-0.3449250666666666
896,1778412951520,0.843805341,-0.0032593369999999,0.8401344,0.308890176,0.1386775921,-0.3745715349999999
897,1778412951530,0.7733886333333334,-0.06629113,0.8233407377777778,0.2556310955555555,0.0101213984444444,-0.3588388288888888
898,1778412951540,0.6584225,-0.14830133,0.75455624,0.27083442,-0.20761171,-0.28770906
899,1778412951550,0.668209684,-0.16191189,0.811147974,0.325138726,-0.375228194,-0.209459518
900,1778412951560,0.79434514,-0.14683785,0.897339,0.5457157,-0.5979431,-0.0684149
901,1778412951570,0.794784178,-0.119013051,0.85662624,0.6032575,-0.599592398,-0.0601684598
902,1778412951580,0.7476045888888889,0.0448806687777777,0.42081385,0.6454873844444444,-0.5295961066666667,-0.0732338011111111
903,1778412951590,0.7447249933333333,0.0609385165555555,0.3607696877777778,0.50892908,-0.4370866777777777,-0.1081878411111111
904,1778412951600,0.7248349810000001,0.064311683,0.251843983,0.2586174599,-0.3465183699999999,-0.126262134
905,1778412951610,0.6650658888888888,0.035350982,0.0021342699999999,-0.0411218965555555,-0.3739657777777778,-0.1022829844444444
906,1778412951620,0.69674796,0.016921718,-0.05079565,-0.2521272,-0.5179221,-0.034818295
907,1778412951630,0.686039986,-0.0204341190499999,-0.125860997,-0.60250918,-0.78235788,0.0037567102999999
908,1778412951640,0.6110450888888889,-0.0541969285555555,-0.234668151111111,-0.8294457222222222,-0.9875958,0.0609574665555555
909,1778412951650,0.573753,-0.058966853,-0.2628812,-0.9814788,-1.1434298,0.17355698
910,1778412951660,0.6355621833333333,-0.0551014547777777,-0.1504796468888888,-1.0393735555555557,-1.0285226,0.2598221855555555
911,1778412951670,0.61643845,-0.106317185,-0.109122224,-1.0272924,-0.870381,0.32565793
912,1778412951680,0.72350871,-0.114448751,-0.1727295898,-0.964314015,-0.323245102,0.416429847
913,1778412951690,0.7321159,-0.13586158,-0.26092985,-0.96376425,-0.11415208,0.45637926
914,1778412951700,0.6798940177777778,-0.1762162411111111,-0.3580967766666666,-0.9843973077777776,-0.1277264622222222,0.5470561311111112
915,1778412951710,0.774136614,-0.174254072,-0.442672192,-1.06559246,-0.6854775249999999,0.74445479
916,1778412951720,0.9543883433333332,-0.1693865755555555,-0.273539,-1.0480611,-0.8612183,0.7324822
917,1778412951730,1.1333283333333333,-0.16716423,-0.1751728133333333,-0.7727048000000001,-0.9174162277777778,0.4640487744444443
918,1778412951740,1.1260108,-0.18586451,-0.27263784,-0.6180247,-0.8282325,0.31405184
919,1778412951750,1.1076764444444445,-0.2259040933333333,-0.2851318155555555,-0.4319623388888888,-0.57615622,0.1950044975555555
920,1778412951760,1.0760994,-0.257197914,-0.28942847,-0.154559624,-0.231556931,0.0403235533
921,1778412951770,1.0706112,-0.2532465,-0.45591074,-0.04680617,-0.12820157,-0.015271181
922,1778412951780,1.1318512333333333,-0.2547302822222221,-0.5338116277777778,0.1603389222222222,0.017723055,-0.1565126422222222
923,1778412951790,1.21612584,-0.210301901,-0.59176013,0.25519672,0.078997824,-0.254723312
924,1778412951800,1.2648706,-0.1562591199999999,-0.5154569066666667,0.3677555111111111,0.1574204288888888,-0.3578886155555555
925,1778412951810,1.299527,-0.10046318,-0.40416992,0.544494,0.31901497,-0.48806697
926,1778412951820,1.23741665,-0.0954415449999999,-0.5938212399999999,0.629401756,0.5054455680000001,-0.66118104
927,1778412951830,1.1890633,-0.15399272,-0.8189705666666667,0.5764616333333333,0.34505236,-0.7228359533333334
928,1778412951840,1.2400080333333332,-0.1414445644444444,-0.8661243888888888,0.4803550199999999,0.12102412,-0.72202146
929,1778412951850,1.245716,-0.178574439,-0.91125441,0.354031794,-0.5072933820000001,-0.610969408
930,1778412951860,1.2249698333333334,-0.2521454833333333,-0.8528444488888889,0.32153472,-0.73558736,-0.52431054
931,1778412951870,1.17904442,-0.2721226,-0.782884084,0.3288649,-0.81296134,-0.4526378199999999
932,1778412951880,1.1495860111111111,-0.2343531088888889,-0.6514879,0.3520770888888889,-0.57805662,-0.2653791955555555
933,1778412951890,1.108282777777778,-0.1971659722222222,-0.6268217999999999,0.3456971222222222,-0.3288988366666666,-0.0527958635555555
934,1778412951900,1.0408382,-0.177449375,-0.5750030749999999,0.318602662,-0.2904426009999999,0.1012326656
935,1778412951910,1.0167294,-0.1741294044444444,-0.5605035988888889,0.2821690088888889,-0.3484459333333333,0.2889392444444444
936,1778412951920,1.0271636,-0.1783031,-0.56353897,0.2384594999999999,-0.48860145,0.38918605
937,1778412951930,1.02870031,-0.16105818,-0.499809661,0.1661962669999999,-0.686149444,0.450759457
938,1778412951940,1.0364629,-0.110707685,-0.36438102,0.042988375,-0.93940675,0.5137989
939,1778412951950,1.05439081,-0.0885112625,-0.310405315,0.0190431628,-0.95779323,0.5112333299999999
940,1778412951960,1.0713701000000002,-0.0439795318888888,-0.1954619511111111,-0.0318743497777777,-0.9349950488888888,0.4671708788888888
941,1778412951970,1.0803306555555556,-0.036119993,-0.1146476088888888,-0.0895654819999999,-0.8090926733333333,0.36108708
942,1778412951980,1.09366748,-0.0399901376,-0.0658209137999999,-0.1008050704,-0.69225798,0.290106636
943,1778412951990,1.0940578,-0.05286894,-0.037136313,-0.09200887,-0.5020401,0.1570641
944,1778412952000,1.0374487666666663,-0.0953409333333333,-0.0351036757777777,-0.070968574,-0.3482423322222222,0.0115127742222222
945,1778412952010,1.008382004,-0.113195632,-0.0451855636,-0.0575570816,-0.28115772,-0.0941926488
946,1778412952020,0.98935646,-0.12095218,-0.055430062,-0.051692948,-0.27419406,-0.15393351
947,1778412952030,0.9543205755555556,-0.1373962311111111,-0.0686557673333333,-0.064927972,-0.2689000566666666,-0.1838650266666666
948,1778412952040,0.930468905,-0.145398737,-0.081699892,-0.09139802,-0.25831205,-0.2437280599999999
949,1778412952050,0.9454209833333334,-0.13365617,-0.0927594816666666,-0.0839321075555555,-0.26496349,-0.2779354955555556
950,1778412952060,0.968300385,-0.116537285,-0.1210985295,-0.063421216,-0.262832319,-0.32319929
951,1778412952070,0.9693248,-0.11192726,-0.14278272,-0.048027866,-0.2577012,-0.3475721
952,1778412952080,0.9626577822222224,-0.1059377533333333,-0.1470783722222222,-0.0174855033333333,-0.1996028277777778,-0.3909422555555555
953,1778412952090,0.970160252,-0.1000241299999999,-0.130202732,0.0203870264,-0.0992474052,-0.4239280059999999
954,1778412952100,0.97496544,-0.0834703179999999,-0.1426404366666666,0.0577165804444444,-0.0107152802222222,-0.4328870944444444
955,1778412952110,0.9765373666666668,-0.0796489552222222,-0.1288794671111111,0.1067201053333333,0.1073818566666666,-0.4297650088888888
956,1778412952120,0.9969179,-0.098511845,-0.107414804,0.1376697,0.17416783,-0.42759308
957,1778412952130,1.0147238666666667,-0.1076993666666666,-0.1423863533333333,0.1878270577777777,0.25860897,-0.4118467844444444
958,1778412952140,1.02931309,-0.1067318349999999,-0.151521029,0.207550638,0.240154592,-0.37927506
959,1778412952150,1.0257203333333331,-0.09948751,-0.144266548,0.2052701333333333,0.1907116,-0.33270814
960,1778412952160,1.0164312,-0.095259622,-0.1031869176666666,0.1989580433333333,0.1601183366666666,-0.27874996
961,1778412952170,1.04190527,-0.0835841452,-0.1073416285,0.203885542,0.1637834239999999,-0.241590099
962,1778412952180,1.078145611111111,-0.0715048477777777,-0.1517940811111111,0.1932568011111111,0.17043487,-0.2023940566666666
963,1778412952190,1.083295,-0.06579652,-0.16061912,0.18409409,0.16500512,-0.19119519
964,1778412952200,1.06356205,-0.0536494715,-0.145054198,0.1718771459999999,0.146313195,-0.166089366
965,1778412952210,1.0604479777777778,-0.0510802147777777,-0.1307766055555555,0.1678727033333333,0.1466796922222222,-0.1311964211111111
966,1778412952220,1.06924528,-0.0444782064,-0.138203186,0.156605966,0.157797118,-0.117404844
967,1778412952230,1.0669253555555556,-0.0424076244444444,-0.1428064411111111,0.1343439744444444,0.1364310455555555,-0.1011970311111111
968,1778412952240,1.0540249,-0.03652652,-0.13083081,0.10773818,0.11125056,-0.08551861
969,1778412952250,1.04472256,-0.0403316192,-0.1574024789999999,0.0655897231999999,0.035933091,-0.0505170672999999
970,1778412952260,1.0217974333333335,-0.054007215,-0.2152666333333333,-0.0028251686666666,-0.0699674626666666,0.0020616093333333
971,1778412952270,1.0115529,-0.053844605,-0.24894746,-0.0757196086666666,-0.1571150066666666,0.050437318
972,1778412952280,0.983063436,-0.0513078721999999,-0.243392252,-0.183903205,-0.267352569,0.1132663532
973,1778412952290,0.9809820244444444,-0.0514054366666666,-0.1953095055555555,-0.24316811,-0.3079942666666666,0.1554351733333333
974,1778412952300,0.9925816466666666,-0.0481532144444444,-0.1943473766666666,-0.3023524277777778,-0.2792165777777777,0.1813622466666666
975,1778412952310,0.996795961,-0.0507224709,-0.222555661,-0.36354575,-0.239497941,0.205198865
976,1778412952320,0.9993571,-0.054820273,-0.23553203,-0.4097258,-0.22838052,0.22914408
977,1778412952330,1.00143038,-0.0603114458,-0.223186804,-0.434404024,-0.242796512,0.2494242079999999
978,1778412952340,1.0061867,-0.07460801,-0.19184047,-0.47142136,-0.2644205,0.2798444
979,1778412952350,1.014615488888889,-0.0862618078888888,-0.2297864533333333,-0.4617835711111111,-0.2652349666666667,0.2962015377777777
980,1778412952360,1.01228471,-0.0986581952,-0.252334849,-0.46922233,-0.257823342,0.29438258
981,1778412952370,1.0088699,-0.09729226,-0.21065253,-0.4750864499999999,-0.24120831,0.2914505
982,1778412952380,1.035832811111111,-0.09520542,-0.1590031777777777,-0.45513211,-0.1886754433333333,0.2784191
983,1778412952390,1.0532444,-0.096048287,-0.184891878,-0.416750548,-0.0806776556999999,0.2477138339999999
984,1778412952400,1.045894366666667,-0.1117748033333333,-0.2283873066666666,-0.3859027533333333,-0.0396287153333333,0.2324019266666666
985,1778412952410,1.03284074,-0.135764014,-0.290114492,-0.362201896,-0.0674833512,0.2298771
986,1778412952420,1.0274075,-0.14366692,-0.3346232,-0.35597125,-0.10743276,0.2346417
987,1778412952430,1.0252664777777778,-0.1472443655555555,-0.3619012111111111,-0.3562427333333333,-0.1725897988888889,0.2412252755555556
988,1778412952440,1.0191144,-0.15098442,-0.3949011,-0.35474956,-0.30901235,0.26090813
989,1778412952450,1.0284509333333334,-0.1290725728888889,-0.3171323311111111,-0.2977371288888888,-0.3296454122222222,0.2606366455555555
990,1778412952460,1.0533269888888888,-0.1100843286666666,-0.2575624611111111,-0.2433632333333333,-0.2862752533333333,0.2481482133333333
991,1778412952470,1.0968871999999998,-0.0903650239999999,-0.218506644,-0.140754476,-0.0235023519999999,0.175145178
992,1778412952480,1.1304825777777776,-0.0800554822222222,-0.2263512666666666,-0.0622809728888888,0.1779177466666666,0.1070425005555555
993,1778412952490,1.12769376,-0.090608943,-0.288547317,-0.0039246932,0.307469963,0.0469283417
994,1778412952500,1.0898196333333334,-0.1386056433333333,-0.4348424466666667,0.0547980899999999,0.3008931866666666,0.0206415473333333
995,1778412952510,1.0443394,-0.1581393066666666,-0.5220426566666667,0.0744809455555555,0.2039551097777777,0.018741134
996,1778412952520,1.0249684,-0.15976542,-0.52594537,0.08635853,0.1069746239999999,0.03061872
997,1778412952530,1.005265332222222,-0.1539656244444444,-0.5079395411111112,0.07923198,0.038084629,0.0445324616666666
998,1778412952540,0.97935593,-0.14220342,-0.47225317,0.0572414804444444,-0.0973877163333333,0.0822692496666666
999,1778412952550,0.976709433,-0.0987344189999999,-0.428869542,0.0216087216,-0.0360247185,0.0808914504
1000,1778412952560,0.9856571116666668,-0.0830231375,-0.4118533149999999,-0.0022143214,0.020234315,0.07521057
