id,timestamp,acc_x,acc_y,acc_z,gyro_x,gyro_y,gyro_z
0,1778413051210,0.897339,0.009604218,0.1629973,0.019165333,-0.02741177,0.1130831
1,1778413051220,0.87767321875,0.0150923429999999,0.1588812125,0.0072538112999999,-0.023746687,0.1350736
2,1778413051230,0.8502731944444445,0.0213664224444444,0.1602058266666667,-0.0087300254666666,-0.0367780946666666,0.18109076
3,1778413051240,0.8286459375,0.014055698,0.1747662875,-0.012140589125,-0.0494786275,0.21486552
4,1778413051250,0.8313046319999999,0.0066772186,0.172802758,-0.014431266,-0.057587626,0.263229348
5,1778413051260,0.8877381466666666,-0.0359235051111111,0.1169275555555555,-0.0180963493333333,-0.0748542433333333,0.3413363533333333
6,1778413051270,0.9267681666666666,-0.0669043101111111,0.0730462688888888,-0.0235939743333333,-0.0996953626666666,0.3663811
7,1778413051280,0.958592532,-0.090999213,-0.0037807088,-0.0441184441,-0.0883132444,0.3654241029999999
8,1778413051290,0.9700193511111111,-0.1099759272222222,-0.0298865682222222,-0.0703577272222222,-0.0749221144444444,0.36475217
9,1778413051300,0.9749112155555556,-0.1267316461111111,-0.0372718222222222,-0.1027326315555555,-0.0665738666666666,0.3654987622222222
10,1778413051310,0.984965986,-0.155326139,-0.0326238545,-0.1157097396,-0.149214712,0.376602616
11,1778413051320,1.0017692222222223,-0.1655652122222222,-0.0428548022222222,-0.1093840755555555,-0.1871822655555555,0.3830775822222222
12,1778413051330,1.0450949111111112,-0.1752947711111111,-0.0504704211111111,-0.1001534977777777,-0.1877252388888889,0.3760188977777778
13,1778413051340,1.07681284,-0.180351978,-0.056405728,-0.089443311,-0.161798164,0.35754417
14,1778413051350,1.0986922,-0.18366925,-0.0866514,-0.079181075,-0.10560022,0.33115557
15,1778413051360,1.1290462222222222,-0.1905226311111111,-0.1153217635555555,-0.078163,-0.1018672644444444,0.3121514366666666
16,1778413051370,1.14762483,-0.185208974,-0.1191228026,-0.0641542336,-0.127224212,0.266161426
17,1778413051380,1.1487255,-0.184401,-0.11863497,-0.060855657,-0.13431004,0.25846475
18,1778413051390,1.2336424555555554,-0.1759994244444444,-0.16723198,-0.0081191781111111,-0.0729538288888888,0.1166124388888888
19,1778413051400,1.27240352,-0.163375384,-0.177254246,-0.00313059213,-0.059481251,0.08064710715
20,1778413051410,1.3023185,-0.1319961833333333,-0.2302878288888888,0.0037584073666666,-0.0721393677777777,-0.0409607033333333
21,1778413051420,1.2981448333333332,-0.124123096,-0.2703409766666667,0.0026724567,-0.07566871,-0.08063184
22,1778413051430,1.28364809,-0.128230045,-0.3413674889999999,-0.119619168,-0.126369024,-0.219049834
23,1778413051440,1.2549513333333335,-0.1322841433333333,-0.4615919799999999,-0.2335472733333333,-0.2322492133333333,-0.2750848866666666
24,1778413051450,1.2480302,-0.13293459,-0.4773754199999999,-0.3753147422222222,-0.3751874666666667,-0.3302647444444444
25,1778413051460,1.14333808,-0.1940753489999999,-0.474503295,-0.7828313039999999,-0.641191102,-0.3794583099999999
26,1778413051470,1.0645675777777777,-0.2441504377777777,-0.4276028566666666,-0.9313893666666668,-0.7023980133333334,-0.3597890333333333
27,1778413051480,0.9819475666666668,-0.2728411333333333,-0.2732883,-1.1679909000000002,-0.5859297666666667,-0.2677547133333333
28,1778413051490,0.90402834,-0.2673448539999999,-0.168625688,-1.31732258,-0.3995399039999999,-0.146603346
29,1778413051500,0.8901027277777778,-0.2598559311111111,-0.1553579766666666,-1.3344127222222224,-0.3633777555555555,-0.115450136
30,1778413051510,0.8656026888888889,-0.2083082188888888,-0.1363595811111111,-1.3008840888888888,-0.3241477988888889,0.0229831293333333
31,1778413051520,0.875362105,-0.187117623,-0.145706676,-1.24279928,-0.332713236,0.0921921243999999
32,1778413051530,0.9541783222222224,-0.1543179444444444,-0.1396524555555555,-1.1978545333333337,-0.3077227844444444,0.1186485977777777
33,1778413051540,1.041192177777778,-0.1230525722222222,-0.1216161744444444,-1.1736921333333334,-0.1984489933333333,0.1020878466666666
34,1778413051550,1.05518962,-0.114415212,-0.121568074,-1.1720632,-0.15507884,0.0898709
35,1778413051560,1.0011864555555556,-0.09878286,-0.1327448766666666,-1.173149111111111,0.0086282188888888,0.0233564236444444
36,1778413051570,0.9604625333333332,-0.0958016588888888,-0.0657321582222222,-1.139281,-0.0457371898333333,0.00150166616
37,1778413051580,0.93770716,-0.094560396,0.0056893572,-1.05203167,-0.110792425,0.0086282180699999
38,1778413051590,0.9013228933333336,-0.0520660466666666,0.15233613,-0.8874083466666667,-0.1799199733333333,0.0385597343333333
39,1778413051600,0.9101072911111112,-0.0354390583333333,0.1910003133333333,-0.8272059555555555,-0.1756440415555555,0.0502337038888888
40,1778413051610,0.99305794,-0.0020549982,0.281162764,-0.66811416,0.1886449092,0.0302522102
41,1778413051620,1.0425878888888889,0.0212309147777777,0.27965046,-0.6201287333333333,0.4054838066666666,-0.0182236093333333
42,1778413051630,1.0154708,0.00960422,0.26343,-0.5346440699999999,0.5581617,-0.090099973
43,1778413051640,0.9551064933333334,-0.022857025,0.2338551066666666,-0.4060607088888889,0.5529695088888888,-0.1325538566666666
44,1778413051650,0.94054264,-0.028233355,0.21790905,-0.3852919,0.54563934,-0.13377555
45,1778413051660,0.924736867,-0.0411853279,0.198782943,-0.326467306,0.4098479699999999,-0.1249793505
46,1778413051670,0.9335232744444444,-0.0603592112222222,0.1589489711111111,-0.2700453988888889,0.1937658377777777,-0.1021472327777777
47,1778413051680,0.9953425777777776,-0.1176186488888889,0.2916464288888888,-0.2973299033333333,0.0756178033333333,-0.0806318366666666
48,1778413051690,0.98657587,-0.143703504,0.346959278,-0.2995900379999999,0.11931374,-0.0868013944999999
49,1778413051700,0.9625392833333332,-0.1651112555555555,0.3763837588888889,-0.2623079966666666,0.1538062466666666,-0.0851113833333333
50,1778413051710,0.90480282,-0.18436441,0.366429932,-0.145549631,0.205977694,-0.0538767275999999
51,1778413051720,0.9217475666666668,-0.1720696555555555,0.3343183011111111,-0.0933663077777777,0.2087909866666666,-0.0341395743333333
52,1778413051730,0.9695315377777778,-0.1390968688888889,0.3191412633333333,-0.0957418282222222,0.1130491633333333,-0.0178503143333333
53,1778413051740,0.985405078,-0.097487392,0.343782252,-0.137822412,-0.1014464568,0.0077424884
54,1778413051750,0.962593421111111,-0.08536744,0.3228067644444444,-0.1602201422222222,-0.2519320733333333,0.0310938222222222
55,1778413051760,0.8964445799999999,-0.07889688,0.1284221233333333,-0.18854819,-0.56047782,0.1029023166666666
56,1778413051770,0.89124103,-0.0391120385999999,0.159881272,-0.221218338,-0.9039776,0.1791767759999999
57,1778413051780,0.8310477944444444,-0.0009146874444444,0.21815299,-0.2014268799999999,-0.9179592111111112,0.1768827011111111
58,1778413051790,0.7527065333333334,-0.0265970788333333,0.2531346933333334,-0.17164808,-0.9854238333333332,0.24502611
59,1778413051800,0.70298616,-0.044966036,0.288486342,-0.15920207,-1.0267578,0.2810661
60,1778413051810,0.6179933733333334,-0.092891592,0.3739344233333333,0.1300001691111111,-1.0440651777777776,0.490043731111111
61,1778413051820,0.623902212,-0.12829407,0.411670372,0.19838791,-0.86531093,0.5548478589999999
62,1778413051830,0.6835696911111111,-0.1349401266666666,0.5136817266666668,0.2562419455555556,-0.3994856111111111,0.6052223822222222
63,1778413051840,0.76246318,-0.14748828,0.44339986,0.28977067,0.0899218,0.6447238333333334
64,1778413051850,0.95692778,-0.1997433599999999,0.441940444,0.284517374,0.30875273,0.664678176
65,1778413051860,1.3257277666666667,-0.32178707,0.6209983377777779,0.2701556677777778,0.3426343933333333,0.6593841622222222
66,1778413051870,1.4717525666666669,-0.3990070233333334,0.6567964866666667,0.4073926866666666,0.2539936733333333,0.4559041455555556
67,1778413051880,1.32938545,-0.35619457,0.452416658,0.476079084,0.318648459,0.278134024
68,1778413051890,1.1625135777777778,-0.3091711555555555,0.2812969066666666,0.4620295988888888,0.4550302977777777,0.1664982955555555
69,1778413051900,1.086476,-0.2871509,0.2218015566666666,0.4253787588888889,0.5245311466666667,0.0911604673333333
70,1778413051910,1.11827866,-0.259246835,0.398672671,0.344502578,0.30081173,-0.0427287628
71,1778413051920,1.0802459222222225,-0.2180242411111111,0.5078650222222222,0.3558779111111111,0.1927986666666666,-0.1385265833333333
72,1778413051930,1.0513906299999998,-0.156871956,0.396163371,0.393003866,0.375067858,-0.286731707
73,1778413051940,1.0088766444444444,-0.1115546088888888,0.4035330233333333,0.3456292522222222,0.3847149922222222,-0.3970507144444444
74,1778413051950,0.9869376844444444,-0.1010052133333333,0.4225110933333333,0.32947573,0.36421767,-0.41537613
75,1778413051960,0.95670215,-0.10026804,0.349206352,0.308523673,0.265016078,-0.376037579
76,1778413051970,1.0356363377777775,-0.1090544622222222,0.3396031444444444,0.2764677644444444,0.22419791,-0.3337262277777778
77,1778413051980,1.0931193777777777,-0.1032004639999999,0.3743070733333333,0.1813113388888888,0.1715547555555555,-0.2787499666666667
78,1778413051990,1.05901003,-0.0536342252999999,0.531643852,0.1494590589999999,0.092436461,-0.2112920599999999
79,1778413052000,1.03939,-0.036282603,0.5864062,0.17133418,0.0915083122222222,-0.1902449777777778
80,1778413052010,0.9807381,-0.06475988,0.4639091666666666,0.2594319311111111,0.2784954522222222,-0.1534584066666666
81,1778413052020,0.9951129,-0.078120414,0.42642121,0.274132992,0.347785895,-0.154605441
82,1778413052030,1.0450202777777775,-0.08057042,0.3298295377777778,0.2556989633333333,0.3417520777777778,-0.1732770022222222
83,1778413052040,1.0715462555555555,-0.0643499622222222,0.3519039911111111,0.2039805611111111,0.2424893977777777,-0.1516937333333333
84,1778413052050,1.0928382,-0.04481969,0.4077676799999999,0.14866495,0.13079767,-0.1221694499999999
85,1778413052060,1.0928382,-0.04481969,0.40776768,0.14866495,0.13079767,-0.12216945
86,1778413052070,1.0742608500000002,-0.0069241849,0.489766368,0.1379140398,0.061222166673,-0.06509341103
87,1778413052080,1.0750118666666666,0.0349715533333333,0.5311691966666667,0.1582348955555555,0.1021557175555555,-0.0142870384444444
88,1778413052090,1.1340872,0.0193066825555555,0.4391652022222223,0.1631216733333333,0.1915260633333333,-0.0897945459999999
89,1778413052100,1.1425972,0.015946053,0.4185000399999999,0.16271444,0.20906247,-0.11545013
90,1778413052110,1.0859915666666664,-0.0257806372222222,0.4944597555555556,0.0837793997777777,0.1603898222222222,-0.1575985977777777
91,1778413052120,1.0467786,-0.0344938833333333,0.5309354533333334,0.0179436381111111,0.0986263788888888,-0.1382550977777777
92,1778413052130,0.976627121,0.0055460543999999,0.688842028,-0.0542585073,0.0744164696,-0.08875611
93,1778413052140,0.9533076499999998,0.038894544,0.7413847333333333,-0.07449791,0.1061601633333333,-0.06474981
94,1778413052150,0.956500928,0.05007609,0.7483607400000001,-0.0680636516,0.12114628,-0.0621842499999999
95,1778413052160,1.0017962666666669,0.0461205766666666,0.84183772,0.0362690573333333,0.0788756493333333,-0.0539581746666666
96,1778413052170,1.0282307333333334,0.0474214666666666,0.8937411866666667,0.074752435,0.053830914,-0.047646087
97,1778413052180,1.08026725,0.116954997,1.01207134,0.172854504,-0.0336424139999999,0.0283891256
98,1778413052190,1.0701334999999998,0.1776628033333333,1.1145265,0.25739576,-0.13878959,0.1157301053333333
99,1778413052200,1.063131066666667,0.2095244211111111,1.176542277777778,0.3030056866666666,-0.1793091233333333,0.16337619
100,1778413052210,1.04773186,0.286547228,1.4140642,0.413528332,-0.0327872264,0.173068302
101,1778413052220,1.0152523333333334,0.2838106044444444,1.4390269888888887,0.4353559333333334,0.0862736897777777,0.1463403366666666
102,1778413052230,0.9537548222222222,0.24273435,1.4512397777777777,0.3834339122222222,0.1927392788888889,0.0978119155555555
103,1778413052240,0.942640352,0.209106705,1.57965007,0.283051359,0.332087111,0.0307408892
104,1778413052250,0.9494049777777778,0.2228381955555555,1.6303796555555554,0.2535270777777778,0.4099633455555555,0.0032578519999999
105,1778413052260,0.95317754,0.315433036,1.60711818,0.1828724,0.7117897550000001,-0.13347013
106,1778413052270,0.946234051111111,0.3244904755555555,1.6925987111111112,0.10115461,0.7494586822222222,-0.2553341488888889
107,1778413052280,0.9203585666666666,0.1928771066666667,2.0550793333333335,0.0076271072222222,0.7734174622222222,-0.4210773888888889
108,1778413052290,0.92829198,-0.0311908399999999,2.19028028,-0.0954296132,0.70311572,-0.544753596
109,1778413052300,0.9421722,-0.0814681633333333,2.144698311111111,-0.1973630511111111,0.4765965933333332,-0.5946258644444444
110,1778413052310,0.9325103777777776,-0.1886424433333333,1.7361107111111111,-0.4881178644444444,-0.8183910466666666,-0.7442834344444444
111,1778413052320,0.79329016,-0.255874684,1.61989938,-0.57037864,-1.71212846,-0.7945901
112,1778413052330,0.6824483533333333,-0.2664247555555555,1.452320488888889,-0.4160378933333333,-2.3845186333333332,-0.8136485333333333
113,1778413052340,0.5816362511111111,-0.2292715077777777,1.2544058444444444,-0.2144922288888889,-2.482042088888889,-0.846498548888889
114,1778413052350,0.499879782,-0.177583535,1.00864729,-0.037093701,-2.2631737999999997,-0.8754052040000001
115,1778413052360,0.4610025066666666,-0.090869124,0.7133953,0.3903568466666666,-1.1069825,-0.7938978000000001
116,1778413052370,0.439418943,-0.1242176098,0.6579377799999999,0.47791162,-0.78974915,-0.7666133
117,1778413052380,0.5310811166666667,-0.18864583,0.3715189666666667,0.73107388,0.2135080888888889,-0.5568212355555555
118,1778413052390,0.6062751888888889,-0.1960412466666666,-0.1031428688888888,0.8296239155555556,0.7820372055555556,-0.3295860444444444
119,1778413052400,0.6024863519999999,-0.162783882,-0.3333365199999999,0.8167486159999999,0.744653353,-0.2298007375
120,1778413052410,0.5847156888888888,-0.1357362366666666,-0.4731712666666666,0.8211398888888889,0.0652758133333333,0.0159159632222222
121,1778413052420,0.6134538288888889,-0.125576434,-0.5306610666666667,0.77050745,-0.1740151066666666,0.1075854723333333
122,1778413052430,0.651983152,0.0821816212,-0.585436592,0.6432069100000001,0.081319044,-0.0456760989999999
123,1778413052440,0.6594795366666667,0.1644913099999999,-0.7394029066666667,0.6322523666666666,0.23876492,-0.1665576833333333
124,1778413052450,0.6593169266666666,0.1686378966666666,-0.86614811,0.616641811111111,0.4172935166666666,-0.2198371444444444
125,1778413052460,0.69115316,0.0451367815,-1.157552275,0.54461616,0.70849116,-0.102378002
126,1778413052470,0.7111391,0.003994135,-1.2337,0.5328879,0.7398887,-0.06902574
127,1778413052480,0.8279616333333334,-0.0698719605555555,-1.3504006222222222,0.4514415888888888,0.6258639,0.1995094955555555
128,1778413052490,0.97906328,-0.177144476,-1.43810224,0.269246197,0.425180246,0.6420768069999999
129,1778413052500,1.0530459444444444,-0.1896756977777778,-1.3517082444444444,0.186537478,0.4342615033333333,0.7166001799999999
130,1778413052510,1.2152843,-0.19218194,-1.2674702999999998,-0.0443627811999999,0.54136335,0.818000816
131,1778413052520,1.3127425333333334,-0.2004486888888889,-1.2451911444444446,-0.21540002,0.3654393888888889,0.8832936066666667
132,1778413052530,1.3149141,-0.2194030533333333,-1.2229574666666667,-0.3204742333333333,-0.0043013777777777,0.9138359666666666
133,1778413052540,1.22846188,-0.264954496,-1.13216362,-0.394821132,-0.540645676,0.94420188
134,1778413052550,1.1863429333333333,-0.2649544888888889,-1.060793588888889,-0.3630977966666667,-0.7683695333333334,0.94648239
135,1778413052560,1.1559618,-0.2477786866666666,-0.9393739333333334,-0.1639106833333333,-0.8225313000000001,0.8760313233333332
136,1778413052570,1.15682361,-0.234678333,-0.8901952700000001,-0.0543806779999999,-0.7825411649999999,0.8149465850000001
137,1778413052580,1.229624577777778,-0.2026981444444444,-0.8451306333333333,0.1137109166666666,-0.7421030444444444,0.6249730922222222
138,1778413052590,1.26630864,-0.195676044,-0.8339663469999999,0.1679677219999999,-0.75462542,0.332988107
139,1778413052600,1.2363933,-0.19605818,-0.8604668733333334,0.1230093633333333,-0.8245674333333333,0.24726587
140,1778413052610,1.1793778,-0.1533219499999999,-0.8184590111111111,-0.0370326166666666,-1.1633840666666666,0.2138728966666666
141,1778413052620,1.13924334,-0.139471548,-0.72168234,-0.126827165,-1.3346249499999998,0.2416664449999999
142,1778413052630,1.0744732666666668,-0.1322942966666666,-0.5597650444444445,-0.2486318088888889,-1.4250303333333332,0.3061786977777777
143,1778413052640,1.0347690444444444,-0.1197054904444444,-0.3982515777777777,-0.3578037911111111,-1.4410480666666663,0.34527292
144,1778413052650,1.0275294499999998,-0.1090002659999999,-0.271619525,-0.425241328,-1.4097591,0.345327216
145,1778413052660,1.0088427555555557,-0.1181064835555555,-0.1307291755555555,-0.4666703488888889,-1.197455733333333,0.3010204344444445
146,1778413052670,0.9825116,-0.138163545,-0.1233913499999999,-0.44179529,-1.07318227,0.29389389
147,1778413052680,0.9476162266666668,-0.16147283,-0.1341643333333333,-0.36289418,-0.9729354788888888,0.3105903833333333
148,1778413052690,0.9364774133333332,-0.1899501099999999,-0.1080652473333333,-0.2325800999999999,-0.9422573833333332,0.3545713833333333
149,1778413052700,0.933347175,-0.214799115,-0.04555143775,-0.1287055224,-0.87587864,0.38747569
150,1778413052710,0.9420129744444444,-0.2307756511111111,-0.0036079338333333,-0.038865156,-0.7915817,0.4142308
151,1778413052720,0.99556276,-0.2428088833333333,-0.0524082062222222,0.1688907822222222,-0.54758215,0.4185746066666666
152,1778413052730,1.01777275,-0.223336195,-0.11265901,0.263809665,-0.441260785,0.36139251
153,1778413052740,1.0244805,-0.1984973533333333,-0.1125472133333333,0.3526879488888889,-0.3401655688888889,0.2388497622222222
154,1778413052750,1.0192769666666668,-0.1793803866666666,-0.0877286933333333,0.3636832,-0.32917032,0.21753798
155,1778413052760,1.0023573200000002,-0.143496176,-0.0897826779999999,0.410290845,-0.269734881,0.1542541999999999
156,1778413052770,0.9873781066666668,-0.1352653455555555,-0.1225410277777777,0.4447901444444444,-0.2371359977777777,0.1122686306999999
157,1778413052780,0.980221836,-0.166021886,-0.17232713,0.5609869,-0.18012358,-0.0066429637
158,1778413052790,0.9765847788888888,-0.1980095266666666,-0.2111877877777778,0.6027959555555555,-0.1948517822222222,-0.0546878030444444
159,1778413052800,0.98011479,-0.2035383,-0.2223063211111111,0.6141984222222222,-0.1987883555555555,-0.0693651044444444
160,1778413052810,0.98447817,-0.206725477,-0.267555249,0.59030752,-0.17621416,-0.06646018
161,1778413052820,0.9792475111111112,-0.1878835911111111,-0.2818524944444444,0.5718463733333333,-0.1634270888888888,-0.0576911293333333
162,1778413052830,0.955757,-0.1759452266666666,-0.2929642433333333,0.55895068,-0.1475450633333333,-0.0364472193333333
163,1778413052840,0.9534215,-0.180791038,-0.292102408,0.538385484,-0.1169619784,-0.0041079475
164,1778413052850,0.9653747777777778,-0.1793600566666666,-0.2756393911111111,0.51598776,-0.0721393648888888,0.0160941287222222
165,1778413052860,1.0080568166666666,-0.1637493866666667,-0.24146734,0.4342699933333333,0.1801999437777778,0.0160941287222222
166,1778413052870,1.01682154,-0.1735711,-0.26677166,0.420125486,0.2273878959999999,0.0075286928
167,1778413052880,1.0081109888888888,-0.1905971611111111,-0.2741826588888889,0.4352201833333333,0.2359397577777778,-0.0016543778888888
168,1778413052890,1.0080893,-0.202383758,-0.268101006,0.4439485,0.265260426,-0.0177145701999999
169,1778413052900,1.023179611111111,-0.2025897355555555,-0.257935111111111,0.4178449688888889,0.3177254222222222,-0.0381440175555555
170,1778413052910,1.0303548666666669,-0.1870129433333333,-0.2513053166666666,0.3946327733333333,0.3454850333333333,-0.0655642756666666
171,1778413052920,1.03241386,-0.176205408,-0.24323981,0.368569974,0.335141354,-0.102866682
172,1778413052930,1.0334816,-0.1771377066666666,-0.2415486455555555,0.3270323599999999,0.3452814199999999,-0.1331647033333333
173,1778413052940,1.0276616,-0.1870231066666666,-0.2521183766666667,0.2920783177777777,0.3486071344444444,-0.1434133611111111
174,1778413052950,1.0287796,-0.192188042,-0.26002738,0.2714452539999999,0.33734039,-0.141716564
175,1778413052960,1.052995,-0.1914237644444444,-0.2720416277777777,0.2014014344444444,0.2797171333333333,-0.1430061299999999
176,1778413052970,1.0647571999999998,-0.1740040533333333,-0.2568442566666666,0.13522631,0.2440165022222222,-0.1456531288888889
177,1778413052980,1.06573286,-0.1460817019999999,-0.2483132689999999,0.077134735,0.207352095,-0.15350591
178,1778413052990,1.0484690444444444,-0.1350485355555555,-0.2622442977777777,0.0416988083333333,0.1543152838888888,-0.1627568566666666
179,1778413053000,1.0339391222222225,-0.1348317155555555,-0.2756190622222222,0.020726387,0.1119292731111111,-0.1675757666666666
180,1778413053010,1.0153093,-0.151764944,-0.305712952,-0.041797224,-0.0117740797,-0.1692047
181,1778413053020,1.013423,-0.1626111133333333,-0.31477446,-0.0903120674444444,-0.0709176725555555,-0.1556303088888889
182,1778413053030,1.002284125,-0.19063612,-0.33340361,-0.1543152922,-0.1007134409999999,-0.1158777272
183,1778413053040,0.9847762966666668,-0.2222927777777777,-0.3730400666666666,-0.2017238222222222,-0.1722504455555555,-0.0664466086666666
184,1778413053050,0.9817950722222224,-0.2266561822222222,-0.4091837622222222,-0.2376704766666666,-0.2788772266666666,-0.0113770293333333
185,1778413053060,1.0079429599999998,-0.19914577,-0.400316044,-0.293786982,-0.3700970799999999,0.0359941756
186,1778413053070,1.0224478,-0.1613915377777778,-0.3610813755555556,-0.3680524377777778,-0.2767053311111111,0.034351674
187,1778413053080,1.008463288888889,-0.1564589977777777,-0.3647740022222222,-0.4256078311111111,-0.1920011777777777,0.0335372111111111
188,1778413053090,0.98867358,-0.154496824,-0.400950214,-0.5360490179999999,-0.0894738539999999,0.0488219681999999
189,1778413053100,0.9874052,-0.15147226,-0.41539007,-0.57709795,-0.06772769,0.058106847
190,1778413053110,0.99067368,-0.157106729,-0.407706716,-0.6800868099999999,-0.111464362,0.0842511094
191,1778413053120,0.9883808666666668,-0.1644540433333333,-0.4027877388888889,-0.7400584533333334,-0.1924762777777778,0.1070424988888888
192,1778413053130,0.9910639111111113,-0.1767311911111111,-0.3726538722222222,-0.7706007944444444,-0.3014785622222222,0.1254357888888889
193,1778413053140,1.00004008,-0.183766817,-0.319869274,-0.745447459,-0.3620949639999999,0.129514891
194,1778413053150,1.0032598,-0.18610841,-0.30068827,-0.7340857,-0.3835357,0.13079767
195,1778413053160,1.0143715444444443,-0.1940763655555555,-0.2406068577777777,-0.6879327755555554,-0.3737621622222222,0.1199381588888888
196,1778413053170,1.01657764,-0.191700216,-0.224019166,-0.671962514,-0.353237697,0.1180920425
197,1778413053180,1.0187078333333333,-0.1903126022222222,-0.2216016733333333,-0.5612838,-0.1406900026666666,0.1123365072222222
198,1778413053190,1.02748066,-0.190788571,-0.2487858429999999,-0.479484548,-0.0007788301499999,0.1048366623
199,1778413053200,1.0293589,-0.16976601,-0.27458918,-0.44271156,0.0086282175,0.098422766
200,1778413053210,1.007972111111111,-0.1535049033333333,-0.3294433266666667,-0.3726677311111111,-0.0432937991666666,0.0789435234444444
201,1778413053220,0.94712843,-0.1601313,-0.390266675,-0.257624835,-0.2415137399999999,0.08712209
202,1778413053230,0.9457733488888888,-0.15168907,-0.3783012033333333,-0.2217205888888889,-0.2652349755555556,0.0972689444444444
203,1778413053240,0.9575897555555556,-0.1335172751111111,-0.3434448377777778,-0.2023770888888889,-0.2207788644444444,0.1023593388888888
204,1778413053250,0.954250792,-0.1208058284,-0.310054678,-0.1977618,-0.19661646,0.10208785
205,1778413053260,0.9195252044444444,-0.1068863188888888,-0.3048077633333333,-0.2156799933333333,0.0393741953333333,0.1041240066666666
206,1778413053270,0.91246176,-0.09875576,-0.31605503,-0.24785128,0.15217732,0.10819632
207,1778413053280,0.906412656,-0.099438728,-0.316457498,-0.2695974399999999,0.168059352,0.111861404
208,1778413053290,0.8885308333333334,-0.0863702188888888,-0.3009186444444444,-0.33241968,0.1569283555555555,0.1431503577777778
209,1778413053300,0.8803623,-0.0679186008,-0.2824433039999999,-0.367088656,0.116503837,0.172701792
210,1778413053310,0.9049274555555554,-0.0454972315555555,-0.2187593822222222,-0.4395215777777778,0.0585140761111111,0.2306372666666666
211,1778413053320,0.9319886555555555,-0.0445486685555555,-0.1477355888888889,-0.5088866666666667,0.0817262733333333,0.2666093766666667
212,1778413053330,0.945908829,-0.0358923384999999,-0.0575765338,-0.61509262,0.293221952,0.281432606
213,1778413053340,0.92850947,-0.0241951782222222,-0.0646446925555555,-0.6704218333333333,0.4498720355555556,0.2820841722222222
214,1778413053350,0.9349630955555556,-0.0195573737,-0.0689809877777777,-0.7123666955555554,0.5600281577777778,0.2809303455555555
215,1778413053360,1.0611686299999998,-0.03469409913,-0.098069743,-0.772202556,0.679781352,0.227800212
216,1778413053370,1.0848837666666666,-0.0629135622222222,-0.0885620744444444,-0.7845145333333333,0.6840980155555556,0.1767469566666666
217,1778413053380,1.11679078,-0.100024128,-0.04966143224,-0.7896728,0.6824691,0.15584241
218,1778413053390,1.1435999444444445,-0.1317251722222222,-0.0116571842222222,-0.7331354722222222,0.7290292577777778,0.0304151041111111
219,1778413053400,1.1420822222222222,-0.1385988866666666,-0.0181887306666666,-0.6994031222222222,0.7227850422222223,-0.0198186002222222
220,1778413053410,1.12118128,-0.137471436,0.0008476104,-0.4651296289999999,0.47917914,-0.188873975
221,1778413053420,1.1062535999999998,-0.1505778944444444,-0.0143944713333333,-0.37572197,0.38926242,-0.2473931466666666
222,1778413053430,1.0594012666666666,-0.17074167,-0.04753326,-0.3202027422222222,0.2730656911111111,-0.2871660977777777
223,1778413053440,1.0396338,-0.1565945,-0.0434629015,-0.301361496,0.150757104,-0.310188252
224,1778413053450,1.0350772666666666,-0.1335003344444444,-0.0259127596444444,-0.3101577,0.07521057,-0.31825143
225,1778413053460,1.011065111111111,-0.08046201,0.0526792271555555,-0.2995696866666666,0.0511839103333333,-0.3369840533333333
226,1778413053470,1.0175044400000002,-0.064784264,0.099780214,-0.274362058,0.1279877756,-0.349038122
227,1778413053480,0.9907116233333334,-0.0445757721111111,0.1967289566666666,-0.21954869,0.4319962766666666,-0.3907386233333333
228,1778413053490,0.913882579,-0.0444050317,0.193099679,-0.17054092,0.6284091,-0.406213415
229,1778413053500,0.90636384,-0.04481969,0.19031598,-0.14332004,0.6959077,-0.40377003
230,1778413053510,0.8428371377777777,-0.1268197288888889,0.0047326613333333,-0.0998820108888888,0.6033983022222222,-0.2967360177777778
231,1778413053520,0.827158064,-0.169863564,-0.0249709685999999,-0.072706094,0.4289369359999999,-0.202801284
232,1778413053530,0.8005108333333334,-0.2012481877777777,-0.0098684621666666,0.0152966333333333,-0.1972272999999999,0.0823116666666666
233,1778413053540,0.8016016533333334,-0.20614007,0.0194218648333333,0.0790283666666666,-0.4239195111111111,0.2317232177777778
234,1778413053550,0.8331705420000001,-0.18505348,0.0431732503999999,0.115557036,-0.45708174,0.323886495
235,1778413053560,0.87359766,-0.15130964,0.0542308066666666,0.1499545133333333,-0.2538324933333333,0.3990953466666667
236,1778413053570,0.897354155,-0.12755317,0.06073525,0.144144676,-0.1595991199999999,0.39529452
237,1778413053580,0.9202162833333334,-0.073205492,0.1158807516666666,0.1066522311111111,0.1618066544444444,0.3245041166666667
238,1778413053590,0.9215171666666668,-0.0474214666666666,0.1306885266666666,0.0845259866666666,0.3951672833333333,0.2448224899999999
239,1778413053600,0.9205415,-0.032623854,0.11345174,0.07719582,0.47844613,0.21326205
240,1778413053610,0.8653756666666667,-0.0778500713333333,0.0799335266666666,0.0528298046666666,0.4798714255555555,0.1024272033333333
241,1778413053620,0.8334564611111112,-0.1046368666666666,0.0550370882222222,0.0456353799999999,0.43242896,0.0809118066666666
242,1778413053630,0.8033852899999999,-0.142310135,0.01143359375,0.038101597,0.27346869,0.109723435
243,1778413053640,0.8070490766666666,-0.2031216133333333,0.0055795935,0.0566306313333333,0.0513875273333333,0.2057282633333333
244,1778413053650,0.8479661,-0.2233768666666666,0.0171351456666666,0.0730556366666666,-0.0306017514444444,0.2556819955555555
245,1778413053660,0.99855523,-0.210774489,0.0663209406,0.079517045,-0.041766683,0.30409503
246,1778413053670,1.0359751,-0.18709763,0.0997788566666666,0.0485538738888888,0.0517268844444444,0.2819484333333333
247,1778413053680,0.98862478,-0.12474813,0.1222327449999999,-0.0189515376,0.288564252,0.188583822
248,1778413053690,0.9433883533333334,-0.057513518,0.1108499666666666,-0.0320100941111111,0.3693759422222222,0.0921106755555555
249,1778413053700,0.9533957000000002,-0.0496980222222222,0.0791272471555555,-0.0231867443333333,0.33761188,0.07419249
250,1778413053710,0.97641368,-0.0986337965,-0.0218762764,-0.032268006,0.250477912,0.0392927494
251,1778413053720,0.9478060144444443,-0.208301461111111,-0.04030723,-0.0669641296666666,0.2774773633333333,0.0289897923333333
252,1778413053730,0.9371278766666666,-0.2446992433333333,-0.043071618,-0.0594303486666666,0.31514628,0.0499622143333333
253,1778413053740,0.9481529,-0.26149088,-0.0291602379999999,-0.0156529615,0.28169221,0.062443864
254,1778413053750,0.9523049033333332,-0.2611839533333333,-0.0197335363333333,0.000839915,0.26464957,0.06482617
255,1778413053760,0.980298011,-0.230092692,0.0574576227,0.120932478,0.150833456,0.0087503868799999
256,1778413053770,1.0119864688888889,-0.2087418433333333,0.1292961533333333,0.1590493588888888,0.1586251533333333,-0.0371768435333333
257,1778413053780,0.9939096444444444,-0.1779846344444444,0.1697727766666666,0.1839583577777777,0.2954464588888889,-0.1687974537777777
258,1778413053790,0.952159192,-0.163082678,0.184071714,0.1988155159999999,0.3480302249999999,-0.22949532
259,1778413053800,0.9546999933333332,-0.1522039966666666,0.1880394233333333,0.2290931733333333,0.3619779066666666,-0.2634787866666667
260,1778413053810,1.0204287888888888,-0.1359970988888889,0.1796920477777777,0.3067386444444444,0.3574983644444444,-0.3503548244444444
261,1778413053820,1.10965315,-0.13952034,0.169826975,0.358063384,0.320969688,-0.45141612
262,1778413053830,1.2017537333333332,-0.1156740944444444,0.2185798266666666,0.3762394777777778,0.2929521755555556,-0.5851238066666666
263,1778413053840,1.1521302666666666,-0.1021705966666666,0.22254346,0.3594072533333333,0.22901682,-0.6371137
264,1778413053850,1.0628089800000002,-0.09548728,0.2430659989999999,0.3282540479999999,0.143564372,-0.627462314
265,1778413053860,0.8778018711111112,-0.0880505288888889,0.3132161133333333,0.1911527733333333,-0.1892862911111111,-0.4343802722222222
266,1778413053870,0.8061903300000001,-0.0843646775,0.358969115,0.0768904005,-0.36490488,-0.1896680719999999
267,1778413053880,0.83957472,-0.0829553788888888,0.4533225244444444,-0.0804706414444444,-0.4422449388888889,0.1746938346666667
268,1778413053890,0.9142741822222222,-0.1294350622222222,0.5237669733333333,-0.22916954,-0.4497108444444444,0.4598407422222222
269,1778413053900,0.93508502,-0.133709026,0.554678672,-0.287434192,-0.4188426919999999,0.559245952
270,1778413053910,0.9978123,-0.1013575433333333,0.6337564800000001,-0.4203138177777778,-0.0482484462222222,0.7635675444444445
271,1778413053920,1.0018775666666668,-0.0165964966666666,0.5621669666666667,-0.4315126833333333,0.185884212,0.7369617611111111
272,1778413053930,0.93762178,0.046850294,0.4043162860000001,-0.409664706,0.344181884,0.6124507450000001
273,1778413053940,0.9462340333333334,0.0323223467777777,0.3234606111111111,-0.3718532766666667,0.28582562,0.4854963266666667
274,1778413053950,0.95239698,0.0197724954999999,0.31146025,-0.3578038,0.2506001,0.44171894
275,1778413053960,0.9024137388888888,-0.1051721237777777,0.3889522277777777,-0.3021488133333333,0.1093586288888888,0.2546639155555555
276,1778413053970,0.8923250877777777,-0.1297399522222222,0.41064725,-0.3024202866666667,0.1269289733333333,0.1600504666666666
277,1778413053980,0.921294667,-0.194453413,0.443141672,-0.270696954,0.2427659659999999,0.073133688
278,1778413053990,0.9407866444444444,-0.2098530311111111,0.4420278077777778,-0.2523308222222222,0.2482245655555555,0.0452111805555555
279,1778413054000,0.95444596,-0.218092,0.43975127,-0.2441862,0.23410721,0.037338037
280,1778413054010,1.072669256,-0.230995188,0.480256667,-0.199380544,0.138563063,0.0410642073
281,1778413054020,1.122352,-0.2466505733333333,0.5168594,-0.1508538199999999,0.0328584916666666,0.046500748
282,1778413054030,1.1148719666666669,-0.2861955666666667,0.5353970733333333,-0.1109451333333333,0.0116145818888888,0.05613856
283,1778413054040,1.13832564,-0.31884178,0.5567367480000001,-0.07215633,-0.0151948253,0.064215318
284,1778413054050,1.1485291222222225,-0.3233623666666667,0.5603883844444444,-0.0524395386666666,-0.0251719971111111,0.0634008552222222
285,1778413054060,1.16732721,-0.305185476,0.5317962489999999,0.0250905521999999,0.1564532456,0.0367271904
286,1778413054070,1.2351499333333331,-0.2924357677777778,0.4886768666666666,0.0669471633333333,0.1881494322222222,0.0294648963333333
287,1778413054080,1.2739869333333331,-0.3048145433333333,0.511727,0.1362443888888888,0.1253000411111111,0.0532200678888888
288,1778413054090,1.31220761,-0.29769725,0.555663519,0.202541683,0.0788145681999999,0.0776539545
289,1778413054100,1.3064549333333335,-0.2719196622222222,0.5778961944444445,0.2368305766666666,0.0640795758888888,0.0869524066666666
290,1778413054110,1.206787877777778,-0.2613499399999999,0.5959358777777778,0.437120591111111,-0.0221856311111111,0.1780365277777777
291,1778413054120,1.1496189,-0.281223725,0.529976035,0.5203654999999999,-0.1364480069999999,0.3088596449999999
292,1778413054130,1.3024099555555555,-0.3214042455555555,0.5231741444444444,0.4734999388888889,-0.2452127622222222,0.4710395944444444
293,1778413054140,1.39904815,-0.390403881,0.60802936,0.360751126,-0.185621213,0.625583949
294,1778413054150,1.4267025444444446,-0.4223485066666667,0.6526803466666666,0.3228243055555555,-0.1132697452444444,0.6727549311111112
295,1778413054160,1.4256218,-0.46678537,0.7155193533333333,0.2822369,0.0289897924666666,0.7359436766666667
296,1778413054170,1.416668,-0.456657735,0.73309152,0.28274593,0.0413085465,0.7572215200000001
297,1778413054180,1.411383133333333,-0.3285659233333333,0.7131514133333333,0.3087748099999999,-0.0727502066666666,0.7573233500000001
298,1778413054190,1.4092421,-0.2137895688888889,0.6553905900000001,0.3306295533333333,-0.2435159422222222,0.7122564266666667
299,1778413054200,1.41672288,-0.196822452,0.662306972,0.322878574,-0.275171404,0.6820262699999999
300,1778413054210,1.4864451111111112,-0.2075764777777777,0.778256811111111,0.2516945144444444,-0.2885829,0.5361287633333334
301,1778413054220,1.5089396666666668,-0.2337467,0.8768228611111111,0.1872162033333333,-0.2587192666666666,0.3766297633333333
302,1778413054230,1.3215466,-0.333824352,1.124388752,0.183605418,-0.3484731,0.216316294
303,1778413054240,1.1262141,-0.38442622,1.4924448,0.2260389433333333,-0.41061662,0.12224581
304,1778413054250,1.08077955,-0.344099341,1.6131337300000002,0.239925538,-0.3766942319999999,0.0902374108
305,1778413054260,0.8947067166666667,-0.14097367,1.8339619444444448,0.2477579622222222,0.0665229533333333,-0.1436678835555555
306,1778413054270,0.8503138333333333,0.0144351233333333,2.0201754666666667,0.2441607466666666,0.15665686,-0.2667366333333333
307,1778413054280,0.85193994,0.2031886779999999,2.3184584,0.280913384,0.0482722031369999,-0.61567294
308,1778413054290,0.8040543911111111,0.2060824877777777,2.251032388888889,0.30382016,0.1773493135355555,-0.8680818333333333
309,1778413054300,0.7617314733333334,0.1634241733333333,2.1563757666666667,0.28610559,0.3548513433333333,-0.9804098666666666
310,1778413054310,0.66794752,0.055863014,2.02233756,0.194967176,0.650705052,-1.21277616
311,1778413054320,0.5576849644444444,-0.0005454255555555,2.003050622222222,0.144796252,0.7435538366666666,-1.3190228666666668
312,1778413054330,0.422969796,-0.0760867569999999,2.05156797,0.1329050896,1.014525658,-1.40348272
313,1778413054340,0.4521605455555555,-0.0736899377777777,2.085873888888889,0.20832437,1.3827036666666668,-1.4701057000000002
314,1778413054350,0.4164165933333333,-0.0806856033333333,1.8858113666666665,0.32357089,1.4547836666666667,-1.5403531
315,1778413054360,0.223281324,-0.071467584,1.1146260099999998,0.565873636,0.96944518,-1.59406702
316,1778413054370,0.1033833988888889,-0.0517306588888888,0.6208424666666666,0.6831563133333334,-0.0308477866666666,-1.4086138333333331
317,1778413054380,0.0589228166666666,-0.1338492766666666,0.1924163822222222,0.72387945,-0.8133685766666667,-1.1272168
318,1778413054390,0.111424184,-0.151252734,0.0919748784,0.587375429,-1.09889892,-0.692456422
319,1778413054400,0.1523530611111111,-0.13438454,0.0329151971111111,0.4586359766666666,-1.058521911111111,-0.4719134244444444
320,1778413054410,0.2536225133333333,-0.01113886,-0.1128622733333333,0.0833042933333333,-0.6392770999999999,-0.10117158
321,1778413054420,0.32617145,0.0949323684,-0.240084113,-0.254143016,-0.263198822,0.158163628
322,1778413054430,0.2619766555555556,-0.001067136,-0.5911320611111112,-0.6473454,-0.3221116377777777,0.5456308277777778
323,1778413054440,0.261594524,-0.144404768,-0.6024863979999999,-0.7279772,-0.536614044,0.761925046
324,1778413054450,0.3940372066666666,-0.2464066533333333,-0.5670351,-0.6573225333333333,-0.79097084,0.9208267766666668
325,1778413054460,0.5062998733333334,-0.1821346133333333,-0.4724970666666667,-0.33113012,-0.8614219066666666,0.9220484833333334
326,1778413054470,0.545824524,-0.098944799,-0.4565815279999999,-0.23502348,-0.8141830599999998,0.9041303
327,1778413054480,0.6908871755555555,-0.0621377729999999,-0.5952278,-0.0659884736666666,-0.2825847333333333,0.8933386644444445
328,1778413054490,0.9494151044444444,-0.0993723345555555,-0.9659404888888888,0.3142045588888889,0.9017632833333332,0.8974109666666666
329,1778413054500,1.01537016,-0.151807642,-1.07847146,0.34352523,0.97628665,0.90229774
330,1778413054510,1.215037,-0.3181045977777778,-1.3470907555555556,0.6832241444444445,0.94092535,0.7588843777777777
331,1778413054520,1.2838736999999998,-0.31425004,-1.42702834,0.76415462,0.8219866140000001,0.67897198
332,1778413054530,1.3196399555555556,-0.3293654222222222,-1.3818929666666666,1.0079912777777775,0.3099456033333333,0.4906545666666666
333,1778413054540,1.2984497777777777,-0.4074526177777777,-1.2992560000000002,1.1164505666666669,-0.0665059966666666,0.5030072733333334
334,1778413054550,1.32295524,-0.4162133,-1.2113390000000002,1.14171927,-0.168517492,0.52937553
335,1778413054560,1.5482713,-0.3455350655555556,-1.0810793555555556,1.2239597111111111,0.0034699522222222,0.4231899088888889
336,1778413054570,1.5672561333333332,-0.3150691799999999,-1.0991292,1.215407922222222,0.2632072933333333,0.2129226911111111
337,1778413054580,1.52984233,-0.233208715,-1.1518202299999998,1.1351833,0.332148195,-0.0579923149999999
338,1778413054590,1.5038072666666666,-0.1950012099999999,-1.2170933666666666,0.8725189400000001,0.0214814633333333,-0.4825693166666666
339,1778413054600,1.45472816,-0.195480919,-1.20184152,0.63581563,-0.383841135,-0.642916725
340,1778413054610,1.1911772333333337,-0.2795996566666667,-1.0264014,0.4268040666666666,-0.6690050066666667,-0.7038996333333333
341,1778413054620,1.0687446444444444,-0.3284846088888888,-0.9439507333333332,0.3349733666666666,-0.68488704,-0.6731536555555555
342,1778413054630,0.991942036,-0.300627308,-0.73588438,0.207794968,-0.622926764,-0.363637373
343,1778413054640,1.0052382133333333,-0.2644395555555555,-0.5699959555555556,0.1918314922222222,-0.6251597466666667,-0.0426999197777777
344,1778413054650,1.0114716444444445,-0.2633012666666666,-0.5368571777777779,0.1930531855555555,-0.641449,0.0721563357777777
345,1778413054660,1.06226314,-0.257929664,-0.438275584,0.1315612239999999,-0.59122376,0.377335628
346,1778413054670,1.0964799333333335,-0.2323644966666666,-0.4101323388888889,0.0528298017777777,-0.4598237422222222,0.4768087222222222
347,1778413054680,1.12213258,-0.189739732,-0.388754391,-0.0839456868,-0.2639929159999999,0.5304139510000001
348,1778413054690,1.1386945333333331,-0.1744275166666666,-0.3671792811111111,-0.1498357466666666,-0.34423788,0.5164459166666666
349,1778413054700,1.1582993333333331,-0.1752134699999999,-0.3242770466666667,-0.1759240166666666,-0.4486927599999999,0.4928264933333333
350,1778413054710,1.1711659,-0.172449085,-0.184888825,-0.21761434,-0.54449397,0.42278266
351,1778413054720,1.1503516666666669,-0.17017253,-0.08943611,-0.2345483788888889,-0.5466319355555556,0.3573541288888889
352,1778413054730,1.1398937111111112,-0.1678146744444444,0.0003692629999999,-0.2120149055555555,-0.5036011466666667,0.25670008
353,1778413054740,1.1037168300000002,-0.190032427,0.0159704441,-0.162897698,-0.471986402,0.188583822
354,1778413054750,1.0746663888888888,-0.2079558955555555,0.0176128162222222,-0.1366685928888888,-0.4668824333333333,0.1650051133333333
355,1778413054760,0.98331282,-0.2754666288888889,-0.0214951577777777,-0.0111734148444444,-0.5434419444444445,0.14532226
356,1778413054770,0.954095305,-0.2769064149999999,-0.0096651986999999,0.0359636326,-0.6184065,0.16256173
357,1778413054780,0.9365587055555556,-0.2735457744444444,-0.0023883502888888,0.07427733,-0.6588921222222222,0.1849594622222222
358,1778413054790,0.942615969,-0.282565261,-0.0753214627,0.084648158,-0.6143138199999999,0.216194118
359,1778413054800,0.9456649266666668,-0.2828417066666667,-0.12067777,0.0871729931111111,-0.6009294711111112,0.2401393322222221
360,1778413054810,1.0148016777777775,-0.2576369822222222,-0.1493718677777777,0.0928742364444444,-0.6028298933333334,0.2814733288888889
361,1778413054820,1.01106508,-0.23258673,-0.149447748,0.102545985,-0.57106585,0.27129254
362,1778413054830,0.9941535666666668,-0.2271982133333333,-0.16427788,0.1122177322222222,-0.5183972488888888,0.2491662933333333
363,1778413054840,1.0237996111111112,-0.2266019755555555,-0.1647657133333333,0.1203623633333333,-0.4065443066666667,0.1857739233333333
364,1778413054850,1.03621906,-0.225507056,-0.142996152,0.12300937,-0.3583077389999999,0.1478403095
365,1778413054860,1.0301821,-0.2137827866666666,-0.1417460766666666,0.1120819888888889,-0.1597620077777777,0.0531521957777777
366,1778413054870,1.0078670555555556,-0.2006112933333333,-0.2038160988888889,0.1052948,-0.1007134433333333,0.0114788384
367,1778413054880,0.994722636,-0.216628488,-0.219677454,0.100530186,-0.12148225,-0.0154849779599999
368,1778413054890,0.99456002,-0.2455935866666666,-0.1999811699999999,0.1018333277777777,-0.18582483,-0.0352255256666666
369,1778413054900,1.02459028,-0.242062892,-0.138056828,0.104622866,-0.166929288,-0.0428814780999999
370,1778413054910,1.0663834,-0.2100969488888889,-0.0961912433333333,0.11384666,-0.0123442066666666,-0.0867403076666666
371,1778413054920,1.0396135,-0.20605877,-0.1228628566666666,0.1173081233333333,0.0709346366666666,-0.1128031266666666
372,1778413054930,1.02384628,-0.202725243,-0.139572168,0.1322331555,0.047905695,-0.1216196899999999
373,1778413054940,1.025717,-0.2030233666666666,-0.1499952022222222,0.1671939811111111,-0.0786550677777777,-0.1387302033333333
374,1778413054950,1.0314762,-0.2108287,-0.1369795355555555,0.1665831366666666,-0.1010527988888888,-0.1491146111111111
375,1778413054960,1.0344628,-0.21916523,-0.1109272,0.131133632,0.0056961526,-0.176046185
376,1778413054970,1.0254426333333333,-0.2209647844444444,-0.1378400166666666,0.1097064655555555,0.0552562224444444,-0.1803356888888888
377,1778413054980,1.0091137666666663,-0.2499841,-0.17785591,0.08432237,0.0314331791111111,-0.1607207066666666
378,1778413054990,1.0290355999999998,-0.273881836,-0.1988835659999999,0.059786675,-0.0118351658,-0.13347013
379,1778413055000,1.0493091555555556,-0.2798876022222222,-0.1958752611111111,0.04312412,-0.0248326382222222,-0.1210156302222222
380,1778413055010,1.0584154,-0.2569052266666666,-0.1710262366666667,0.0277171938888888,-0.0121405895555555,-0.1202690382222222
381,1778413055020,1.03790503,-0.229248123,-0.194300977,0.00731489576,-0.0045660833,-0.1341420579999999
382,1778413055030,1.0288167888888888,-0.2129968388888888,-0.2071563966666666,-0.0287522412888888,-0.0260543329777777,-0.1469427033333333
383,1778413055040,1.0325510999999998,-0.205871772,-0.191776423,-0.0733169444,-0.0944827984,-0.166761304
384,1778413055050,1.0338882555555555,-0.2047307855555555,-0.1761484777777777,-0.0932305666666666,-0.1395361766666666,-0.1796569677777777
385,1778413055060,1.0282375666666663,-0.1987954688888888,-0.1415800744444444,-0.1369400822222222,-0.20903703,-0.2168507766666666
386,1778413055070,1.0282978,-0.193261274,-0.145868276,-0.180856602,-0.165218918,-0.237986092
387,1778413055080,1.0358937,-0.20174959,-0.2245456233333332,-0.2942078033333333,-0.1469342177777778,-0.2761029655555556
388,1778413055090,1.0129215055555556,-0.2238646955555555,-0.2786951222222222,-0.3478944755555556,-0.22905925,-0.2735917088888889
389,1778413055100,0.986185562,-0.23921518,-0.323677424,-0.375090752,-0.27963061,-0.259182499
390,1778413055110,0.9768354933333332,-0.2474636266666666,-0.36299881,-0.4238431555555555,-0.41726805,-0.2066021166666666
391,1778413055120,0.984990398,-0.238370606,-0.280430996,-0.443688904,-0.56178094,-0.146236828
392,1778413055130,0.9761613,-0.2277673644444444,-0.2096260499999999,-0.4423043266666667,-0.5201619000000001,-0.1048621066666666
393,1778413055140,0.9735121,-0.2216965488888889,-0.1903227544444444,-0.4378926555555555,-0.4193721,-0.0821928888888888
394,1778413055150,0.975062994,-0.216408969,-0.1779372099999999,-0.4320828169999999,-0.330208748,-0.0660936722
395,1778413055160,0.9631761266666669,-0.2344344166666666,-0.1947674688888888,-0.3954726744444444,-0.1225681977777777,-0.0600666457777777
396,1778413055170,0.95553005,-0.2377137433333333,-0.2349019277777777,-0.3818304377777777,-0.0360315037777777,-0.0528043508888888
397,1778413055180,0.9412257,-0.236483304,-0.267064368,-0.397508839,-0.0289388888999999,-0.0395218198
398,1778413055190,0.93748018,-0.2061942688888888,-0.3228000133333333,-0.4304946,-0.0770940133333333,-0.0125732739333333
399,1778413055200,0.93883526,-0.1978469,-0.3346232,-0.4433224,-0.10071344,-0.0017561859
400,1778413055210,0.963239144,-0.181248372,-0.3240737919999999,-0.4692223199999999,-0.161065156,0.01070509806
401,1778413055220,1.00092904,-0.1563234788888888,-0.3094726511111111,-0.5483881422222222,-0.3534684555555556,0.037541654
402,1778413055230,1.0048452,-0.15866779,-0.306923385,-0.5945071000000001,-0.45469944,0.0242048225
403,1778413055240,0.9901695333333334,-0.18710441,-0.3014200299999999,-0.603568,-0.44095536,0.0043522867333333
404,1778413055250,0.9814088688888888,-0.20475788,-0.30483487,-0.5976631555555555,-0.4096663977777777,-0.0008059790666666
405,1778413055260,0.95683631,-0.223653288,-0.306542261,-0.57196684,-0.308645852,0.01473669084
406,1778413055270,0.94891712,-0.2139453999999999,-0.3162379533333333,-0.5640665333333332,-0.2151455,0.0574960006666666
407,1778413055280,0.9492152555555556,-0.19078687,-0.3261402944444444,-0.5693605333333333,-0.13817874,0.08763113
408,1778413055290,0.946835742,-0.16708292,-0.34374565,-0.5686682359999999,-0.121482244,0.096712392
409,1778413055300,0.9404071755555556,-0.1658362344444444,-0.3596110744444444,-0.56427014,-0.13247749,0.09964446
410,1778413055310,0.960801317777778,-0.1727743055555555,-0.3398809366666666,-0.5496098155555555,-0.1454410322222222,0.1046669842222222
411,1778413055320,0.979892499,-0.173717453,-0.311612699,-0.5280469379999999,-0.127712895,0.0938414131999999
412,1778413055330,0.9774045366666666,-0.1451100866666666,-0.2471688833333333,-0.5029818266666667,0.0281753266666666,0.0595321593333333
413,1778413055340,0.974965421,-0.1150981725,-0.221872695,-0.48620388,0.141579122,0.035994176
414,1778413055350,0.9758598177777776,-0.1078890827777777,-0.21853917,-0.4632767366666667,0.2347180633333333,0.0039196036666666
415,1778413055360,0.9363046766666666,-0.1348757533333333,-0.25352088,-0.4205174433333333,0.2530434833333334,-0.0193434956666666
416,1778413055370,0.90987626,-0.169192796,-0.28161399,-0.399891169,0.1782528695,-0.0003436014
417,1778413055380,0.9108085244444444,-0.2023729133333333,-0.2722855322222222,-0.34314345,-0.038814255,0.0585140723333333
418,1778413055390,0.91270566,-0.20394482,-0.26702777,-0.32909396,-0.07505786,0.06910209
419,1778413055400,0.94337211,-0.19095931,-0.233970972,-0.24123886,-0.153612814,0.1184585559999999
420,1778413055410,0.9766152533333332,-0.17028094,-0.2245015777777778,-0.1594056777777777,-0.0728180833333333,0.1345306288888889
421,1778413055420,0.974209336,-0.166424342,-0.244752086,-0.132324784,0.0596950479999999,0.1111283872
422,1778413055430,0.9839361222222222,-0.1333411077777777,-0.2257482711111111,-0.1541116744444444,0.1204811455555555,0.0760250293333333
423,1778413055440,0.9841258444444444,-0.1201662233333333,-0.2117095066666666,-0.1642245911111111,0.1564532611111111,0.0402565305555555
424,1778413055450,0.97993522,-0.1126102299999999,-0.195426032,-0.169464302,0.181620164,0.0073912528
425,1778413055460,0.9692434777777778,-0.1038509055555555,-0.1374199377777777,-0.13829751,0.1378563533333333,-0.0344789355555555
426,1778413055470,0.9698939666666668,-0.1072928466666666,-0.1355465266666666,-0.11169172,0.1018163644444444,-0.0411303844444444
427,1778413055480,0.974959288,-0.1559542199999999,-0.154027274,-0.0316571592,0.038071056,-0.0461800544
428,1778413055490,0.97520932,-0.1984871833333333,-0.22267559,-0.0081191783333333,0.14550891,-0.0574196443333333
429,1778413055500,0.9792746111111112,-0.2193115711111111,-0.2593613388888889,-0.0067617398888888,0.2282023622222222,-0.0640032202222222
430,1778413055510,1.01706541,-0.237239457,-0.293931794,-0.0182185194,0.36995964,-0.1083643052
431,1778413055520,1.0488077999999998,-0.22806548,-0.2745180533333333,-0.0367611248888888,0.3534939088888889,-0.1384587177777777
432,1778413055530,1.08449012,-0.165576736,-0.246361936,-0.078264804,0.354077608,-0.180505367
433,1778413055540,1.0464161,-0.0972448331111111,-0.2861820155555555,-0.1480032033333333,0.3572947466666666,-0.2628679366666666
434,1778413055550,1.0247143222222224,-0.0812479655555555,-0.3333731111111111,-0.1960819733333333,0.3348970133333333,-0.3129574133333333
435,1778413055560,0.99330798,-0.105463474,-0.423533856,-0.317610026,0.136501453,-0.37628191
436,1778413055570,0.98268944,-0.1324569211111111,-0.4321559688888888,-0.3761291888888889,0.0233564233333333,-0.3779787044444445
437,1778413055580,0.9746266377777776,-0.1790754888888889,-0.4033568666666667,-0.46449843,-0.0312804703333333,-0.3196767199999999
438,1778413055590,0.95103108,-0.231400685,-0.394779125,-0.5551074349999999,0.0718509085,-0.223264665
439,1778413055600,0.9339569,-0.25105122,-0.40490165,-0.616803,0.17294613,-0.14904673
440,1778413055610,0.92488325,-0.222936794,-0.53848569,-0.8199097500000001,0.1027368754999999,0.0754778149999999
441,1778413055620,0.9411389666666669,-0.1709652566666666,-0.6389600455555555,-0.9898949511111113,-0.186571412,0.2768580377777778
442,1778413055630,0.9781838,-0.1526376288888888,-0.6157134044444444,-1.0657757666666667,-0.4205937633333333,0.3564039133333334
443,1778413055640,1.0518236,-0.131105216,-0.467490668,-1.08984318,-0.6315396879999999,0.3948058399999999
444,1778413055650,1.0679282,-0.12656227,-0.43298256,-1.0634681555555556,-0.6463357688888889,0.3752723088888888
445,1778413055660,1.1516932111111111,-0.1136888894444444,-0.1181708472222222,-0.8519792555555555,-0.4621313888888889,0.1976515155555555
446,1778413055670,1.16134214,-0.0758580884,0.0827548312,-0.589681418,-0.1172063139999999,-0.0419957443999999
447,1778413055680,1.023349011111111,-0.0260652062222222,0.0890871788888889,-0.2855880655555556,0.1942579077777778,-0.339495341111111
448,1778413055690,0.93296298,-0.0124031628,0.122769352,-0.1034393483999999,0.154994856,-0.477804719
449,1778413055700,0.8985585333333334,-0.0107221703333333,0.1692476733333333,-0.0096123622222222,0.1547564577777777,-0.5087000111111111
450,1778413055710,0.8304041533333333,-0.0208243856666666,0.2948647733333333,0.1879627866666666,0.2102587166666666,-0.5216635666666667
451,1778413055720,0.7857226820000001,-0.0315018384,0.2997613999999999,0.288243541,0.2695974339999999,-0.469313951
452,1778413055730,0.7261094166666666,-0.0424618273333333,0.2636942333333333,0.3636153144444444,0.2797171466666666,-0.3787252966666666
453,1778413055740,0.7260179666666667,-0.0723212983333333,0.2149617266666666,0.4787261166666666,0.3782671666666666,-0.2174616233333333
454,1778413055750,0.747147266,-0.094148794,0.194365005,0.51578419,0.437213921,-0.1560714744
455,1778413055760,0.91840724,-0.1954788966666666,0.2072478666666667,0.5341096000000001,0.6232169066666666,-0.0013744059999999
456,1778413055770,0.9651646811111112,-0.2144332566666666,0.2253891744444444,0.5343132133333334,0.6824690933333333,0.0501658286666666
457,1778413055780,0.954211101,-0.2183603149999999,0.285202623,0.582122162,0.4459490300000001,0.15779712
458,1778413055790,0.9320529777777776,-0.2219675677777778,0.3071317433333334,0.6768442133333333,0.1587184733333333,0.2260898466666666
459,1778413055800,0.88626513,-0.237776064,0.302142617,0.71247697,0.06604786,0.24319357
460,1778413055810,0.8347980277777779,-0.17232713,0.2901253311111111,0.7460057244444445,0.0746675953333333,0.2507273455555555
461,1778413055820,0.7919025833333334,-0.1401640166666666,0.26902654,0.7730866166666668,0.2745164577777778,0.1622223655555555
462,1778413055830,0.73481727,-0.115829934,0.235379592,0.821940824,0.4854097699999999,0.0190889768
463,1778413055840,0.717237,-0.0906252116666666,0.2100122666666666,0.861184351111111,0.51149973,-0.1098167608888888
464,1778413055850,0.717237,-0.0787546,0.21644557,0.88045996,0.49738237,-0.18203248
465,1778413055860,0.680237858,-0.1049482005,0.2394255569999999,1.028773652,0.5670800540000001,-0.4908768659999999
466,1778413055870,0.6749377433333333,-0.1298246533333333,0.2158662533333333,1.0635105,0.6000047133333334,-0.5937435333333333
467,1778413055880,0.8005649800000001,-0.189102506,0.163533932,0.87532886,0.638488076,-0.50407114
468,1778413055890,0.9919176333333332,-0.2502314044444444,0.2768996277777777,0.6482022555555556,0.5957287777777779,-0.3257173333333333
469,1778413055900,1.033620633333333,-0.2554349555555555,0.3300463611111111,0.50784312,0.5657972666666667,-0.162281761
470,1778413055910,1.0323468999999998,-0.18377901,0.4543435999999999,0.36154522,0.66994672,0.0510439284999999
471,1778413055920,0.9441269333333332,-0.0599018699999999,0.5856642277777778,0.34637584,0.7367666222222221,0.1614757844444444
472,1778413055930,0.8372236666666667,0.1128317833333333,0.6353825833333333,0.6120943799999999,0.6942787833333334,0.26620215
473,1778413055940,0.82249008,0.172705188,0.548269782,0.86140153,0.77971597,0.339585268
474,1778413055950,0.8348658,0.16677801,0.50588316,0.9698473,0.8502485,0.3610870933333333
475,1778413055960,0.8777002755555556,-0.0845035811111111,0.2918462844444444,0.9626528888888888,0.6466327466666667,0.3654308888888888
476,1778413055970,0.86158381,-0.1437401,0.28106515,0.83495185,0.3926220649999999,0.386437235
477,1778413055980,0.9087725444444446,-0.1657278311111111,0.3775626777777778,0.6218001222222223,0.5882628999999999,0.3456801622222222
478,1778413055990,0.8896403449999999,-0.118302635,0.375598138,0.4995356399999999,0.78270912,0.313868596
479,1778413056000,0.8859290944444445,-0.0720468855555555,0.3312422311111111,0.40908951,0.8288688,0.3246398666666666
480,1778413056010,0.9599036,-0.0026830836666666,0.3063390166666667,0.2498619833333333,0.71443676,0.4138235533333333
481,1778413056020,1.005942875,0.0211902605,0.301618205,0.1970440539999999,0.600371216,0.468229698
482,1778413056030,1.0718003777777776,0.0011890932222222,0.3399791788888888,0.0045049991111111,0.3484035277777778,0.6293169377777778
483,1778413056040,1.1514798,-0.0055287783333333,0.4815525133333333,-0.0448378855555555,0.3859366933333333,0.6243622533333333
484,1778413056050,1.14937804,0.0116073844,0.517152162,-0.0499825767,0.4017236999999999,0.615627134
485,1778413056060,1.0414936333333331,0.092424094,0.46073826,-0.0411049283333333,0.4859799,0.5284592333333333
486,1778413056070,1.08416385,0.12552562,0.27733325,-0.0046577103999999,0.404533608,0.465908478
487,1778413056080,1.3173533333333334,-0.0294529366666666,0.18064062,-0.1067370751111111,0.2188614855555555,0.4347281133333333
488,1778413056090,1.3752631666666666,-0.1835981166666666,0.2674343166666666,-0.3131016466666667,0.1083320633333333,0.3752723088888888
489,1778413056100,1.33335218,-0.237422398,0.4155730399999999,-0.500680966,0.094207918,0.322725879
490,1778413056110,1.2186009555555557,-0.1885814588888889,0.6850568666666667,-0.5339314,0.0676767866666666,0.2403429466666667
491,1778413056120,1.155849988888889,-0.1434060577777777,0.6781798055555556,-0.4722358255555556,0.1079927077777777,0.1704348711111111
492,1778413056130,1.10869273,-0.1155616149999999,0.601577799,-0.394088108,0.159996172,0.111372728
493,1778413056140,1.1859668777777777,-0.1759757122222222,0.4874674888888889,-0.2946150333333333,0.0579711001777777,0.0760250311111111
494,1778413056150,1.2508758333333332,-0.2225637988888889,0.5185465466666667,-0.2804297988888888,0.0046916465333333,0.0883777222222222
495,1778413056160,1.23359024,-0.23223916,0.561916936,-0.326650575,0.036116344,0.100255308
496,1778413056170,1.2218768666666666,-0.2153005044444444,0.6778444555555556,-0.37701153,0.0621791594444444,0.0773824688888888
497,1778413056180,1.15545158,-0.141563136,0.791210846,-0.332148192,0.140326882,-0.0676513379999999
498,1778413056190,1.0164990055555556,-0.1111142088888888,0.6819910055555556,-0.2282362922222222,0.0658442432222222,-0.2148824988888888
499,1778413056200,0.98862475,-0.1138786,0.64375705,-0.21181129,0.031229567,-0.23578705
500,1778413056210,1.1182543,-0.0958775424,0.63546999,-0.186659652,0.1069211748,-0.260220942
501,1778413056220,1.0574363777777778,-0.1138684306666666,0.5992151888888889,-0.1429806777777778,0.1245534494444444,-0.3048127922222222
502,1778413056230,1.0203338444444443,-0.1913119755555555,0.6665768555555556,-0.11257406,-0.0935868916666666,-0.24780037
503,1778413056240,1.022773,-0.156042649,0.8271763,-0.120840854,-0.195944532,-0.1435491058
504,1778413056250,1.022773,-0.13781293,0.89343625,-0.12560546,-0.19539477,-0.117893524
505,1778413056260,1.022773,-0.13781293,0.89343625,-0.12560546,-0.19539477,-0.117893524
506,1778413056270,0.9952274222222224,-0.1170257996666666,0.7872038055555556,-0.0680500777777777,0.0638759615555555,0.1113099417777777
507,1778413056280,1.0652111555555557,-0.1523598322222222,0.7701296222222223,-0.0274626746666666,0.0359127286666666,0.2476730999999999
508,1778413056290,1.08702691,-0.145813389,0.91584605,-0.0323901766,0.127254757,0.3361645199999999
509,1778413056300,1.0664376333333334,-0.1567029111111111,0.9481413,-0.0191823011111111,0.2541548777777778,0.3667204555555555
510,1778413056310,0.9897698244444444,-0.2040193533333333,0.9407899555555556,0.018758101,0.5991902333333333,0.4402936066666666
511,1778413056320,0.966653984,-0.211506232,0.92651138,0.0431105444,0.8538727999999999,0.47397166
512,1778413056330,0.9114387333333333,-0.2152733944444444,0.8879651133333333,0.086765766,1.0080507333333335,0.4523069333333332
513,1778413056340,0.8864982444444444,-0.18604405,0.9592904555555556,0.2170798533333333,0.9610154666666668,0.4146380233333333
514,1778413056350,0.8969609000000001,-0.1511307679999999,1.0630986999999998,0.31652579,0.91581274,0.39370633
515,1778413056360,0.9492966277777778,-0.1299025666666666,1.1617480000000002,0.48707435,0.8864921,0.35803285
516,1778413056370,0.957007075,-0.1061952199999999,1.2393711,0.7298861249999999,0.8892409000000001,0.274041355
517,1778413056380,0.9323037333333334,-0.1181606844444444,1.2602564444444446,1.1171293666666666,1.0820310666666666,0.1145084111111111
518,1778413056390,0.8907396444444444,-0.1337611888888888,1.2114256444444444,1.2123536666666666,1.046737672222222,0.0844411511111111
519,1778413056400,0.83126192,-0.1319955016,1.17736132,1.27360124,0.870732222,0.06836908
520,1778413056410,0.7617687111111111,-0.0845001897777777,1.2206776222222222,1.3344552555555556,0.4757312366666666,0.0648940355555555
521,1778413056420,0.8187571333333333,-0.0053763306666666,1.2510384666666663,1.4072139,0.2189887433333333,0.0426320466666666
522,1778413056430,0.8739595399999999,0.0177022524,1.3931362,1.51916188,0.0896265639999999,-0.029908609
523,1778413056440,0.9206939666666668,0.0136694966666666,1.5468280666666667,1.6683172,0.1105718422222222,-0.1217622222222222
524,1778413056450,0.99359458,0.0335690304,1.69727586,1.76008,0.13934954,-0.17470232
525,1778413056460,0.8817181000000001,0.0912858106666666,1.6439577333333333,2.3630711555555557,0.7438847266666667,-0.6055532577777778
526,1778413056470,0.7822305666666667,0.1692171866666666,1.4904528333333331,2.4792763666666664,0.8366062333333333,-0.674579
527,1778413056480,0.80924838,0.4821745,0.96581242,2.47358016,0.73219206,-0.82403294
528,1778413056490,0.6528022833333333,0.4780970033333333,0.9288956166666666,2.0439203999999997,0.2285586766666666,-0.9164745
529,1778413056500,0.5529827911111111,0.4093836333333333,0.9363012066666668,1.7976132333333332,0.0583783345555555,-0.9131487888888888
530,1778413056510,0.613294928,0.0809620424,0.556261129,1.056139662,0.1095401832,-0.740835558
531,1778413056520,0.8806712999999999,-0.119651286,0.3148659466666667,0.5286119566666666,0.15238094,-0.6454619366666666
532,1778413056530,0.9260669166666666,-0.1719341466666666,0.0465508255555555,0.1893881033333333,0.0876311313333333,-0.6455298111111111
533,1778413056540,0.7496809649999999,-0.14359373,-0.414679691,-0.295291205,-0.2349776660999999,-0.73411625
534,1778413056550,0.6803649222222222,-0.1340186444444444,-0.5544090533333335,-0.4310375822222222,-0.3785132,-0.7807306888888889
535,1778413056560,0.7814236,-0.16903425,-0.5632950680000001,-0.97683632,-0.68822632,-1.0862086
536,1778413056570,0.9047411222222222,-0.2010584777777777,-0.5008456111111111,-1.1586244444444445,-0.5549801822222222,-1.1967176666666668
537,1778413056580,0.9812157666666668,-0.1878260066666666,-0.3995253466666667,-1.5361960444444442,0.3792682688888888,-1.4705808666666669
538,1778413056590,0.8496288379999999,-0.145398729,-0.467451079,-1.7491917,1.0091502440000002,-1.56083692
539,1778413056600,0.7705124466666667,-0.1414208511111111,-0.5260639222222223,-1.8378867,1.2737693,-1.579651
540,1778413056610,0.5723505000000001,-0.2861040866666667,-0.7522695,-2.1052342,0.9620335,-1.1618315
541,1778413056620,0.5706888250000001,-0.351590635,-0.7192339999999999,-2.21050358,0.526550332,-0.9370397
542,1778413056630,0.6453290166666668,-0.3482046055555556,-0.4563951599999999,-2.3778757222222224,-0.5369941422222223,-0.4318011444444444
543,1778413056640,0.79433298,-0.248355957,-0.123437075,-2.48489621,-1.36284601,0.047516279
544,1778413056650,0.825597,-0.21979941,-0.07957781,-2.5098188,-1.4775631,0.13751699
545,1778413056660,0.8124965866666667,-0.24730101,-0.1098539654333333,-2.5064930000000003,-1.3919766666666666,0.3709963877777777
546,1778413056670,0.857348805,-0.264954481,-0.178922015,-2.46406631,-1.25442067,0.5029869039999999
547,1778413056680,1.0227120666666667,-0.2719467566666667,-0.1928364466666666,-2.1182655444444443,-1.0536351555555556,0.6072585088888888
548,1778413056690,1.2899567,-0.2459560833333333,-0.1744410777777777,-2.0573844333333335,-0.7729847977777777,0.6099055044444444
549,1778413056700,1.2850566899999998,-0.2422397419999999,-0.163661993,-2.07886589,-0.381252688,0.620269559
550,1778413056710,1.142271911111111,-0.2302099,-0.0814613911111111,-2.1285820555555555,0.4204835222222222,0.6570765333333334
551,1778413056720,1.07316016,-0.330555878,-0.4587889559999999,-1.8742321,0.9356653,0.73797987
552,1778413056730,1.0923197333333332,-0.4774939877777777,-0.6346271488888888,-1.2069493333333332,0.4624961999999999,0.6185931277777778
553,1778413056740,1.2887505777777777,-0.4194960222222222,-0.5532470444444445,-0.7229546888888889,0.0429374611111111,0.551942911111111
554,1778413056750,1.5207411,-0.299395517,-0.492190282,-0.380160793,-0.1890419539999999,0.492541421
555,1778413056760,1.701064666666667,-0.034249966,-0.6959755866666666,-0.0644274233333333,-0.3758661833333334,0.3404540166666667
556,1778413056770,1.6804807666666666,0.0508667904444444,-0.7192662544444445,0.2063560916666666,-0.7576457222222222,0.1849594526666666
557,1778413056780,1.6405591000000002,0.098975292,-0.632597904,0.5889636819999999,-0.8119839900000001,-0.0030236976
558,1778413056790,1.5325894333333334,0.025966964,-0.70695182,0.7691500311111111,-0.5914274,-0.1402233833333333
559,1778413056800,1.43568131,-0.0310902314,-0.7316067009999999,0.773195185,-0.4373513599999999,-0.2216153889999999
560,1778413056810,1.2624483555555557,-0.0768168133333333,-0.6688194888888889,0.7041287111111111,-0.2661851777777778,-0.3267354133333333
561,1778413056820,1.2103857333333332,-0.0754075137777777,-0.6154559511111111,0.6395146500000001,-0.2141274111111111,-0.3642007144444444
562,1778413056830,1.12893169,-0.0629426958,-0.474177041,0.484814193,-0.156178375,-0.402426177
563,1778413056840,1.04017245,-0.0649834644444444,-0.3588759422222222,0.3521449511111111,-0.2121591277777778,-0.3917566955555556
564,1778413056850,0.9788342122222224,-0.0751805355555555,-0.2816559955555556,0.279522,-0.3060259833333333,-0.3686802366666667
565,1778413056860,0.8815422700000001,-0.131949771,-0.14055698,0.149947725,-0.672344305,-0.293206691
566,1778413056870,0.8757116388888888,-0.1519871866666666,-0.0294461622222222,0.1202266111111111,-0.75662765,-0.2429135933333333
567,1778413056880,0.886411474,-0.149472136,0.0978349759999999,0.0918561536,-0.725976682,-0.17922258
568,1778413056890,0.8653655466666667,-0.1295807333333333,0.2461322366666666,0.078213898,-0.5390981633333333,-0.0669895819999999
569,1778413056900,0.8613510811111111,-0.1332902988888888,0.2835869955555555,0.1020369388888889,-0.4586699488888889,-0.0195980163333333
570,1778413056910,0.913434452,-0.17596149,0.293075018,0.223615903,-0.32269533,0.0674528051
571,1778413056920,0.9275338266666666,-0.19401538,0.25019752,0.2747031,-0.30371834,0.0919070566666666
572,1778413056930,0.962376612222222,-0.1881817111111111,0.1765719533333333,0.3512626266666667,-0.29842434,0.1352772133333333
573,1778413056940,0.97999012,-0.16435106,0.072162746,0.411084924,-0.335156628,0.16671548
574,1778413056950,0.97176404,-0.1529628611111111,0.0308656216666666,0.42110282,-0.35421506,0.1662268
575,1778413056960,0.965315465,-0.1227968,-0.0058844885,0.421835832,-0.496664642,0.1959139919999999
576,1778413056970,0.97724198,-0.098674458,-0.0315059026666666,0.4092930944444444,-0.5388266688888889,0.2009093588888889
577,1778413056980,0.9935573333333332,-0.067371818,-0.0541833782222222,0.3560136444444444,-0.5238948577777778,0.1778329033333333
578,1778413056990,0.99140543,-0.0626256041999999,-0.072504232,0.2676579959999999,-0.471619908,0.121757126
579,1778413057000,0.9867547333333332,-0.0603490473333333,-0.0865802553333333,0.2146364577777777,-0.4539188955555555,0.0796222404444444
580,1778413057010,0.9795727055555556,-0.059264976,-0.0724906782222222,0.11948003,-0.4759093944444445,-0.0079070785555555
581,1778413057020,0.966675301,-0.058161933,-0.0361393028999999,0.074019418,-0.482737316,-0.0643833011999999
582,1778413057030,0.9514376666666666,-0.072321296,-0.034849595,0.06253549,-0.48493636,-0.08246438
583,1778413057040,0.930892735,-0.09314568,-0.0273644025,0.025273805,-0.47424654,-0.0940704755
584,1778413057050,0.9194065766666666,-0.1110058005555555,-0.0097871565555555,0.01977618,-0.48249298,-0.083075225
585,1778413057060,0.9579420666666666,-0.1262370433333333,0.0306420321666666,0.018554486,-0.3456631933333333,-0.042352076
586,1778413057070,0.952933688,-0.122488855,0.0558081349,0.0346808546,-0.2812799,-0.0199136204
587,1778413057080,0.94517714,-0.12095218,0.062686585,0.045431767,-0.2680856,-0.011606098
588,1778413057090,0.9579827577777776,-0.1257221133333333,0.1159417272222222,0.1225342674444444,-0.1727934195555555,0.0351576526666666
589,1778413057100,0.980063314,-0.129663063,0.1338431769999999,0.15721682,-0.108654454,0.0544417599999999
590,1778413057110,1.0181386666666663,-0.14797611,0.1113378,0.2337763433333333,0.0255283246666666,0.0886492066666666
591,1778413057120,1.0324382777777776,-0.1556459355555555,0.1015269294444444,0.2475543355555555,0.0874953833333333,0.1001195604444444
592,1778413057130,1.04370727,-0.158814145,0.0790320495,0.263015568,0.148145738,0.1152821512
593,1778413057140,1.059391,-0.16610725,0.027318668,0.27287056,0.1067710133333333,0.1326302133333333
594,1778413057150,1.06568407,-0.168156151,0.0231385457,0.275415754,0.069102096,0.1421594279999999
595,1778413057160,1.0964867,-0.1602532599999999,-0.0015752956666666,0.2597034166666667,0.0413424811111111,0.1408427122222222
596,1778413057170,1.105494711111111,-0.1528273522222222,-0.0127141569999999,0.2476222099999999,0.0293970246666666,0.1295759766666666
597,1778413057180,1.10644872,-0.1560578859999999,-0.0350691182,0.240169868,-0.0050547603999999,0.120901944
598,1778413057190,1.1025406222222225,-0.17019963,-0.0762713877777777,0.21422922,-0.077501248,0.1092143999999999
599,1778413057200,1.0987735,-0.1726117,-0.0646887356666666,0.17717116,-0.1571828811111111,0.1016127477777777
600,1778413057210,1.0872586,-0.138867859,-0.0040795068,0.155934035,-0.203457953,0.0871220897
601,1778413057220,1.074432611111111,-0.1204643444444444,0.0058506120555555,0.15171919,-0.1858248333333333,0.073174412
602,1778413057230,1.07026974,-0.118513016,0.01192142674,0.118000415,-0.0989419834,0.0569462345
603,1778413057240,1.066193588888889,-0.1252884666666666,0.0212715655555555,0.1106566788888889,-0.050420349,0.0428356633333333
604,1778413057250,1.0673860777777775,-0.1294689288888889,0.0186697878666666,0.1107924244444444,-0.0363708624444444,0.0387633484444444
605,1778413057260,1.0730992,-0.151423478,-0.0102749894399999,0.149214719,-0.0476919018,0.01156028408
606,1778413057270,1.063375,-0.1606597833333333,-0.0353374273333333,0.1676012233333333,-0.0693566133333333,-0.0027742645333333
607,1778413057280,1.0568163333333331,-0.1438295255555555,-0.0576795168888888,0.1768996755555555,-0.0766189077777777,-0.0049461657777777
608,1778413057290,1.05031734,-0.1253518275,-0.080797399,0.19905985,-0.0939941225,-0.0002290675
609,1778413057300,1.0484148,-0.1231474349999999,-0.08591965,0.19936527,-0.099491745,0.004963134
610,1778413057310,1.05219553,-0.1416393655,-0.0879167145,0.171266305,-0.1174506565,0.0167524863
611,1778413057320,1.0745579555555556,-0.1422847233333333,-0.11115486,0.1316291022222222,-0.0357600164444444,0.0106643751666666
612,1778413057330,1.0632226,-0.1294181233333333,-0.1415834666666666,0.1057699033333333,-0.0261900764444444,-0.0208875823333333
613,1778413057340,1.01895269,-0.1190252415,-0.165082805,0.08672504,-0.071637111,-0.036650835
614,1778413057350,1.0075417888888891,-0.1146103477777777,-0.1713785655555555,0.07719582,-0.099491745,-0.041537613
615,1778413057360,1.0195209,-0.0897308433333333,-0.1528951033333333,0.0028760719999999,-0.1304413433333333,-0.050903939
616,1778413057370,1.0125286,-0.09473113,-0.1581799599999999,-0.031229566,-0.1233147899999999,-0.0620009975
617,1778413057380,0.9882453111111112,-0.1316540211111111,-0.2311618666666666,-0.0968277727777777,-0.1205320388888888,-0.0652249124444444
618,1778413057390,1.0037963600000002,-0.158887314,-0.227434016,-0.180871872,-0.152757632,-0.0428814772
619,1778413057400,0.9957931777777778,-0.1798343344444444,-0.2020206044444444,-0.1977618,-0.17401512,-0.03115321
620,1778413057410,0.9622512333333332,-0.1938900388888889,-0.18002405,-0.1377036333333333,-0.1003062117777777,-0.0327142633333333
621,1778413057420,0.96117802,-0.1932612739999999,-0.175254126,-0.09994988,-0.042988375,-0.0287098205
622,1778413057430,1.004144,-0.1822972133333333,-0.1427928866666666,-0.0538648511111111,0.0091711937777777,-0.0108849587777777
623,1778413057440,1.01065861,-0.18189069,-0.14328072,-0.0071011,0.0479260586666666,-0.0091118046
624,1778413057450,0.972861656,-0.191017248,-0.1783274819999999,0.040789326,0.0859614808,-0.025166906
625,1778413057460,0.9602186533333332,-0.1931311866666666,-0.1995644899999999,0.0938923155555555,0.0507088055555555,-0.0045559022922222
626,1778413057470,0.967251575,-0.19101724,-0.20246607,0.1010188649999999,0.0266482115,0.001908897655
627,1778413057480,0.9469657966666668,-0.1993917133333333,-0.2453090233333333,0.0865621433333333,0.0023161296666666,0.0281753304666666
628,1778413057490,0.93932307,-0.20370091,-0.26532036,0.07902836,-0.004810422,0.040392276
629,1778413057500,0.944640489,-0.213506365,-0.270460905,0.044637662,0.0143090962,0.0732558606
630,1778413057510,0.9921073,-0.1839538111111111,-0.2729766199999999,-0.06058417,0.1881239933333333,0.0841696655555555
631,1778413057520,0.98724254,-0.1496835266666666,-0.2962977866666667,-0.1350396655555555,0.2465277777777778,0.0773824722222222
632,1778413057530,0.973136072,-0.1293978,-0.320713842,-0.212704652,0.212910808,0.0931694788
633,1778413057540,0.9774960666666668,-0.1238791848888888,-0.3208147855555556,-0.2946829099999999,0.0960048253333333,0.1069746246666666
634,1778413057550,0.98074625,-0.1215863662,-0.301956631,-0.333369904,0.0238993984,0.1108840472
635,1778413057560,0.9539886111111112,-0.1184588064444444,-0.2788441977777778,-0.3917397422222222,-0.0882928788888888,0.1217707093333333
636,1778413057570,0.9624138833333332,-0.130566552,-0.2850776,-0.4335488533333333,-0.08299887,0.1578785666666666
637,1778413057580,1.00007664,-0.142983946,-0.267399736,-0.461647825,-0.0038941499999999,0.185468495
638,1778413057590,1.0193853333333331,-0.1480303166666666,-0.2482699022222222,-0.5012849888888888,0.1057529344444444,0.1861132766666666
639,1778413057600,1.017705,-0.1453980511111111,-0.240898201111111,-0.5256509844444444,0.1498781644444444,0.1731497422222222
640,1778413057610,1.0383532,-0.105243946,-0.18058371,-0.585038944,0.240093518,0.1077076416
641,1778413057620,1.0693916666666667,-0.0796286273333333,-0.1514316033333333,-0.60173544,0.28969431,0.036523576
642,1778413057630,1.09536878,-0.0481369556,-0.129617322,-0.58699367,0.397264511,-0.1140986374
643,1778413057640,1.1050882444444443,-0.075797107,-0.0739711166666666,-0.56033358,0.4598492155555555,-0.2047695822222222
644,1778413057650,1.1163964888888889,-0.0854487533333333,-0.0468591012222222,-0.5349494844444445,0.4864550088888888,-0.2471216555555555
645,1778413057660,1.17701986,-0.14458161,0.0537958232,-0.428662065,0.5844281,-0.36406496
646,1778413057670,1.2048467,-0.1765956766666666,0.0859603013333333,-0.36289418,0.71606568,-0.43981002
647,1778413057680,1.2024008000000002,-0.1859356488888889,0.0969196111111111,-0.2977371433333333,0.9862638566666668,-0.5353058
648,1778413057690,1.14807009,-0.169897104,0.039282779,-0.254387338,1.20022327,-0.6228809350000001
649,1778413057700,1.1168775444444443,-0.1470681955555555,-0.0180938744444444,-0.2500910422222222,1.2265982777777775,-0.6468193666666667
650,1778413057710,1.12040079,-0.1200740779999999,-0.0467222387999999,-0.317365704,0.8839876099999999,-0.677735061
651,1778413057720,1.1311331,-0.1223343766666666,-0.0150821810666666,-0.4194993666666666,0.5725165799999999,-0.6468872433333334
652,1778413057730,1.1330302,-0.1193260644444444,0.0580995962,-0.5343386866666667,0.3649642588888888,-0.5967977777777778
653,1778413057740,1.06271746,-0.1091710001999999,0.1007589315,-0.58455031,0.315410973,-0.565583484
654,1778413057750,1.0205981333333334,-0.1057480373333333,0.0992944133333333,-0.5992920777777777,0.2844002955555555,-0.5412785433333334
655,1778413057760,0.9784378333333332,-0.1286728222222222,0.1305970433333333,-0.5840209000000001,0.1448726099999999,-0.43390516
656,1778413057770,0.98217314,-0.144057186,0.203456998,-0.58907058,0.13153069,-0.343907016
657,1778413057780,0.9336655444444444,-0.0962962644444444,0.3533268355555556,-0.6601731666666667,0.4248697266666666,-0.2514654666666667
658,1778413057790,0.86587368,-0.05361593,0.32651295,-0.70109992,0.58076304,-0.201885025
659,1778413057800,0.7913571733333334,-0.033030381,0.2360503699999999,-0.7189502422222221,0.5321328122222222,-0.1675757677777777
660,1778413057810,0.7429701777777777,-0.0697161291111111,0.1487519122222222,-0.7640850444444445,-0.0147706233333333,-0.0673289427777777
661,1778413057820,0.762651201,-0.1147323059999999,0.1269891179999999,-0.756381588,-0.305835957,-0.00855949735
662,1778413057830,0.84479521,-0.1517873166666666,0.14363643,-0.6980457133333333,-0.72907168,0.0760250281666666
663,1778413057840,0.9391300111111112,-0.1837234488888889,0.2279875577777778,-0.6300380833333333,-1.0650376333333331,0.1525845566666666
664,1778413057850,0.9463967,-0.18610841,0.23742239,-0.597866797,-1.13787096,0.177160981
665,1778413057860,0.9621428555555556,-0.1572449444444444,0.3825087644444445,-0.4036173322222222,-0.7224201677777777,0.1903213411111111
666,1778413057870,0.9610316555555556,-0.1282019255555555,0.3940541644444444,-0.3460619444444444,-0.4882620855555555,0.1670412755555555
667,1778413057880,0.983886628,-0.0492650692,0.464088056,-0.2755837399999999,-0.19380657,0.0953685308
668,1778413057890,0.9492186377777778,-0.0198995342666666,0.4788321222222222,-0.1847643244444444,0.1338858411111111,-0.0410879605555555
669,1778413057900,0.8547144933333334,0.0012297464666666,0.4311938333333333,-0.14698512,0.1933586066666666,-0.12359476
670,1778413057910,0.750812044,0.0037502187,0.264277618,-0.12407835,-0.0197761799999999,-0.153628085
671,1778413057920,0.7406529,0.0013110521,0.21742123,-0.1182753,-0.20516832,-0.14904673
672,1778413057930,0.7362137009999999,-0.016552795444,0.1574512579999999,-0.0825407358,-0.335462046,-0.1167939963999999
673,1778413057940,0.7180229322222221,-0.0568800134444444,0.1187366002222222,-0.0265124668888888,-0.4399372933333333,-0.0497501173333333
674,1778413057950,0.7270850999999999,-0.0916720199999999,0.111906934,-0.0426659846666666,-0.2484621344444444,0.0042165426666666
675,1778413057960,0.698824325,-0.142227816,0.0974751995999999,-0.140876645,0.274423138,0.2145448259999999
676,1778413057970,0.6414940666666666,-0.0904693755555555,0.0690351913333333,-0.1504465933333333,0.26403873,0.34479782
677,1778413057980,0.6348337666666667,-0.0623105493333333,0.0270544233333333,-0.13639711,0.14426176,0.4889577833333333
678,1778413057990,0.71715156,-0.0471856806999999,-0.0057381398,-0.13733374,-0.01885991,0.586611884
679,1778413058000,0.758330111111111,-0.0465271055555555,0.0017650084444444,-0.1439987611111111,-0.1011885466666666,0.6192718366666666
680,1778413058010,0.87210876,-0.082257853,0.1790348338,-0.15944641,-0.1037676824,0.597607134
681,1778413058020,0.9032200222222224,-0.0925223377777777,0.1798445033333333,-0.1351075366666666,-0.0063714766666666,0.5596803333333333
682,1778413058030,0.9342719666666668,-0.0927391493333333,0.1766566466666666,-0.0312635016666666,0.0387633488888888,0.5006317555555556
683,1778413058040,0.9404207,-0.104975632,0.18958423,0.0842816492,0.1343405839999999,0.4422076
684,1778413058050,0.9463153666666666,-0.1296620299999999,0.1886085666666666,0.1255206266666666,0.2241385244444444,0.4100906088888889
685,1778413058060,1.039379788888889,-0.1686006222222222,0.2323306333333333,0.1603389188888889,0.3979500222222222,0.2920613455555556
686,1778413058070,1.1285232,-0.1914959319999999,0.394209001,0.164485899,0.38040512,0.169891891
687,1778413058080,1.1208073,-0.14072976,0.50392171,0.2285502,0.3062550555555555,0.0426999196666666
688,1778413058090,1.0308427,-0.1055854266666666,0.4648848466666667,0.26248616,0.2557583533333333,-0.0216765916666666
689,1778413058100,0.987694845,-0.104024356,0.4316288249999999,0.279386271,0.195860539,-0.0652995689
690,1778413058110,0.989234511111111,-0.1484503888888889,0.4087298055555555,0.2624861588888889,0.0860700766666666,-0.0441846184444444
691,1778413058120,1.0599825800000002,-0.202566698,0.359014852,0.2225774679999999,0.1596754719999999,-0.0603517084
692,1778413058130,1.0353145,-0.2703104966666667,0.36978784,0.1403167055555555,0.1786813033333333,-0.0593879277777777
693,1778413058140,0.9517594777777778,-0.3206657355555555,0.4534682,0.045024534,0.0809118099999999,0.0014762146666666
694,1778413058150,0.9068517,-0.34377006,0.5075906,0.018554486,0.03978143,0.026342789
695,1778413058160,0.8867963,-0.2532871333333333,0.4901200755555556,0.0102062392222222,0.1104360988888888,0.0205312544444444
696,1778413058170,0.90710574,-0.17075183,0.4783714033333333,0.0187581,0.2090115766666666,-0.084093306
697,1778413058180,1.01394936,0.0385937159999999,0.531890788,0.042377527,0.454317675,-0.3206948049999999
698,1778413058190,1.1417942,0.1405671466666666,0.7229995199999999,0.0312465336666666,0.5423814888888888,-0.65340294
699,1778413058200,1.1725805399999998,0.137181787,0.800540635,0.0283280415,0.51045453,-0.7240372460000001
700,1778413058210,1.131505711111111,0.0480041534444444,0.7917196666666667,0.0591418933333333,0.2992557677777777,-0.8296663222222223
701,1778413058220,0.999601,-0.0294529389999999,0.854623,0.10651649,0.0953685266666666,-0.8566114666666667
702,1778413058230,0.8190782799999999,-0.1400051269,0.62069476,0.140113094,0.17393876,-0.8179244600000001
703,1778413058240,0.7082832333333333,-0.25689507,0.55680078,-0.0113770299999999,0.4703014866666666,-0.8114087666666667
704,1778413058250,0.6404676188888889,-0.2913584622222223,0.6491909877777777,-0.07124006,0.49310645,-0.8325848
705,1778413058260,0.54262312,-0.344331068,0.8050164399999999,-0.072095249,0.73408571,-0.664113169
706,1778413058270,0.5907356866666666,-0.33523298,0.8634853133333333,-0.0807421311111111,0.7495265555555556,-0.5289258666666667
707,1778413058280,0.686723,-0.28204085,0.863404038,-0.0587787776,0.705192604,-0.39961628
708,1778413058290,0.7334167733333333,-0.2337128166666666,0.7413847433333333,0.0295497353333333,0.5609104833333333,-0.25248354
709,1778413058300,0.7270207311111111,-0.2274997133333333,0.6885632355555555,0.053372778,0.5120427,-0.22051586
710,1778413058310,0.70987068,-0.2549538919999999,0.722749508,0.0304049228,0.484432412,-0.145503816
711,1778413058320,0.7642722122222222,-0.23689052,0.7565482277777779,-0.0419193919999999,0.5338296166666666,-0.1052693466666666
712,1778413058330,0.79166204,-0.21248192,0.7806858,-0.06452074,0.5554129,-0.10567658
713,1778413058340,0.7922718360000001,-0.1284587194999999,0.87403273,-0.03733803875,0.58003004,-0.0152330055
714,1778413058350,0.8157657555555555,-0.0981087077777777,0.8972000777777777,0.0001611959444444,0.5265673155555556,0.1054814416666666
715,1778413058360,1.01712036,-0.197444444,0.8717459399999999,0.0118962502,0.204916348,0.312341475
716,1778413058370,1.0838505555555555,-0.2481614977777778,0.8953164555555555,0.0025367127777777,0.1448471566666666,0.3500918344444444
717,1778413058380,1.141611333333333,-0.2763643644444444,0.8962650666666667,-0.0321458341666666,0.2185221233333333,0.3052284911111111
718,1778413058390,1.16106774,-0.27632102,0.9662454,-0.064276399,0.370570492,0.16476077
719,1778413058400,1.1553113,-0.2720281,1.0276514,-0.063299045,0.41308546,0.11613733
720,1778413058410,1.0936478444444446,-0.2359792177777777,1.1285381,0.0318573844444444,0.4204156288888889,0.0433786408888888
721,1778413058420,1.05224438,-0.179568396,1.26094248,0.0818382659999999,0.37961103,0.067636064
722,1778413058430,1.020608311111111,-0.1401843244444444,1.3299489222222225,0.1745241566666666,0.3035401855555555,0.10249508
723,1778413058440,0.9488257,-0.08720021,1.4399214666666666,0.3032093133333333,0.2302385166666666,0.0817262733333333
724,1778413058450,0.9009977,-0.03140427,1.548444,0.4485909599999999,0.20784079,0.0544417599999999
725,1778413058460,0.8561983044444444,0.1050400011111111,1.6444387555555555,0.64772715,0.2577266433333333,-0.0679567573333333
726,1778413058470,0.835475565,0.166031025,1.7810186,0.827316265,0.2187978549999999,-0.243422625
727,1778413058480,0.7831926866666667,0.1166057177777777,1.7829122888888886,1.04152,0.1147120233333333,-0.4009194133333333
728,1778413058490,0.7284673,0.044087936,1.6279303333333333,1.1567665,0.0965902216666666,-0.5190165400000001
729,1778413058500,0.70235196,0.031751851,1.5391324999999998,1.16267139,0.106730287,-0.5677825120000001
730,1778413058510,0.6122206533333334,0.0196861077666666,1.4240566666666667,1.0209548666666666,0.2689000466666666,-0.52960458
731,1778413058520,0.6015831955555556,0.0266377331666666,1.5727781111111112,0.9397800333333336,0.4748489055555555,-0.4179552777777778
732,1778413058530,0.694936888,0.0495882586,1.57929338,0.87728358,0.729382178,-0.287220376
733,1778413058540,0.7078326333333335,0.0733782611111111,1.5790589333333334,0.8652566666666667,0.78753483,-0.2454248488888888
734,1778413058550,0.7187492600000001,0.081443774,1.5013498,0.88241466,0.729260001,-0.237253076
735,1778413058560,0.7063318666666666,0.05149691,1.3094463666666667,0.9040793666666668,0.5067487066666667,-0.2459678266666666
736,1778413058570,0.6438959722222222,0.0215832383333333,1.2336797444444445,0.8861611933333333,0.3320463866666666,-0.2345653466666666
737,1778413058580,0.5265520880000001,0.0983959793,1.20197552,0.917965962,0.526641946,-0.246660127
738,1778413058590,0.4201464566666666,0.13910364,1.1479734333333331,0.9244409777777778,0.5714306233333334,-0.2001542788888888
739,1778413058600,0.3762211144444444,0.1586474644444444,1.1260379,0.93000648,0.5453678122222222,-0.1519652166666666
740,1778413058610,0.45670348,0.16017703,1.0919538999999998,0.942460955,0.601531845,0.02966427
741,1778413058620,0.5588944122222222,0.1270975266666666,1.0106449555555554,0.908898288888889,0.7278075533333334,0.10493847
742,1778413058630,0.806705576,0.0603266915999999,0.79355241,0.457142816,0.7142331719999999,0.186873446
743,1778413058640,0.7743405311111111,0.0725110064444444,0.6355926222222222,0.2390024755555555,0.3771388,0.1787152488888889
744,1778413058650,0.7282945000000001,0.10189619,0.5015332955555556,0.0978288833333333,0.0899387711111111,0.1766112244444444
745,1778413058660,0.7716669899999999,0.152472308,0.364478584,-0.3851544739999999,-0.2603889,0.281188268
746,1778413058670,0.7916722166666667,0.13740638,0.3730400533333333,-0.49768782,-0.18989713,0.3010204466666666
747,1778413058680,0.80287205,0.0614500566666666,0.3164818866666666,-0.6841319777777778,0.0369308044444444,0.3436440133333333
748,1778413058690,0.896009613,-0.0591253972,0.0691412341,-0.8672504099999999,0.081441212,0.344594219
749,1778413058700,0.9184208177777778,-0.0933624877777777,-0.0155327494444444,-0.9148965,0.06421532,0.33359897
750,1778413058710,0.823987088,-0.127489134,0.0983655022,-0.91165898,-0.174992473,0.256571135
751,1778413058720,0.7984510444444445,-0.0703631783333333,0.103109,-0.8629065866666666,-0.1573186255555555,0.2787584566666667
752,1778413058730,0.6942173333333334,-0.0012195829999999,0.0235582846666666,-0.7678858900000001,-0.24141194,0.3462231266666666
753,1778413058740,0.6770761000000001,0.0344532302,-0.0721200582,-0.626210036,-0.581694596,0.44477316
754,1778413058750,0.7113626488888889,0.0265056116666666,-0.1249022694444444,-0.5238863377777778,-0.7851338866666666,0.5070795844444445
755,1778413058760,0.8048741611111111,-0.0976954016666666,-0.1454014366666666,-0.2562249766666666,-0.8641367722222222,0.6078014888888889
756,1778413058770,0.94887856,-0.165375502,-0.26739975,-0.144541736,-0.60844967,0.650995184
757,1778413058780,1.076841311111111,-0.2412607011111111,-0.4155493255555555,-0.2777743044444444,-0.0749221126666666,0.5889331555555555
758,1778413058790,1.076075,-0.222857524,-0.488388276,-0.29842943,0.1485733202,0.62931016
759,1778413058800,1.083247511111111,-0.2004961222222222,-0.5284726000000001,-0.2876920933333333,0.1632404411111111,0.6388190111111112
760,1778413058810,1.2648536888888888,-0.0739135277777777,-0.5528032666666667,-0.1225936533333333,0.085051994,0.6333892111111111
761,1778413058820,1.4391754799999998,-0.058344866,-0.45635588,0.036757734,0.1199245896,0.504880518
762,1778413058830,1.7004886555555556,-0.08357872,-0.4972105777777778,0.1319684544444444,0.4136114766666667,0.3002738377777778
763,1778413058840,1.6693352333333331,-0.1463398333333333,-0.5507638333333333,0.1868089611111111,0.5328794088888889,0.1595074844444444
764,1778413058850,1.64795298,-0.1852608029999999,-0.57434448,0.2247765139999999,0.56164352,0.0636044698
765,1778413058860,1.582473888888889,-0.2367990555555555,-0.6045948777777778,0.2597034166666667,0.3620457733333333,-0.0686015411111111
766,1778413058870,1.4986748666666667,-0.2232955533333333,-0.5905425666666666,0.2799292444444444,0.1987035272222222,-0.0786635506666666
767,1778413058880,1.31427788,-0.186456012,-0.48758334,0.33436252,-0.151780268,-0.0184017718
768,1778413058890,1.2220022333333334,-0.1521227,-0.4607891,0.3864881333333333,-0.54948255,0.0756177996666666
769,1778413058900,1.18077016,-0.1381544,-0.456740084,0.403510404,-0.75541952,0.1287207868
770,1778413058910,1.104220955555555,-0.1352111311111111,-0.4205733244444444,0.4143156422222222,-1.2249438666666663,0.24685864
771,1778413058920,1.0986922,-0.13537374,-0.41319484,0.4088859,-1.3077476,0.26396236
772,1778413058930,1.0995367699999998,-0.119942967,-0.395730394,0.327337782,-1.32662279,0.299147164
773,1778413058940,1.0874516666666667,-0.087291676,-0.4136013533333333,0.1925102133333333,-1.2674995666666666,0.3000023688888889
774,1778413058950,1.083549,-0.079974176,-0.4034279966666667,0.1312897419111111,-1.2609838777777778,0.291722
775,1778413058960,1.08179178,-0.089608884,-0.300185188,-0.08559497442,-1.21703682,0.2383678739999999
776,1778413058970,1.0741074,-0.0828198733333333,-0.2408270633333333,-0.2040484333333333,-1.0473231,0.1796654466666666
777,1778413058980,1.0365391899999998,-0.073537824,-0.148533061,-0.264221976,-0.8542546420000001,0.09487985
778,1778413058990,0.9854809577777776,-0.0725448824444444,-0.0734595726666666,-0.2482585,-0.73741992,0.0281753303333333
779,1778413059000,0.9720858466666668,-0.065552606,-0.0455311133333333,-0.2283635455555555,-0.6945248666666666,0.0053618817777777
780,1778413059010,0.948518718,-0.0269649890999999,0.0687235211,-0.0976897519999999,-0.4959926799999999,-0.0164317903
781,1778413059020,0.93845584,-0.0378003101111111,0.1092780566666666,-0.0721223991111111,-0.4715655822222222,-0.0129465675333333
782,1778413059030,0.92727972,-0.0627983813333333,0.1177609366666666,0.083507913,-0.40186114,0.0230849362
783,1778413059040,0.892899654,-0.093731079,0.105109792,0.162958782,-0.354459384,0.045645562
784,1778413059050,0.8790994222222223,-0.1015472533333333,0.1022857811111111,0.21565454,-0.3033789755555556,0.0645546788888889
785,1778413059060,0.89441196,-0.165805406,0.091182156,0.249149326,-0.307729581,0.124017267
786,1778413059070,0.9215849777777778,-0.1821244444444444,0.0805060522222222,0.2375771688888888,-0.3101661733333333,0.16751637
787,1778413059080,0.9383474466666666,-0.17562,0.0666705539999999,0.2028267466666666,-0.32794862,0.2059318766666666
788,1778413059090,0.928151771,-0.169107425,0.0471978748,0.185193616,-0.38573478,0.251623264
789,1778413059100,0.9222456177777778,-0.17125999,0.0448535655555555,0.18348324,-0.41774318,0.2719034
790,1778413059110,0.9630744866666668,-0.2142706366666666,0.0519542533333333,0.2122609333333333,-0.4413625911111111,0.3566075466666666
791,1778413059120,1.007561845,-0.2157503939999999,0.0407340851,0.22318831,-0.4415662,0.37819082
792,1778413059130,1.0491736777777778,-0.1901160955555555,0.0484039082222222,0.2503370833333333,-0.4507967777777778,0.3879643577777777
793,1778413059140,1.02508418,-0.1396179,0.088797858,0.260266742,-0.3928816739999999,0.354978605
794,1778413059150,1.005455,-0.13391025,0.1180861499999999,0.26289338,-0.3523825,0.3342098
795,1778413059160,1.0069185,-0.14840974,0.1315930411111111,0.2647938066666667,-0.1740151133333333,0.3238932844444445
796,1778413059170,1.01013824,-0.15810678,0.0943591664,0.2732778,-0.0927724259999999,0.311608462
797,1778413059180,1.0043709777777776,-0.1464313111111111,0.0900594604444444,0.2749067333333334,-0.1334955766666666,0.30794337
798,1778413059190,0.9956712222222222,-0.1553478177777777,0.1049417605555555,0.2852232555555555,-0.1839922833333333,0.3042104144444444
799,1778413059200,0.996332522,-0.171824047,0.1268031275,0.288060294,-0.19392873,0.298902832
800,1778413059210,1.0281900555555554,-0.1747053177777777,0.1313728422222222,0.2548845011111111,-0.0463480348888888,0.2592113466666667
801,1778413059220,1.03475554,-0.159911768,0.1094027239999999,0.245423156,-0.0123849282,0.236718588
802,1778413059230,1.0314965333333332,-0.1496225486666666,0.0809972722888889,0.2008584577777777,-0.0407146668888888,0.1753216455555555
803,1778413059240,1.0145882777777775,-0.1325382233333333,-0.0045293970777777,0.1651578311111111,-0.1355996111111111,0.14559375
804,1778413059250,1.01028458,-0.143813274,0.01334834096,0.133699199,-0.240963979,0.1231010014999999
805,1778413059260,1.0180574333333334,-0.13594289,0.0949953806666666,0.1258599866666666,-0.2501674,0.075414185
806,1778413059270,1.0210657,-0.13007873,0.091326464,0.1166972766666666,-0.2355070633333333,0.0503694466666666
807,1778413059280,1.0150652800000002,-0.122805947,0.072052984,0.07444701,-0.190813405,0.0229831275
808,1778413059290,1.0040728,-0.1349570616666666,0.0784598599999999,0.0108170874,-0.1092653033333333,-0.010155335
809,1778413059300,0.997283798,-0.148057418,0.084136004,-0.00649025212,-0.084587078,-0.01771457
810,1778413059310,0.9891125533333334,-0.1763517466666666,0.0921496833333333,-0.0276662896666666,-0.0616192186666666,-0.018121802
811,1778413059320,0.9943703777777778,-0.1810132677777777,0.0884909311111111,-0.0327566842222222,-0.0589722113333333,-0.0076949783333333
812,1778413059330,0.99564959,-0.179571452,0.094548195,-0.0293359396,-0.0661394884,0.01498102884
813,1778413059340,0.9949666,-0.17683959,0.1124760699999999,-0.020539738,-0.07566871,0.03917058
814,1778413059350,0.9956170333333334,-0.1799291966666666,0.1173544066666666,-0.0252907733333333,-0.0694923611111111,0.062925752
815,1778413059360,1.037402,-0.185751692,0.125583549,-0.0206008237,0.00410794798,0.1050809994
816,1778413059370,1.061234022222222,-0.1726116933333333,0.0964453277777777,-0.0092730005333333,0.0018410255555555,0.1161373338888888
817,1778413059380,1.07378217,-0.145520693,0.0951488395,0.02026485819,-0.097964628,0.1089293362
818,1778413059390,1.0659767777777778,-0.1458079666666666,0.0918786622222222,0.0619246413333333,-0.1554860833333333,0.1008661519999999
819,1778413059400,1.0640796666666668,-0.1500358533333333,0.08574687,0.0920597733333333,-0.1626126366666666,0.0953685266666666
820,1778413059410,1.0716357,-0.1498136179999999,0.042343934,0.1430451559999999,-0.1434727499999999,0.07973084
821,1778413059420,1.0792295333333335,-0.1447238933333333,0.0192490906666666,0.1482577233333333,-0.13980766,0.066658708
822,1778413059430,1.0804762555555556,-0.1481658322222222,-0.0007893409999999,0.1450677448888888,-0.1396040422222222,0.0591249244444444
823,1778413059440,1.08337725,-0.154326081,-0.0254557521999999,0.1099372344,-0.158010912,0.0504101703999999
824,1778413059450,1.100074311111111,-0.15616087,-0.0564667066666666,0.0880553277777777,-0.1887433166666666,0.0623149055555555
825,1778413059460,1.12166908,-0.158106788,-0.1222449419999999,0.0352917,-0.2431630199999999,0.057373828
826,1778413059470,1.1244118555555556,-0.1505778922222222,-0.1401538522222222,-0.0032324,-0.2782663766666666,0.0422248156666666
827,1778413059480,1.1272304333333334,-0.1393577233333333,-0.17459353,-0.0360824077777777,-0.3546222855555555,0.0273608671111111
828,1778413059490,1.12503515,-0.1390325,-0.2088079249999999,-0.0629325375999999,-0.446453,0.0186461136
829,1778413059500,1.1208072333333332,-0.1468378333333333,-0.2296238444444444,-0.0749051444444444,-0.4935561177777777,0.012157558
830,1778413059510,1.1164980333333334,-0.1665950833333333,-0.25146794,-0.0918052533333333,-0.5775815533333334,-0.0250192863333333
831,1778413059520,1.10815614,-0.178107952,-0.274625784,-0.104836662,-0.60686147,-0.0483791038
832,1778413059530,1.1237613222222222,-0.1723677811111111,-0.2973276411111111,-0.1368722022222222,-0.6062913566666667,-0.073098054
833,1778413059540,1.12259595,-0.167326835,-0.3088747349999999,-0.165921384,-0.5608036000000001,-0.103233186
834,1778413059550,1.1080354888888888,-0.1617438511111111,-0.3225357711111111,-0.1890148066666666,-0.52532016,-0.1242734811111111
835,1778413059560,1.0693103,-0.1425286466666666,-0.3589335366666666,-0.2417428033333333,-0.5079449633333334,-0.1356080866666666
836,1778413059570,1.0546346999999998,-0.132431515,-0.33948627,-0.279432076,-0.5545118579999999,-0.132676017
837,1778413059580,1.0262827666666667,-0.1209792833333333,-0.2954305144444444,-0.29061058,-0.5845044666666666,-0.1349972444444444
838,1778413059590,1.0095745,-0.1021163877777777,-0.2655642788888889,-0.26862008,-0.6219697466666667,-0.1195224466666666
839,1778413059600,1.02327008,-0.094706743,-0.258554729,-0.246996085,-0.6180399700000001,-0.106531758
840,1778413059610,1.0639983555555557,-0.1023061055555555,-0.2718925577777777,-0.2198201744444444,-0.4700045722222222,-0.10051831
841,1778413059620,1.06631824,-0.123305978,-0.288590012,-0.242720161,-0.259472648,-0.1156333862
842,1778413059630,1.0397862,-0.13089179,-0.2972734533333334,-0.2997732933333333,-0.107636378,-0.1437527206666666
843,1778413059640,0.9857790466666666,-0.1050162933333333,-0.3403857133333333,-0.4366030866666667,0.1114541706666666,-0.20463383
844,1778413059650,0.974129996,-0.094023784,-0.355990282,-0.56341498,0.138738684,-0.249836524
845,1778413059660,0.9908099,-0.1007884,-0.3237078966666666,-0.7557368611111112,0.0014337952222222,-0.3058987244444444
846,1778413059670,1.0424185777777777,-0.0940671383333333,-0.2613668766666667,-0.85075755,-0.1135412296666666,-0.3414636133333333
847,1778413059680,0.9975948,-0.082169428,-0.242117788,-0.909032376,-0.197105136,-0.36162157
848,1778413059690,0.9113573555555556,-0.1001650583333333,-0.1004123655555555,-0.9372941866666668,-0.2145346466666666,-0.3412599966666667
849,1778413059700,0.89865608,-0.113299292,-0.038977886,-0.91489644,-0.1399298352,-0.301392042
850,1778413059710,0.9120552466666668,-0.16773336,0.0883181606666666,-0.7917089333333334,0.056885154,-0.2074844599999999
851,1778413059720,0.8853870433333334,-0.1975928333333333,0.1350180386666666,-0.6497887533333333,0.2220684333333333,-0.1174862866666666
852,1778413059730,0.895875459,-0.23657783,0.1216077129999999,-0.543745696,0.3129065119999999,-0.0430036444
853,1778413059740,0.91730285,-0.2590462777777778,0.0356084516666666,-0.4097936844444445,0.3408018644444444,0.0366253848888888
854,1778413059750,0.92566377,-0.26641798,-0.023934323,-0.3211529488888889,0.3392408044444444,0.0836945611111111
855,1778413059760,0.879478174,-0.235269828,-0.052155485,-0.17340427,0.204129884,0.173801318
856,1778413059770,0.8543791333333333,-0.2058961633333333,-0.0278471546666666,-0.1034113526666666,0.047315214,0.2358633966666666
857,1778413059780,0.867523165,-0.193797893,0.0335050056,-0.069529688,-0.0853811777,0.282043447
858,1778413059790,0.8789909888888889,-0.1583899977777777,0.0962352888888888,-0.0201325073333333,-0.1082472233333333,0.3139839722222222
859,1778413059800,0.8780695222222222,-0.1445002977777777,0.1168462457777777,-0.0045219665555555,-0.0702983366666666,0.3202960622222222
860,1778413059810,0.8666786439999999,-0.1062683966,0.143313238,0.0630852479,0.441550954,0.315151386
861,1778413059820,0.8556393766666667,-0.1098404195555555,0.1157689466666666,0.10305502,0.66780879,0.2896179599999999
862,1778413059830,0.85145211,-0.142111948,0.0147874466666666,0.11791897,0.7244139733333333,0.2731250766666667
863,1778413059840,0.85384248,-0.1591312359999999,-0.0256905232,0.1204438039999999,0.64850602,0.262496336
864,1778413059850,0.854623,-0.17220518,-0.028812656,0.10773818,0.3953709,0.26884916
865,1778413059860,0.8906342549999999,-0.157838482,0.0316481911,0.0510515612,0.0461342384,0.308309872
866,1778413059870,0.9220049755555556,-0.1400623755555555,0.12681634,-0.0134131868888888,0.0734458984444444,0.2896179444444444
867,1778413059880,0.9375072288888888,-0.1079466822222222,0.1676046244444444,-0.058208652,0.2873018175555555,0.2478088555555555
868,1778413059890,0.945323442,-0.110024714,0.152691836,-0.0629325384,0.367516242,0.2150945919999999
869,1778413059900,0.9623427666666664,-0.12397064,0.1055549443333333,-0.06411351,0.4483109733333333,0.1619508766666666
870,1778413059910,1.0249886666666663,-0.1464313,-0.0379290423333333,-0.090176326,0.46297132,0.0739888733333333
871,1778413059920,1.0460489000000002,-0.169448913,-0.167695759,-0.1618134396,0.351389884,0.003206948
872,1778413059930,0.993039027777778,-0.1779236677777777,-0.2063704444444444,-0.239910251111111,0.2398084455555555,-0.0485284211111111
873,1778413059940,0.94288429,-0.174107726,-0.19590778,-0.28340258,0.1277892427999999,-0.0758672276
874,1778413059950,0.93029815,-0.16708292,-0.17598589,-0.3032347733333334,-0.0027063915555555,-0.0907447488888889
875,1778413059960,1.0588998333333333,-0.1448424666666666,-0.0680900192222222,-0.32033848,-0.3755947133333333,-0.1398840266666666
876,1778413059970,1.15493015,-0.108512435,0.0590278286999999,-0.301972328,-0.5060716999999999,-0.1965706519999999
877,1778413059980,1.1352830333333337,0.0228231477777777,0.1960310733333333,-0.2594573733333333,-0.4790315266666666,-0.31132848
878,1778413059990,1.08111184,0.099353362,0.164552282,-0.197952691,-0.39178216,-0.4218511159999999
879,1778413060000,1.0088190222222222,0.1016624411111111,0.1218804188888889,-0.16897562,-0.3499391166666666,-0.4691306966666667
880,1778413060010,0.9324934666666668,-0.0405917966666666,0.159084485,-0.1701294422222222,-0.2202358888888889,-0.4920035388888888
881,1778413060020,0.91034884,-0.152633903,0.235775934,-0.211658574,-0.030954686,-0.444085968
882,1778413060030,0.8835711666666667,-0.2252231666666666,0.2708152422222222,-0.3340486188888889,0.2990267044444444,-0.2759672222222222
883,1778413060040,0.8582546444444445,-0.2588260777777778,0.2978696777777778,-0.5268048411111111,0.3826788422222222,0.0143209733333333
884,1778413060050,0.8031566,-0.2429714999999999,0.4241101399999999,-0.54105794,0.370937,0.03672719
885,1778413060060,0.7483363388888888,-0.15700102,0.4962078222222222,-0.5928442111111111,0.1825500088888888,0.2700029711111111
886,1778413060070,0.729286456,-0.1348859,0.480351192,-0.543867864,0.186186248,0.332621592
887,1778413060080,0.7973636111111112,-0.1246820599999999,0.3798697111111111,-0.4872355422222222,0.3314355422222222,0.3245041066666666
888,1778413060090,0.8583732833333334,-0.1037967066666666,0.2250741133333333,-0.4512634088888889,0.5974934644444444,0.2478088511111111
889,1778413060100,0.82912461,-0.1054390814999999,0.2027618389999999,-0.455539342,0.704276364,0.1954863939999999
890,1778413060110,0.7816614333333333,-0.137965365,0.2552486333333333,-0.47243946,0.8390496333333333,0.0857985893333333
891,1778413060120,0.7796017000000001,-0.1495209177777777,0.2758562088888889,-0.469928191111111,0.8828270111111112,0.0680840177777777
892,1778413060130,0.8105625100000001,-0.1598142089999999,0.220384808,-0.486326048,0.774218337,0.1050809949999999
893,1778413060140,0.8882259166666667,-0.1859695222222222,0.2283094011111111,-0.4995203666666666,0.6523339433333333,0.16032195
894,1778413060150,0.90660775,-0.19248074,0.23693457,-0.505018,0.598783,0.18577392
895,1778413060160,0.9699041166666666,-0.20841664,0.2863886566666667,-0.5128911377777778,0.4892377422222222,0.2467229
896,1778413060170,1.0068643,-0.2095549188888888,0.3238129266666666,-0.4359243644444445,0.3958459844444444,0.2952513311111111
897,1778413060180,1.001357198,-0.182705782,0.308493604,-0.170953241,0.390423018,0.263229349
898,1778413060190,0.9830146377777778,-0.1456453466666666,0.2806803333333333,0.1516513166666666,0.3352363777777778,0.2011808455555555
899,1778413060200,0.9854538266666668,-0.15562899,0.30991646,0.2495226211111111,0.3006217,0.1804120388888889
900,1778413060210,1.06111071,-0.2070425699999999,0.460374422,0.591529172,0.1606222839999999,0.107585474
901,1778413060220,1.0954399666666663,-0.2318326299999999,0.5068588133333334,0.8588767,0.1314085166666666,0.0197761813333333
902,1778413060230,0.9630013519999998,-0.308292384,0.51710334,1.23023106,0.146679706,-0.1494132426
903,1778413060240,0.8421663955555556,-0.3249613722222222,0.4459000111111111,1.379318577777778,0.2135759688888888,-0.2482754844444444
904,1778413060250,0.7726366,-0.32474455,0.38776654,1.448548,0.2622062,-0.30175856
905,1778413060260,0.6718989759999999,-0.305597086,0.2471973639999999,1.41409615,0.439901638,-0.3845283499999999
906,1778413060270,0.7111153366666666,-0.3142425866666667,0.2855349588888889,1.3065598555555555,0.4878802911111111,-0.3934534999999999
907,1778413060280,0.8573501888888888,-0.3284032977777777,0.5356444100000001,1.1575810333333334,0.4627677033333334,-0.3412599966666667
908,1778413060290,0.9437106,-0.308085041,0.5053251980000001,1.0435562,0.4636635959999999,-0.313853328
909,1778413060300,0.9459902,-0.2738269466666667,0.4818065566666666,0.9026540766666667,0.47824249,-0.3508299466666666
910,1778413060310,0.8389758,-0.0872307,0.45248373,0.516333919,0.603120071,-0.63815211
911,1778413060320,0.6879567999999999,0.0136898248888888,0.5546834511111112,0.3180732666666667,0.7569925,-0.7912508066666667
912,1778413060330,0.7266785666666666,0.0152041409999999,0.5452452333333333,0.1906098033333333,0.8752932466666666,-0.7356637333333333
913,1778413060340,0.92277339,-0.1012498064,0.5203779239999999,0.0158667579999999,0.8139234479999999,-0.657638172
914,1778413060350,0.9564007177777776,-0.1477830072222222,0.5389677555555555,-0.07673769,0.7521057,-0.635892
915,1778413060360,0.9723331944444444,-0.0889686022222222,0.4040005511111111,-0.3052709044444444,0.7436895888888889,-0.5496268
916,1778413060370,0.860373379,0.1023718339999999,0.6857625460000001,-0.641236876,0.67831534,-0.532170148
917,1778413060380,0.8168430288888889,0.1328227977777777,0.6759743888888888,-0.8625672433333333,0.7647298611111112,-0.4238601277777777
918,1778413060390,0.857763456,0.050069997258,0.549666216,-0.901335677,0.68485142,-0.338653728
919,1778413060400,0.90466662,-0.06491232638,0.4762777866666666,-0.9047156933333332,0.5517478,-0.2640896366666666
920,1778413060410,0.9334690866666668,-0.2362434566666666,0.6293761466666666,-0.8829288,0.2601445666666666,-0.1474178033333333
921,1778413060420,0.9310299,-0.25739306,0.7221153,-0.872748,0.0458899,-0.09651387
922,1778413060430,0.8480711533333333,-0.28124947,0.8476612444444445,-0.8710512033333333,0.0494871111111111,-0.08979455
923,1778413060440,0.6762555577777778,-0.3109768255555555,1.0093577333333337,-0.7564834077777777,0.0983548924444444,0.1046584988888888
924,1778413060450,0.6432997,-0.31401223,1.0132604,-0.7041542,0.098422766,0.16256173
925,1778413060460,0.8183505933333334,-0.4067412233333333,1.061250933333333,-0.47488284,-0.1043785246666666,0.4785733766666666
926,1778413060470,0.90904695,-0.46495092,1.1225807,-0.344853808,-0.184277346,0.658569696
927,1778413060480,0.9373277355555556,-0.4421938266666666,1.1438099555555554,-0.2952937366666666,-0.0616192166666666,0.7031615366666667
928,1778413060490,0.9716691888888888,-0.2535683111111111,1.134090544444445,-0.1417165633333333,0.2507782566666667,0.6889084433333333
929,1778413060500,0.90379055,-0.198676223,1.14541431,-0.0600004708,0.338439928,0.680071528
930,1778413060510,0.9714591333333332,-0.2128884433333333,1.0281494466666663,0.1314254837777777,0.4116601511111111,0.7922773622222222
931,1778413060520,1.0997999555555558,-0.2212358088888888,0.9936521833333334,0.2082564944444444,0.3511184,0.8764385444444445
932,1778413060530,1.25657948,-0.2866020669999999,1.1054943,0.194478492,-0.0123543939999999,0.8071277699999999
933,1778413060540,1.255036022222222,-0.3123319022222222,1.259799088888889,0.1488685588888889,-0.2731081122222222,0.6977996666666667
934,1778413060550,1.1898408,-0.285336785,1.3637077000000002,0.142617555,-0.300827003,0.638106302
935,1778413060560,1.05901844,-0.2533549077777778,1.3930996444444446,0.1964467777777777,-0.1328168627777777,0.4773516777777778
936,1778413060570,0.9200434933333336,-0.2486933866666666,1.4127653333333334,0.2417173466666666,-0.0162129039999999,0.3863354433333333
937,1778413060580,0.8849479840000001,-0.257344298,1.42349766,0.3581855559999999,0.0865723308,0.36792857
938,1778413060590,0.9280318222222222,-0.2405492744444445,1.5019168555555555,0.5032278466666666,0.0794865023888888,0.3858603422222222
939,1778413060600,0.9724958,-0.21857983,1.6072583,0.5151733,-0.0035887277,0.393462
940,1778413060610,0.956031401,-0.1840442742,1.6992393499999998,0.64809366,0.01351499538,0.391507292
941,1778413060620,0.9080306422222222,-0.1042845373333333,1.8361471333333332,0.8795097555555556,0.0530164511111111,0.3692996033333333
942,1778413060630,0.9545984,-0.0470576241999999,1.74474814,1.06108748,0.206779438,0.213933986
943,1778413060640,0.9888686666666666,0.0186291363333333,1.6989405666666668,1.1611781666666667,0.3246483522222222,0.0089081904444444
944,1778413060650,0.9864295,0.03521547,1.7061056,1.1724449,0.34161633,-0.033596598
945,1778413060660,0.8918019899999999,0.0513048214,1.86312698,1.1838067,0.529512946,-0.2687727976
946,1778413060670,0.6956198111111112,0.0344837192222222,1.9349130555555556,1.123305677777778,0.5261600666666666,-0.4996730688888888
947,1778413060680,0.6584225,0.036435053,1.9359971,1.0869263,0.4485146,-0.5387673
948,1778413060690,0.346379972,-0.06313173,1.60819148,0.8797269379999999,-0.0738361610999999,-0.5886124300000001
949,1778413060700,0.3483096155555555,-0.0843917755555555,1.5340191333333335,0.8685823666666667,-0.1262332797777777,-0.57894747
950,1778413060710,0.4817201949999999,-0.0035825249999999,1.42374165,0.8337301500000001,0.2136056449999999,-0.586718795
951,1778413060720,0.4992703222222222,0.0963843477777777,1.4197034222222222,0.7635845333333333,0.8174663466666667,-0.6354847866666666
952,1778413060730,0.5518716322222222,0.1723813355555555,1.2816296888888887,0.5832488777777778,1.4545121555555556,-0.7457766222222222
953,1778413060740,0.52096944,0.162222888,1.17125732,0.400944888,1.8535244,-0.912605798
954,1778413060750,0.4204717066666667,0.0965605185,1.0113089333333332,0.3051097266666667,1.948687622222222,-0.9806134422222222
955,1778413060760,0.2657472133333333,-0.0602779002777777,0.6301079022222222,0.0329433311111111,1.5638538555555557,-0.9772876777777776
956,1778413060770,0.252965976,-0.141276522,0.455127184,-0.273964988,0.600615602,-0.84235834
957,1778413060780,0.2658285055555555,-0.1973794111111111,0.3943692233333333,-0.3863099866666666,-0.14874131,-0.6501450666666666
958,1778413060790,0.314073205,-0.19075809,0.25512159,-0.359147645,-0.45812016,-0.4086568189999999
959,1778413060800,0.3729960177777778,-0.1090849568888888,0.0712439913333333,-0.3355417911111111,-0.4894158955555555,-0.307527674
960,1778413060810,0.3340811488888888,-0.0285043717777777,-0.0697601648888888,-0.27635748,-0.123722024,0.081700818
961,1778413060820,0.370170984,-0.0414780295,-0.02391907734,-0.297696408,0.2618244028,0.350702696
962,1778413060830,0.5936728333333333,-0.068499935,-0.0539564020666666,-0.3451117366666666,0.5051876688888889,0.5378255777777778
963,1778413060840,0.78435466,-0.1031462599999999,-0.12334053,-0.4192957466666666,0.7902497277777777,0.7506718888888889
964,1778413060850,0.8556108520000001,-0.1221290719999999,-0.16162528,-0.4293340009999999,0.8310882549999998,0.791795477
965,1778413060860,1.0168954222222222,-0.1435856111111111,-0.23019297,-0.4114904544444445,0.8129867888888889,0.9242203833333332
966,1778413060870,1.08186499,-0.112963907,-0.1843308862,-0.399891142,0.758886065,0.985006493
967,1778413060880,1.0484859666666668,0.0339247433333333,-0.2452175546666666,-0.3325554333333333,0.7254320366666667,0.7927524866666666
968,1778413060890,1.0505999666666666,0.0409983273333333,-0.4021474333333333,-0.2781900133333333,0.4961606833333333,0.6288417866666667
969,1778413060900,1.13196854,-0.0445330904,-0.475485064,-0.22616619,0.2123839485,0.5477008999999999
970,1778413060910,1.3486322444444443,-0.2376290422222222,-0.5743492377777778,-0.1398076711111111,-0.0990166484444444,0.4671708888888889
971,1778413060920,1.5562120222222222,-0.2662282733333334,-0.4835613999999999,-0.0673713656666666,-0.1204641733333333,0.44192254
972,1778413060930,1.6602370400000002,-0.20395092,-0.40924948,0.1743205309,0.237443961,0.3092872379999999
973,1778413060940,1.5887613333333332,-0.1477931677777778,-0.4314580888888889,0.3106073311111111,0.59864728,0.1538062488888888
974,1778413060950,1.55017271,-0.129022765,-0.4470077739999999,0.3719907,0.696274244,0.0803416856
975,1778413060960,1.530881922222222,-0.1527155533333333,-0.4351236244444444,0.48096585,0.79547584,-0.029320668
976,1778413060970,1.5112331111111112,-0.2139487955555555,-0.4571845466666666,0.50539975,0.807353428888889,-0.0184611613333333
977,1778413060980,1.42111952,-0.347691016,-0.459179264,0.580961542,0.75699248,0.0638259042
978,1778413060990,1.420977266666667,-0.40423089,-0.4532276666666667,0.6577043288888889,0.3982893833333333,0.2288725999999999
979,1778413061000,1.4067691222222225,-0.4219385599999999,-0.4334026511111111,0.6920475222222222,0.21420377,0.2903645533333333
980,1778413061010,1.31168016,-0.367783652,-0.406017576,0.8210856,-0.430570948,0.473421901
981,1778413061020,1.3001774444444445,-0.2914025011111111,-0.3720914722222222,0.8560260866666667,-0.8801545333333335,0.5730510766666668
982,1778413061030,1.26496712,-0.210433016,-0.294526333,0.848573734,-1.09761618,0.600783536
983,1778413061040,1.229356988888889,-0.2013159533333333,-0.27643212,0.7871360866666667,-1.1183171666666667,0.5964668666666667
984,1778413061050,1.219004077777778,-0.20993434,-0.2691078377777778,0.7324992166666667,-1.0954443444444444,0.5883222222222222
985,1778413061060,1.2468348800000002,-0.217238294,-0.245996063,0.571004761,-0.99377208,0.48893742
986,1778413061070,1.235373533333333,-0.2048933911111111,-0.2399767422222222,0.5078431466666667,-0.9257644466666668,0.4244116
987,1778413061080,1.1941381333333334,-0.2116688455555555,-0.1839301133333333,0.3600180955555555,-0.7552023733333333,0.26932425
988,1778413061090,1.13143796,-0.217799294,-0.0455697358,0.2424910879999999,-0.596843608,0.176366874
989,1778413061100,1.1125954,-0.20833533,0.0075309269999999,0.16149275,-0.46233502,0.13018683
990,1778413061110,0.981346912,-0.186526121,0.1987128177,0.0337035,-0.303697987,0.1154654075
991,1778413061120,0.9419248755555556,-0.1928974266666666,0.2699581655555556,-0.0624845866666666,-0.2105302022222222,0.1149156416666666
992,1778413061130,0.9198199311111112,-0.1928974266666666,0.3437260099999999,-0.0713079366666666,-0.2855286744444444,0.1546207111111111
993,1778413061140,0.898582888,-0.170034303,0.435376013,-0.0370326157,-0.43301435,0.211124085
994,1778413061150,0.8914849,-0.16293633,0.46121594,-0.0022143214,-0.53136075,0.24319357
995,1778413061160,0.8915391266666668,-0.2026879811111111,0.4541694466666667,0.0584631728666666,-0.6608603833333333,0.2749576166666667
996,1778413061170,0.8989975680000001,-0.2419531499999999,0.432281308,0.143167325,-0.77356172,0.299696935
997,1778413061180,0.92532838,-0.2227365833333333,0.3483943266666667,0.2082564922222222,-0.8359020755555556,0.31710609
998,1778413061190,0.943006191,-0.215360131,0.296953305,0.2894041539999999,-0.950829572,0.368417252
999,1778413061200,0.9446892,-0.21857983,0.28794363,0.3095892622222222,-0.9759218277777778,0.3789373977777777
1000,1778413061210,1.021466457142857,-0.2351661642857143,0.2577197428571429,0.29875884,-0.8662795971428572,0.36414132
