id,timestamp,acc_x,acc_y,acc_z,gyro_x,gyro_y,gyro_z
0,1778412829450,-0.1261354025,0.013750802,1.12136115,-0.05719057475,-0.0886492075,-0.07864658325
1,1778412829460,-0.15229547,0.004969802,1.1784834,-0.029702447,-0.15324631,-0.041537613
2,1778412829470,-0.0760274744444444,0.0541325626666666,1.2795496,-0.0664211535555555,0.0449481797777777,-0.1068304022222222
3,1778412829480,-0.091041902,0.023556252,1.27871492,-0.13366865,0.35187857,-0.114594948
4,1778412829490,-0.0911232055555555,0.0255401068888888,1.2881001888888888,-0.2188275444444444,0.5634896388888888,-0.1151107755555555
5,1778412829500,-0.1012864,0.021068303,1.2985513,-0.27350685,0.6873559,-0.1185043699999999
6,1778412829510,-0.1061173066666666,0.0157021360888888,1.3002858555555554,-0.30391347,0.7690736777777778,-0.1039797788888888
7,1778412829520,-0.152499749,-0.0219433537,1.36851281,-0.425546742,1.12325646,-0.0557092685999999
8,1778412829530,-0.1918675622222222,-0.0639400466666666,1.3567966222222223,-0.4547927577777777,1.3336322555555558,-0.0312550173333333
9,1778412829540,-0.2110827833333333,-0.0809227433333333,1.3606179777777778,-0.44698748,1.3977712,0.006795676
10,1778412829550,-0.21276853,-0.0859745264,1.3792695,-0.4133298039999999,1.45164797,0.0587787813
11,1778412829560,-0.2145247,-0.096072674,1.3898067,-0.34497598,1.5150539,0.123467505
12,1778412829570,-0.1908648,-0.08826735,1.3949289,-0.23441264,1.6042376,0.19432579
13,1778412829580,-0.192620998,-0.083773184,1.3808244200000002,-0.23441264,1.6042376,0.19432579
14,1778412829590,-0.17572502,-0.0385862622222222,1.2466377777777775,-0.2041841766666666,1.8412463222222224,0.2790978077777777
15,1778412829600,-0.1552224666666666,-0.0136694968,1.2087290666666666,-0.2322407288888889,1.9058603777777776,0.2940975044444444
16,1778412829610,-0.128684336,0.0080431525599999,1.21732716,-0.28682334,1.92065654,0.248874443
17,1778412829620,-0.1364137866666666,0.0053221267777777,1.2431247888888888,-0.3425325999999999,1.9577145666666669,0.1609327966666666
18,1778412829630,-0.16107647,-0.004299031,1.2519329,-0.3633014,1.9805195,0.12957597
19,1778412829640,-0.2258058566666666,-0.0354424484444444,1.2832083444444444,-0.3972373666666666,2.1021459888888887,0.1180377455555555
20,1778412829650,-0.27041212,-0.058966853,1.2851055,-0.42438614,2.2163067,0.12896512
21,1778412829660,-0.28090054,-0.0836430899999999,1.2927245222222223,-0.4334809711111111,2.324697977777778,0.1798011888888888
22,1778412829670,-0.2772905719999999,-0.10124371,1.30972276,-0.4154677679999999,2.39369666,0.23134313
23,1778412829680,-0.2713335888888888,-0.0989183711111111,1.348269688888889,-0.39201123,2.4325466,0.2602973
24,1778412829690,-0.2764321311111111,-0.0917363811111111,1.3661162222222225,-0.2706562366666667,2.5553268,0.2723106133333333
25,1778412829700,-0.3319705955555556,-0.1082143122222222,1.2930157555555557,-0.1995095122222222,2.6369088222222223,0.2757042066666667
26,1778412829710,-0.37233881,-0.119348426,1.21338182,-0.15297143,2.68604802,0.310386766
27,1778412829720,-0.3915811077777777,-0.1246278633333333,1.1107659888888888,-0.15865909,2.670912611111111,0.3667204555555555
28,1778412829730,-0.3591774577777777,-0.1007613022222222,1.1061587666666666,-0.2051937733333333,2.6665009444444445,0.4250903111111111
29,1778412829740,-0.312060888,-0.0632293016,1.12991354,-0.2513941819999999,2.74554462,0.4367099719999999
30,1778412829750,-0.2669193666666666,-0.0253029663333333,1.1545219777777778,-0.26678753,2.7917247,0.4337779
31,1778412829760,-0.3187177933333333,-0.0204043074444444,1.1481191333333334,-0.2655658466666666,2.9928207555555555,0.3851816111111111
32,1778412829770,-0.398318982,-0.0490150567,1.0414357500000002,-0.222424752,3.19483816,0.36194226
33,1778412829780,-0.4351541066666666,-0.0639061705555555,0.9257417,-0.1526863646666666,3.139780366666667,0.3985523666666666
34,1778412829790,-0.4549228959999999,-0.0768032636,0.938121816,-0.0624438618,2.99063179,0.433044882
35,1778412829800,-0.44100136,-0.075339764,0.94075614,0.03504736,2.8858714,0.46126604
36,1778412829810,-0.3872278633333333,-0.0353069383333333,0.8887205,0.1264029622222222,2.7411007333333335,0.4327598222222222
37,1778412829820,-0.389699568,-0.0265747212,0.8781060479999999,0.1208714059999999,2.77488814,0.380267688
38,1778412829830,-0.38852876,-0.040429186,0.81093144,0.0114279366666666,2.927816433333333,0.3651593933333333
39,1778412829840,-0.4412858822222222,-0.0623816882222222,0.7472929166666666,-0.1421237966666667,3.0809354,0.3566075233333333
40,1778412829850,-0.46542346,-0.058722936,0.7247984,-0.24235365,3.1656396,0.36230877
41,1778412829860,-0.4919833,-0.0523811056666666,0.7016805666666666,-0.3272614299999999,3.2305928999999995,0.3916294477777777
42,1778412829870,-0.48547345,-0.0279650457999999,0.68725355,-0.343754306,3.22293711,0.425897989
43,1778412829880,-0.481522,-0.018964522,0.6833021,-0.3052709,3.172359,0.43194535
44,1778412829890,-0.5019398466666667,0.0024493295333333,0.6191113533333333,-0.2794795755555556,3.151725933333333,0.4267870855555555
45,1778412829900,-0.5159447,-0.007957782,0.572259,-0.18920994,3.0795102,0.40873316
46,1778412829910,-0.5245902111111111,0.0016362741777777,0.5553101644444445,-0.2197523033333333,3.131432088888889,0.40411788
47,1778412829920,-0.5152604244444444,0.0419706055555555,0.41191428,-0.2945471622222222,3.2076521888888885,0.3916973322222222
48,1778412829930,-0.50005966,0.068174705,0.42215878,-0.3749075,3.0746233,0.33848575
49,1778412829940,-0.5044502,0.05768629,0.5041757,-0.3516953,3.0532436,0.2993915
50,1778412829950,-0.54199204,0.0602474188999999,0.451895261,-0.228724121,3.06930892,0.267322034
51,1778412829960,-0.5954920666666665,0.0431325983333333,0.2542628166666667,-0.1812180199999999,3.041230333333333,0.2413610233333333
52,1778412829970,-0.6002077777777778,0.0430716174444444,0.1628347011111111,-0.2769683266666666,3.011366777777778,0.2306372655555555
53,1778412829980,-0.6098831,0.037166804,0.15714332,-0.402823243,3.01671504,0.2092915489999999
54,1778412829990,-0.6440958244444445,0.0171385346666666,0.1752812311111111,-0.6125270733333333,3.1206406,0.2157054433333333
55,1778412830000,-0.6945832,0.023019636,0.21912864,-0.63940436,3.172359,0.24502611
56,1778412830010,-0.743259825,0.0155801776499999,0.14360594,-0.590964206,3.14670335,0.3318275009999999
57,1778412830020,-0.7310114666666666,0.0294563260555555,0.0996602873333333,-0.5437728555555555,3.1088307222222222,0.4174886422222222
58,1778412830030,-0.67333196,0.0613938242,0.030184688,-0.52077783,3.08751216,0.445506176
59,1778412830040,-0.66699011,0.0696382066666666,-0.0184157073333333,-0.5233434,3.0734017,0.43011284
60,1778412830050,-0.68211293,0.07207738,-0.07518731,-0.50746137,3.088062,0.39834878
61,1778412830060,-0.7245087210000001,0.0687601095,-0.1413466619999999,-0.4965882899999999,3.0303368,0.399203966
62,1778412830070,-0.7448300444444445,0.0840868844444444,-0.2689520222222222,-0.51418066,2.96406,0.4325562
63,1778412830080,-0.7166170222222221,0.1290556288888888,-0.3257168311111111,-0.6683856911111111,2.896595266666667,0.4426012544444444
64,1778412830090,-0.685988198,0.176998127,-0.373793154,-0.763772888,2.8488389599999997,0.4031133679999999
65,1778412830100,-0.68357646,0.19629194,-0.3712107,-0.8336538,2.7813404,0.36108708
66,1778412830110,-0.7620200669999999,0.213094752,-0.398087251,-0.762001416,2.3932080200000003,0.246553215
67,1778412830120,-0.8342458333333334,0.2160593533333333,-0.3577139666666666,-0.61571708,1.983981088888889,0.1807513966666666
68,1778412830130,-0.8429184,0.2265409933333333,-0.3601057044444444,-0.55632913,1.8760646999999997,0.17294613
69,1778412830140,-0.8287008199999999,0.2471119719999999,-0.387772632,-0.560788299,1.86574133,0.159018811
70,1778412830150,-0.8166025,0.2853825,-0.35340476,-0.5679352,1.8937792,0.13873868
71,1778412830160,-0.7877899,0.319043,-0.39124236,-0.5483881,1.9371494,0.11796988
72,1778412830170,-0.78784476,0.325397034,-0.433116724,-0.5240764,1.9339729599999995,0.0880383608
73,1778412830180,-0.8080654,0.31074983,-0.46542346,-0.4769189999999999,1.9127154,0.047722444
74,1778412830190,-0.788902706,0.272976291,-0.5239817959999999,-0.40251782,1.87166648,0.0648261659999999
75,1778412830200,-0.7619347,0.26583868,-0.5462209,-0.3541387,1.8320836,0.07704311
76,1778412830210,-0.76952322,0.2654050444444444,-0.6090158777777778,-0.2762641588888889,1.735976988888889,0.0630614951111111
77,1778412830220,-0.780545539,0.2635458499999999,-0.6954856850000001,-0.166226813,1.56465471,0.0444849518
78,1778412830230,-0.7833180422222221,0.25488952,-0.7231011277777779,-0.19641285,1.5017510111111112,0.0529485788888888
79,1778412830240,-0.7803097377777778,0.23415661,-0.7542919388888889,-0.29427567,1.4484716000000002,0.0731744066666666
80,1778412830250,-0.77974063,0.2299829299999999,-0.7531537,-0.32359633,1.435033,0.08131904
81,1778412830260,-0.7926343233333334,0.2038601288888889,-0.6896540433333334,-0.3257003711111111,1.3517540777777777,0.1343948755555555
82,1778412830270,-0.77266705,0.2087317,-0.64284235,-0.2582357,1.2352859,0.1778329
83,1778412830280,-0.7707664844444444,0.2105238022222222,-0.6394309555555556,-0.1218046361111111,1.0704928,0.1926289866666666
84,1778412830290,-0.7158310577777778,0.2325033977777778,-0.7098212444444445,0.0883268188888889,0.7682591777777779,0.181565865
85,1778412830300,-0.6997055,0.2455936,-0.7648617,0.19704406,0.5114929699999999,0.1169925239
86,1778412830310,-0.6990550111111111,0.2417993455555555,-0.8017202555555555,0.1913563966666666,0.3203639322222222,0.0513875267777777
87,1778412830320,-0.7228809222222222,0.2307383944444444,-0.8234593111111111,0.1300001711111111,0.1836020261111111,-0.0103165314444444
88,1778412830330,-0.7502267,0.20751211,-0.8256273999999999,0.0512958995999999,0.06568135,-0.0379947
89,1778412830340,-0.7833994111111111,0.1810607055555555,-0.743210688888889,-0.037643462,-0.06284091,-0.05070032
90,1778412830350,-0.7909608,0.16872935,-0.67921644,-0.032756682,-0.17829104,-0.034818295
91,1778412830360,-0.7949989677777778,0.1645014644444444,-0.6592661044444443,-0.0035717587777777,-0.2577011877777778,-0.0267415359999999
92,1778412830370,-0.7916925333333333,0.1636071033333333,-0.61877596,0.0558161699999999,-0.39819607,-0.017103724
93,1778412830380,-0.7736914779999999,0.171461223,-0.59912336,0.135287392,-0.521953707,-0.0284654824
94,1778412830390,-0.7635608,0.1874567399999999,-0.58704984,0.2288216822222222,-0.658009748888889,-0.0688221234444444
95,1778412830400,-0.7777893,0.18312044,-0.60698664,0.27022356,-0.72011256,-0.092237934
96,1778412830410,-0.80883986,0.172778368,-0.618694608,0.3034536479999999,-0.8266443280000001,-0.0956586828
97,1778412830420,-0.8267928444444445,0.1645285633333333,-0.6308057822222222,0.3184805,-0.9449043,-0.08490777
98,1778412830430,-0.813837139,0.173949174,-0.576783639,0.319580004,-1.06499692,-0.067926221
99,1778412830440,-0.7961101677777778,0.1813317255555555,-0.5369182011111111,0.3439324655555555,-1.1618909,-0.0662429877777777
100,1778412830450,-0.7885216,0.19043794,-0.49838275,0.3752893,-1.2008494,-0.07574506
101,1778412830460,-0.801229692,0.195608974,-0.501602454,0.4477968499999999,-1.23743915,-0.093581798
102,1778412830470,-0.81830996,0.19360885,-0.5320433,0.5072323,-1.2845354,-0.1007898
103,1778412830480,-0.8109111066666667,0.1934462566666666,-0.5540059033333333,0.5540639333333333,-1.3735155,-0.0822607666666666
104,1778412830490,-0.79886671,0.196706611,-0.5828084330000001,0.6015471119999999,-1.5060286,-0.065727162
105,1778412830500,-0.7841311,0.19824328,-0.5915894,0.62207156,-1.6516546,-0.06474981
106,1778412830510,-0.760202875,0.208780471,-0.5538219200000001,0.629279572,-1.7795660300000002,-0.0828308908
107,1778412830520,-0.7539125166666667,0.2073494988888889,-0.5318264244444444,0.632388088888889,-1.8858806222222224,-0.1016042635555555
108,1778412830530,-0.7548611333333333,0.2041785833333333,-0.4941447066666666,0.63428855,-1.9484585222222224,-0.1091380449999999
109,1778412830540,-0.76327625,0.1965358549999999,-0.45444725,0.6330057649999999,-2.0278755100000003,-0.109647081
110,1778412830550,-0.7616636866666666,0.1906818511111111,-0.4440401222222222,0.6171848,-2.0737500333333334,-0.105676578
111,1778412830560,-0.7500640933333333,0.1819008633333333,-0.4424851666666667,0.5782263111111111,-2.1133872777777776,-0.1058123188888889
112,1778412830570,-0.75242192,0.1856571719999999,-0.4195428,0.55194632,-2.14363104,-0.11520579
113,1778412830580,-0.7651056,0.1753151,-0.4312752,0.4939972966666667,-2.2362354,-0.1352008599999999
114,1778412830590,-0.77174016,0.153499813,-0.40114539,0.438939574,-2.30049656,-0.135852432
115,1778412830600,-0.7691370377777778,0.1427081933333333,-0.3576496044444444,0.4094967266666666,-2.348291988888889,-0.1317393955555555
116,1778412830610,-0.73523598,0.1528442833333333,-0.2829636733333334,0.4034561422222222,-2.442506688888889,-0.1323502388888889
117,1778412830620,-0.7237068799999999,0.155408457,-0.263832469,0.4978252559999999,-2.6237112,-0.163462732
118,1778412830630,-0.6951252444444445,0.1564251111111111,-0.29155495,0.5249468833333333,-2.7634729333333334,-0.1983217433333333
119,1778412830640,-0.6845758555555554,0.1592708044444444,-0.2888718888888889,0.5263043199999999,-2.927655211111111,-0.2475288933333333
120,1778412830650,-0.6708928,0.16970502,-0.2628812,0.47852248,-3.0682857,-0.3023694
121,1778412830660,-0.6685078444444444,0.16639182,-0.2222013177777777,0.4785224799999999,-3.0682857,-0.3023694
122,1778412830670,-0.66289234,0.1089148888,0.083382918,0.422813216,-3.17139674,-0.361499416
123,1778412830680,-0.6904705155555555,0.0636927393333333,0.2027354088888888,0.512933528888889,-3.086136088888889,-0.3952181833333333
124,1778412830690,-0.8136179355555555,-0.0763391405555555,0.3168917977777777,0.7956200977777779,-2.751867077777778,-0.2815327233333333
125,1778412830700,-0.768130208,-0.065406253,0.332696236,1.06872317,-2.48705701,-0.039269845
126,1778412830710,-0.73068286,-0.0197572533333333,0.0788054133333333,1.2659724111111113,-2.459618911111111,0.1536705044444444
127,1778412830720,-0.6257377,0.06061329,-0.17013188,1.3603823444444445,-2.5880920333333335,0.2959979088888889
128,1778412830730,-0.545409865,0.136334165,-0.4174572980000001,1.177270656,-2.9885091299999997,0.286075044
129,1778412830740,-0.5049549222222223,0.1647386088888889,-0.2701241811111111,0.59947026,-3.606442200000001,0.17722206
130,1778412830750,-0.4109996000000001,0.14650245,-0.13497739,0.07230905,-3.5251993999999995,0.075821415
131,1778412830760,-0.4520284355555556,0.1164160083333333,0.0630897271111111,-0.1254273,-3.458209833333333,0.04240298
132,1778412830770,-0.47859502,0.080614455,0.3548073,-0.9271134,-3.1257055,-0.05619795
133,1778412830780,-0.442717927,0.0760044335,0.44226971,-1.05239814,-3.05857326,-0.0904053932
134,1778412830790,-0.4447617255555555,0.0261532855555555,0.8610156933333334,-1.1325617444444445,-2.882316822222222,-0.2398593628888888
135,1778412830800,-0.578174,-0.05506419,1.0357007,-0.9295567999999998,-2.7201028,-0.29198498
136,1778412830810,-0.58547015,-0.050066947,0.94189034,-0.4690848649999999,-2.76451136,-0.1608971672
137,1778412830820,-0.57914966,-0.03969744,0.8582818,0.031993125,-3.0047576,-0.051922016
138,1778412830830,-0.442376438,0.0262698263999999,0.7476594999999999,0.242002417,-3.28208226,-0.077455431
139,1778412830840,-0.34142238,0.07134563,0.6540016,0.33619505,-3.5997229,-0.17775655
140,1778412830850,-0.3454300511111111,0.07134563,0.6919678888888888,0.2764677788888889,-3.6431608555555552,-0.2304251633333333
141,1778412830860,-0.3626644599999999,0.0327641078,0.8986682760000001,-0.072606831,-3.42043922,-0.4351064919999999
142,1778412830870,-0.44124526,-0.03140427,1.0100894,-0.22952586,-3.2680328,-0.4966188
143,1778412830880,-0.5104430833333333,-0.0860720933333333,1.1427361111111112,-0.2669826677777778,-3.074462111111111,-0.4555562955555555
144,1778412830890,-0.527131357,-0.092965789,1.17842547,-0.065314842,-2.70134987,-0.247209872
145,1778412830900,-0.49518132,-0.07262619,1.1179615,0.13522631,-2.7017775,-0.15698774
146,1778412830910,-0.3831625879999999,-0.0205347359999999,1.01251939,0.369119733,-2.93041757,-0.191622784
147,1778412830920,-0.2766760244444444,0.0304184402222222,0.8891812333333333,0.5030242266666667,-3.149732133333333,-0.2688406733333333
148,1778412830930,-0.2689926511111111,0.0271662188888888,0.9463526333333334,0.4785224766666666,-3.2859510333333333,-0.3534769533333333
149,1778412830940,-0.2461424109999999,0.0365326201,0.971910375,0.42684479,-3.2775620599999997,-0.392408284
150,1778412830950,-0.2411421133333333,0.0326136923333333,0.9912875,0.34250714,-3.2543905333333334,-0.4483618899999999
151,1778412830960,-0.25228098,-0.0008130546666666,1.0521447666666668,0.2545451377777777,-3.2215405555555554,-0.4973654233333333
152,1778412830970,-0.2774857,-0.03286777,1.1386945,0.2189124,-3.159302,-0.48928866
153,1778412830980,-0.2718180277777777,-0.0499690383333333,1.1971837333333333,0.2328939977777777,-3.043037388888889,-0.4313939122222222
154,1778412830990,-0.196294987,-0.0399413542,1.2225317,0.420125482,-2.8558331,-0.319473108
155,1778412831000,-0.128788,-0.0200113301666666,1.1261734,0.5593579133333333,-2.875054333333333,-0.2905596933333333
156,1778412831010,-0.1067643622222222,-0.005955632,1.008649661111111,0.6145377688888889,-2.9638308777777778,-0.2980934744444444
157,1778412831020,-0.141343617,-0.0247209554,0.972889075,0.5245192519999999,-3.03212373,-0.31825142
158,1778412831030,-0.1499037266666666,-0.0571510313333333,1.0514874444444444,0.4107184222222222,-3.0166353333333333,-0.2477325033333333
159,1778412831040,-0.0584519203333333,-0.0294122839999999,1.2327514666666666,0.3522807066666666,-2.952428433333333,-0.1231875299999999
160,1778412831050,-0.00456733965,0.011750686,1.32961113,0.46600008,-2.92046085,-0.0934596299999999
161,1778412831060,0.0146756533333333,0.0341483354444444,1.3464810111111112,0.5884749499999999,-2.9351212,-0.08959093
162,1778412831070,0.031709168,0.043051295,1.3297727,0.68010205,-2.9729936,-0.09162709
163,1778412831080,0.0510192368888888,0.0648411803333333,1.3098257666666666,0.6785409944444445,-2.9500529444444443,-0.0995681055555555
164,1778412831090,0.0971703031111111,0.089944268,1.3098596777777776,0.6097188777777778,-2.866977622222222,-0.1373727611111111
165,1778412831100,0.14348398,0.10723186,1.3622441,0.493304966,-2.7212023600000004,-0.220393688
166,1778412831110,0.035205308,0.042146768,1.3183086,0.3728458833333333,-2.529586488888889,-0.2967360355555555
167,1778412831120,0.033416584,0.03350805,1.3036736,0.25739577,-2.4763749,-0.32619244
168,1778412831130,-0.0252758649999999,0.0089944274999999,1.3305197000000002,0.0626576594,-2.40135514,-0.397966996
169,1778412831140,-0.0399786194444444,0.0080052095555555,1.414415166666667,-0.1836698933333333,-2.2329776666666667,-0.4734066055555556
170,1778412831150,-0.0527164899999999,0.011799469,1.4723115,-0.29061058,-2.106736,-0.5008947
171,1778412831160,-0.1150473666666666,-0.0175619996666666,1.5438096,-0.4135945,-1.8322618666666668,-0.5171839711111111
172,1778412831170,-0.17452239,-0.05335677,1.5972579,-0.5673244,-1.4891692,-0.53754556
173,1778412831180,-0.193063098,-0.0842640628,1.59469674,-0.585161125,-1.36871015,-0.519769914
174,1778412831190,-0.22919019,-0.12997709,1.6262839,-0.60825115,-1.0573002,-0.4575245999999999
175,1778412831200,-0.25095638,-0.1397371577777778,1.648839522222222,-0.58748233,-0.9363525,-0.4111002
176,1778412831210,-0.27994013,-0.1370659249999999,1.6882845,-0.25208903,-0.46997061,-0.0860912814999999
177,1778412831220,-0.2596798,-0.12290351,1.6763173,-0.10361496,-0.37254047,0.031229567
178,1778412831230,-0.160765477,-0.04862479,1.5603501999999998,0.18079551,-0.236932384,0.157919288
179,1778412831240,-0.1323214055555555,-0.0017514571111111,1.4503996777777777,0.3767824666666667,-0.1585403188888889,0.2185560577777777
180,1778412831250,-0.1059411366666666,0.025468965,1.3829058666666667,0.4320981,-0.13614258,0.23891763
181,1778412831260,-0.0504450135,0.0620280079,1.3159823000000002,0.4074198519999999,0.0541363387999999,0.2618855009999999
182,1778412831270,-0.0194083125555555,0.0821050617777777,1.2796851555555555,0.35920364,0.1553079155555555,0.2447546244444444
183,1778412831280,-0.0116571842,0.0653290153333333,1.2346857666666666,0.2508800555555555,0.3264130111111111,0.1910000644444444
184,1778412831290,-0.00773825668,0.0516310618,1.21872964,0.153551734,0.43654198,0.13849434
185,1778412831300,-0.014177657,0.039118133,1.214827,0.09491039,0.47417018,0.10330954
186,1778412831310,-0.0239099323,0.0208487771,1.21738812,-0.007711947,0.552725152,0.0816855495999999
187,1778412831320,-0.0260753707777777,0.0173824518888888,1.230441,-0.101171575,0.6281037,0.063604474
188,1778412831330,-0.0202484713333333,0.0128293388888888,1.3110216222222222,-0.2192093277777777,0.7654085733333333,0.0228134487377777
189,1778412831340,-0.03801746,-0.0093084706,1.37010742,-0.257258312,0.8888133039999999,-0.0077730312539999
190,1778412831350,-0.0855131122222222,-0.05861792,1.4053936333333334,-0.2711992022222222,1.0299733111111111,-0.0070417115555555
191,1778412831360,-0.1214603333333333,-0.1118459566666666,1.4159363,-0.3093432422222222,1.243566188888889,0.0755499277777777
192,1778412831370,-0.14131922,-0.12631835,1.4300835,-0.32970482,1.3531793,0.12407835
193,1778412831380,-0.1679501822222222,-0.1290183646666666,1.4117558,-0.3430077022222222,1.6172011,0.2709531755555555
194,1778412831390,-0.1513198,-0.113390766,1.3988316,-0.32237464,1.7807724,0.38491014
195,1778412831400,-0.1147458528888888,-0.0684694427777777,1.3862191,-0.1969812777777778,1.802830822222222,0.4497956777777777
196,1778412831410,-0.0799978922222222,-0.0468794313333333,1.341172488888889,-0.1633422566666666,1.8145048,0.4733472333333333
197,1778412831420,-0.0406670068,-0.0332092572,1.30352732,-0.2046643759999999,1.86250386,0.4737273099999999
198,1778412831430,-0.0127141573333333,-0.0209056909999999,1.319538366666667,-0.3679845733333333,2.0383464,0.44680932
199,1778412831440,-0.0386675678888888,-0.0169183316666666,1.3677457555555557,-0.4946335733333333,2.2528216666666667,0.4191175844444444
200,1778412831450,-0.059820563,-0.023111105,1.3688298,-0.5716003,2.470419,0.39773792
201,1778412831460,-0.0917194428888888,-0.0464457961111111,1.3165266333333332,-0.5799485555555556,2.5847832222222227,0.3831454511111111
202,1778412831470,-0.10177423,-0.0582351,1.2963561,-0.5624376,2.6041946,0.37269318
203,1778412831480,-0.128716851111111,-0.07762648,1.2814873777777778,-0.5535463844444445,2.5385623888888893,0.3684172555555556
204,1778412831490,-0.1463872555555555,-0.0861263,1.3106930555555556,-0.573636491111111,2.5406663666666667,0.3739827588888889
205,1778412831500,-0.1699398,-0.097365437,1.36893964,-0.60776252,2.66712704,0.4086109999999999
206,1778412831510,-0.2396345777777778,-0.1089731633333333,1.4286199888888889,-0.5783875177777777,2.9283592,0.4859035511111111
207,1778412831520,-0.30361527,-0.12509876,1.4132532,-0.4995203299999999,3.0300314,0.5528931
208,1778412831530,-0.294559865,-0.125342678,1.3609209,-0.439229708,3.03247484,0.594369635
209,1778412831540,-0.2490964977777777,-0.1120898722222222,1.251485677777778,-0.2231119533333333,2.9574763777777777,0.7121885255555556
210,1778412831550,-0.2049631729999999,-0.0905998,1.21925101,-0.167692847,2.88835305,0.717760804
211,1778412831560,-0.1888592588888888,-0.0666366755555555,1.2413088555555556,-0.16042376,2.8442576,0.68483615
212,1778412831570,-0.20062146,-0.06530869,1.248518,-0.1622563,2.8644154,0.66040224
213,1778412831580,-0.305758698,-0.079553421,1.27277861,-0.168120438,3.0430196,0.668587592
214,1778412831590,-0.36438102,-0.08997476,1.2626652,-0.13843326,3.2397557999999997,0.7080483333333334
215,1778412831600,-0.3786636888888888,-0.11391586,1.1816137333333332,-0.11522106,3.280479,0.737369
216,1778412831610,-0.370966765,-0.117918465,1.08622195,-0.05016583,3.31193745,0.87236625
217,1778412831620,-0.35291693,-0.10265843,1.0628059,-0.03825431,3.2908633,0.89680016
218,1778412831630,-0.3202930659999999,-0.04915530648,1.07137954,0.0114075720999999,3.27785229,0.904802224
219,1778412831640,-0.2908265744444445,0.0072734599555555,1.02856604,0.0823540883333333,3.2837367555555557,0.8812574444444444
220,1778412831650,-0.3259031666666667,0.0350630226666666,0.9170148866666666,0.0558161704444444,3.2789177888888887,0.8061232288888889
221,1778412831660,-0.36228334,0.0385510304,0.82596892,-0.0217614344,3.27009434,0.7261294119999999
222,1778412831670,-0.37999168,0.0281418859999999,0.8543791,-0.07857023,3.279257,0.68911207
223,1778412831680,-0.4044545,0.0097939322222222,0.8376504955555555,-0.0997462671111111,3.359345955555556,0.6965101188888888
224,1778412831690,-0.4166097000000001,0.02497097,0.76138586,-0.120107844,3.3965400000000003,0.71171343
225,1778412831700,-0.4026048,0.0534482366666666,0.7608980533333334,-0.1119632146666666,3.3195732,0.6946096766666667
226,1778412831710,-0.418408564,0.085639141,0.7735969600000001,-0.069041012,3.20400082,0.58929964
227,1778412831720,-0.43295208,0.09134679,0.7460191,-0.07490514,3.2163398,0.5192965
228,1778412831730,-0.4684724577777778,0.0706138744444444,0.7578084333333334,-0.0887510111111111,3.2491898444444445,0.5078940244444445
229,1778412831740,-0.499084,0.045978293,0.6615935,-0.092375381,3.47326212,0.54855611
230,1778412831750,-0.50274277,0.056222793,0.6181458,-0.0748372761111111,3.4663121555555554,0.55981606
231,1778412831760,-0.5167476666666667,0.0994062066666666,0.5838145666666666,0.0585989177777777,3.382490444444445,0.5668747188888889
232,1778412831770,-0.5056698,0.11552504,0.4990534999999999,0.14438902,3.36783,0.57121855
233,1778412831780,-0.4940430788888889,0.1528138011111111,0.4087840244444444,0.0790283652666666,3.3647079222222223,0.5171246111111112
234,1778412831790,-0.469228624,0.18199843,0.367856848,-0.0014813042399999,3.4239057200000005,0.45088163
235,1778412831800,-0.466887,0.19507235,0.3223664,-0.0712400573333333,3.432172566666667,0.3849101333333333
236,1778412831810,-0.5516379033333334,0.1830933422222222,0.21763127,-0.1968370422222222,3.391313611111111,0.3031923577777778
237,1778412831820,-0.55960584,0.18214478,0.18080322,-0.2392994199999999,3.3794359999999997,0.29878068
238,1778412831830,-0.59409973,0.17783558,0.22799094,-0.3049994333333333,3.3563596555555555,0.26050091
239,1778412831840,-0.618054375,0.168436651,0.283284826,-0.36513394,3.3501155,0.21692713
240,1778412831850,-0.6309480744444445,0.1513231946666667,0.2637010088888888,-0.2417428,3.3604999,0.1906607
241,1778412831860,-0.6643883466666667,0.102380636,0.1196682248888889,-0.1193951856666666,3.3624002444444447,0.21115802
242,1778412831870,-0.6638192,0.108451456,0.014116677,0.008780929,3.3409526,0.2578539
243,1778412831880,-0.6623082888888888,0.1292114724444444,-0.0934370228888888,-0.121957348,3.2307286555555557,0.2671523444444444
244,1778412831890,-0.6887292,0.14089237,-0.07762648,-0.26495498,3.1931276,0.2798444
245,1778412831900,-0.64249,0.1885137088888888,-0.0508159666666666,-0.3105649411111111,3.2037836444444445,0.2752969788888889
246,1778412831910,-0.65707086,0.1924705822222222,0.0322173289555555,-0.33988558,3.2639859222222225,0.2460441822222222
247,1778412831920,-0.673386876,0.189163476,-0.00407950636,-0.313089764,3.3509706800000005,0.272636392
248,1778412831930,-0.6748463355555556,0.1670591933333333,-0.0269561801111111,-0.2896603822222222,3.398779666666667,0.3176490488888889
249,1778412831940,-0.6322150933333333,0.2299320999999999,-0.1281002955555555,-0.21791977,3.3745494,0.3537569
250,1778412831950,-0.61159056,0.28026026,-0.25846022,-0.2301367,3.1650288,0.30733252
251,1778412831960,-0.6970732333333333,0.2677900077777778,-0.0941010185555555,-0.3277365177777778,3.006547688888889,0.2180130922222222
252,1778412831970,-0.6760151,0.24608143,-0.009055407,-0.39506546,3.0532436,0.18760647
253,1778412831980,-0.65963878,0.2285126566666666,0.0662741916666666,-0.4319877911111111,3.3689838,0.1362952911111111
254,1778412831990,-0.6527345444444445,0.1763449766666666,0.1694712777777777,-0.381016,3.6982985,0.10330954
255,1778412832000,-0.6694293,0.16311927,0.09052358,-0.30221668,3.8296306,0.119802415
256,1778412832010,-0.6819605311111112,0.1774324388888889,-0.1019266777777777,-0.1401724764444444,3.8258976,0.1842128661111111
257,1778412832020,-0.6306466,0.2480327599999999,-0.5330189,0.16637953,3.6256075,0.3146627
258,1778412832030,-0.6306466,0.24803276,-0.5330189,0.16637953,3.6256075,0.3146627
259,1778412832040,-0.3248123188888889,0.4075339588888889,-0.7767119333333333,0.4129582077777777,2.970838811111111,0.0779169633333333
260,1778412832050,-0.299910791,0.397757973,-1.0426949799999998,0.26570329,2.84584564,-0.146359003
261,1778412832060,-0.3354328422222222,0.3389594755555556,-1.2228694444444443,-0.0432938022222222,2.909431511111111,-0.2395199988888888
262,1778412832070,-0.3204455,0.29757833,-1.2986124,-0.34741938,3.0691257,-0.23334365
263,1778412832080,-0.31652151,0.287940572,-1.3168086,-0.4901743859999999,3.10767019,-0.186308415
264,1778412832090,-0.3507217,0.256082,-1.3439809,-0.58503896,3.0025434,-0.0659715
265,1778412832100,-0.3758721888888889,0.2250774933333333,-1.3711097888888888,-0.5095653955555556,2.8858037555555556,0.00033936
266,1778412832110,-0.395233432,0.1698056379999999,-1.49541653,-0.2315263892,2.30855218,0.32877327175
267,1778412832120,-0.3725623999999999,0.1839368877777777,-1.5026419111111111,-0.0011962424444444,1.765772811111111,0.5610377222222223
268,1778412832130,-0.287943632,0.2757660779999999,-1.44799912,0.264115089,1.17475091,0.67408519
269,1778412832140,-0.24724004,0.33931857,-1.4359984,0.4608079,0.7612684,0.6817819
270,1778412832150,-0.2468877077777778,0.3634392255555555,-1.5371899666666666,0.5889500599999999,0.3067980355555555,0.5992496333333333
271,1778412832160,-0.24831326,0.376686616,-1.56270098,0.4116346899999999,-0.2098107699999999,0.37990119
272,1778412832170,-0.25553322,0.37590608,-1.5267965,0.1409275488888889,-0.4194399644444444,0.2002985136444444
273,1778412832180,-0.3141646844444444,0.34228962,-1.2837977777777776,-0.2076880766666666,-0.6592314666666668,-0.0649025224
274,1778412832190,-0.35413653,0.316116,-1.1443655,-0.33764583,-0.7720346,-0.19241689
275,1778412832200,-0.4977695511111111,0.2234717011111111,-0.9224522622222222,-0.42791547,-0.9065567,-0.3068489533333333
276,1778412832210,-0.599623392,0.1445236808,-0.743497641,-0.45309594,-1.018206,-0.34818295
277,1778412832220,-0.65479434,0.1130858659999999,-0.6474768,-0.4085041,-1.0634087,-0.29687178
278,1778412832230,-0.67155341,0.1349841584444444,-0.5941132777777778,-0.2248851144444444,-1.136506777777778,-0.2251311544444444
279,1778412832240,-0.6867779,0.14991727,-0.589882,-0.06024481,-1.2338351,-0.18753012
280,1778412832250,-0.6971036777777777,0.1679637222222222,-0.6328384444444445,0.0939601855555555,-1.3756874111111113,-0.151422252
281,1778412832260,-0.6802327555555556,0.2213747044444444,-0.6976999333333332,0.3604253333333333,-1.6748667999999998,-0.0934596306666666
282,1778412832270,-0.65725479,0.2411817489999999,-0.7116329589999999,0.437168104,-1.7994185699999998,-0.0775165136
283,1778412832280,-0.5963321888888888,0.2763846766666666,-0.7099499422222222,0.4571428155555556,-1.882079744444444,-0.09637812
284,1778412832290,-0.589882,0.29270002,-0.7048277,0.44431502,-1.9039346,-0.12583454
285,1778412832300,-0.5628106333333334,0.3070368855555555,-0.6658179666666667,0.4132975622222222,-1.9173053666666664,-0.2013081122222222
286,1778412832310,-0.5887267444444445,0.2941906033333333,-0.6343053133333334,0.3763752488888888,-1.9115362333333337,-0.2897452222222222
287,1778412832320,-0.6195666249999999,0.280674913,-0.6212070030000001,0.348412024,-1.90014723,-0.333033918
288,1778412832330,-0.6254226666666667,0.2764287333333333,-0.6251177733333333,0.3227564177777778,-1.917916111111111,-0.3483865488888888
289,1778412832340,-0.6384519,0.264863,-0.6052792,0.2928249,-1.9711277,-0.3811687
290,1778412832350,-0.6405983,0.26642408,-0.53888512,0.316281444,-2.01119914,-0.394851676
291,1778412832360,-0.6411349,0.26681435,-0.5222866,0.32214558,-2.021217,-0.39827242
292,1778412832370,-0.6411349,0.26681435,-0.5222866,0.333629509,-2.03160143,-0.402487265
293,1778412832380,-0.7394130444444444,0.19366306,-0.4606806888888889,0.4969836166666666,-2.1901504444444444,-0.4675017744444444
294,1778412832390,-0.7605524444444444,0.1762365666666666,-0.4370478444444444,0.54693735,-2.2124124,-0.45447037
295,1778412832400,-0.776959949,0.147621417,-0.45132511,0.6063116909999999,-2.2338531,-0.4258827069999999
296,1778412832410,-0.7807975866666667,0.1161754733333333,-0.47591192,0.6385644266666667,-2.2698319999999996,-0.3799469933333333
297,1778412832420,-0.7877899,0.10284136,-0.48274156,0.6898756,-2.3370252,-0.29442838
298,1778412832430,-0.73031703,0.1267452,-0.4400561699999999,0.783823932,-2.5188286,-0.255761737
299,1778412832440,-0.7255640311111111,0.1253630022222222,-0.4397546733333333,0.8419766,-2.6278648,-0.26816195
300,1778412832450,-0.79058272,0.09507262,-0.417536564,0.8995184,-2.80879786,-0.2488591699999999
301,1778412832460,-0.8253022,0.0673616566666666,-0.40717823,0.893695,-2.8862532,-0.1883445733333333
302,1778412832470,-0.8299637333333334,0.0542443575555555,-0.3688968455555556,0.8505284666666666,-2.898470133333334,-0.1146356724444444
303,1778412832480,-0.799125912,0.0564667092,-0.331110784,0.7664759,-2.82113688,-0.0211047724
304,1778412832490,-0.76120293,0.06671121,-0.3419407,0.7173638,-2.7500343,0.025121093
305,1778412832500,-0.7075887022222223,0.0971838533333333,-0.3746119644444444,0.5130693111111112,-2.6548779111111114,0.0153305683333333
306,1778412832510,-0.67455461,0.1359164669999999,-0.350087494,0.3037590719999999,-2.62566582,-0.0539378132
307,1778412832520,-0.709706,0.12625737,-0.3202321,0.29221407,-2.6938365,-0.09407048
308,1778412832530,-0.732542732,0.1002009728,-0.2397274079999999,0.4063203319999999,-3.07036276,-0.142449584
309,1778412832540,-0.77339876,0.065491624,-0.14180705,0.56220853,-3.4018085,-0.14538164
310,1778412832550,-0.7226166777777778,0.0763052615555555,-0.0932235955555555,0.6884503,-3.554723933333334,-0.0859258483333333
311,1778412832560,-0.6846131179999999,0.0762727444,-0.093450574,0.6921968319999999,-3.6176818,-0.069880931
312,1778412832570,-0.7082696333333334,0.0590380005555555,-0.0718266835555555,0.63612103,-3.6015552999999993,-0.0684149
313,1778412832580,-0.6872250555555556,0.0365705627777777,-0.0251979464888888,0.49908765,-3.5019872999999997,-0.0097226545333333
314,1778412832590,-0.670405,0.03887422,-0.0029574896,0.38933876,-3.4323506000000004,0.033672955
315,1778412832600,-0.6203071955555556,0.055704472,0.0767626078222222,0.3556742955555555,-3.4460609,0.0581068483333333
316,1778412832610,-0.589906356,0.0754434289999999,0.099646052,0.3795041249999999,-3.5325297499999997,0.0540141721
317,1778412832620,-0.57402736,0.09524946,0.08564524,0.44064993,-3.6907392,0.028786177
318,1778412832630,-0.5448759377777779,0.0929729033333333,0.097763156,0.3708776,-3.782162666666667,-0.0028166846666666
319,1778412832640,-0.5157008,0.08159013,0.18787682,0.23112933,-3.862998,-0.050089475
320,1778412832650,-0.4563308288888888,0.0849236555555555,0.2173297622222222,-0.0999923024444444,-3.808021800000001,-0.1335040616666666
321,1778412832660,-0.4641225933333334,0.0680120956666666,0.3558642733333333,-0.2652943577777777,-3.773067822222222,-0.1823718433333333
322,1778412832670,-0.469762176,0.0537836240999999,0.465027144,-0.3682492699999999,-3.700573770000001,-0.198952945
323,1778412832680,-0.4253907,0.042807378,0.5629902,-0.4952444,-3.6296544000000006,-0.24128467
324,1778412832690,-0.467829152,0.0037075341,0.7532055339999999,-0.5183344599999999,-3.435954740000001,-0.28105083
325,1778412832700,-0.4991652933333333,-0.0289549403333333,0.8745530533333333,-0.3889400277777778,-3.273598288888889,-0.2627321933333333
326,1778412832710,-0.4890833999999999,-0.014299615,0.91490096,-0.10239327,-3.2930775,-0.19241689
327,1778412832720,-0.326945906,0.076028824,0.7113098200000001,0.0536171184,-3.5695469599999994,-0.246171436
328,1778412832730,-0.2320968666666666,0.0872815216666666,0.7785718233333333,-0.0176891186666666,-4.014691666666667,-0.4654656033333333
329,1778412832740,-0.2482157,0.082077965,0.89977807,-0.123162076,-3.983335,-0.54243237
330,1778412832750,-0.325159214,0.0075492215,1.146661387,-0.2697654072,-3.6088246,-0.57987731
331,1778412832760,-0.3751946533333333,-0.0275287066666666,1.2670454444444443,-0.2565812899999999,-3.1322212,-0.5467083133333334
332,1778412832770,-0.377869598,-0.0355752469,1.2291936199999998,-0.1246281079999999,-2.93365509,-0.49234288
333,1778412832780,-0.3540924777777777,-0.0382068378888888,1.0626229944444443,0.2445001055555555,-2.9048502777777774,-0.4155797377777778
334,1778412832790,-0.3187381,-0.024330689,0.99298483,0.3856737,-2.9540575,-0.39521816
335,1778412832800,-0.3053701111111111,-0.0370143568888888,0.8659042177777778,0.4291117177777777,-3.0999819444444445,-0.4045844888888889
336,1778412832810,-0.2231837499999999,-0.0071193182499999,0.793247525,0.327765369,-3.29888068,-0.417208675
337,1778412832820,-0.1615643,0.0098481355,0.8023944,0.0963357033333333,-3.364546733333333,-0.4850127333333333
338,1778412832830,-0.11668364,0.02643447,1.0971981,-0.04497363,-3.303462,-0.5436541
339,1778412832840,-0.17281497,-0.015519199,1.2746171,-0.13721156,-3.0041468,-0.58091575
340,1778412832850,-0.23105007,-0.033589357,1.3067259444444446,-0.0785702283333333,-2.682841166666667,-0.5114827433333333
341,1778412832860,-0.2346905239999999,-0.023294042,1.30302726,0.0314433623,-2.56109937,-0.451110709
342,1778412832870,-0.1937612977777777,-0.0001524478888888,1.2650941777777778,0.1381448046666666,-2.5118718666666666,-0.4176159177777778
343,1778412832880,-0.13037956,0.0487406478,1.06976972,0.26631414,-2.50532896,-0.410367194
344,1778412832890,-0.11177482,0.06061329,1.0139921,0.2732778,-2.5496764,-0.42942563
345,1778412832900,-0.114738403,0.0436488902,0.98620695,0.201381072,-2.62004609,-0.5130506269999999
346,1778412832910,-0.1422677866666666,0.0059657958888888,0.9886010666666666,0.1282355077777777,-2.6497197777777775,-0.5403962244444445
347,1778412832920,-0.1601008,-0.018720604,1.0125287,0.0749560511111111,-2.6895604888888887,-0.5158944777777779
348,1778412832930,-0.0446763872,0.0007988271,1.2281388,0.0997971699999999,-2.73403028,-0.476949542
349,1778412832940,-0.0583570639999999,-0.012348281,1.2956244,0.17676392,-2.723768,-0.4709632399999999
350,1778412832950,-0.0410694701,-0.0091377277999999,1.31508897,0.326482589,-2.76151826,-0.433945895
351,1778412832960,-0.019543823,0.002042802,1.3270897,0.5418469833333333,-2.8272046,-0.38442654
352,1778412832970,0.083456094,0.046734434,1.28625194,0.5787014349999999,-2.8809388599999997,-0.411588871
353,1778412832980,0.1398997633333333,0.0863058455555555,1.2811893,0.47316062,-2.8838777777777778,-0.5209848433333334
354,1778412832990,0.09832891,0.0532957899999999,1.3468773,0.32825404,-2.787907,-0.59557605
355,1778412833000,0.0097329547777777,-0.0308046436666666,1.4802625444444444,0.0859513026666666,-2.4164863333333333,-0.6193991
356,1778412833010,-0.0719723534444444,-0.0904422688888889,1.5177139,-0.0039111191777777,-2.139517977777778,-0.5732462488888888
357,1778412833020,-0.13253821,-0.13732508,1.5391752,0.01592784219,-1.97699181,-0.485379218
358,1778412833030,-0.1027499,-0.140496,1.5233206,0.041155834,-1.9137081,-0.41781953
359,1778412833040,-0.10143275,-0.130370406,1.5892054599999998,0.08025006,-1.7945929,-0.35856733
360,1778412833050,-0.1165311877777777,-0.1338933133333333,1.6013738777777775,0.1214483144444444,-1.7023549777777778,-0.3151293111111111
361,1778412833060,-0.155313936,-0.132538216,1.5527795599999998,0.2311293339999999,-1.37255852,-0.168838181
362,1778412833070,-0.0976276444444444,-0.0926239657777777,1.4631104222222222,0.2421245766666666,-1.1908722,-0.1030295733333333
363,1778412833080,-0.109027695,-0.0698455357,1.3855626,0.203519034,-1.09028604,-0.076722416
364,1778412833090,-0.1157079699999999,-0.066772185,1.377367,0.16393614,-1.0444725,-0.06536066
365,1778412833100,-0.0998127328888888,-0.0510260119999999,1.4213769555555558,0.0580559428888888,-0.8101107277777778,-0.0225080250111111
366,1778412833110,-0.1244889666666666,-0.0583977193333333,1.4420353555555556,0.0077628505222222,-0.6398200711111112,-0.0015525701777777
367,1778412833120,-0.1227815499999999,-0.05213719,1.4386206,0.02820587122,-0.4956872719999999,0.0601837251999999
368,1778412833130,-0.1281951455555555,-0.0387691984444444,1.407399177777778,0.0641644124444444,-0.4240552488888889,0.1017484877777777
369,1778412833140,-0.07543123,-0.008201698,1.4261808,0.065589726,-0.37987065,0.11125056
370,1778412833150,-0.0576320888888888,0.0348360442222222,1.4787312,0.0362690571111111,-0.1873858769999999,0.07880778
371,1778412833160,-0.0718808898888889,0.0220710716222222,1.4649940222222222,-0.0249514142222222,0.0315774086666666,0.0541024028888888
372,1778412833170,-0.0937341291999999,-0.02534294332,1.44800831,-0.1132663519999999,0.31046311,0.0623827756
373,1778412833180,-0.1240824399999999,-0.0963979046666666,1.4102347666666666,-0.14881766,0.4700978666666666,0.1037167733333333
374,1778412833190,-0.13335128,-0.0981053193333333,1.3732915,-0.14881766,0.5621322,0.13873868
375,1778412833200,-0.098493551,-0.071769432,1.3406848999999998,-0.20458802,0.683751892,0.1989071349999999
376,1778412833210,-0.0458868233333333,-0.031160354,1.3760660666666666,-0.2688237066666666,0.81027192,0.2389855044444444
377,1778412833220,-0.0469722528,-0.0222817884,1.38458688,-0.3025832,0.926808,0.236596414
378,1778412833230,-0.060308397,-0.027257688,1.3932216,-0.32970482,1.0239327,0.2358634
379,1778412833240,-0.036130156,-0.040429186,1.3968803,-0.32603973,1.1259443,0.24258272
380,1778412833250,-0.0308097235999999,-0.0409901945999999,1.3957339000000002,-0.327505767,1.18147024,0.225662251
381,1778412833260,0.014391083,-0.049210187,1.3793182,-0.34986275,1.3421842,0.17416783
382,1778412833270,-0.0266207947777777,-0.0646650185555555,1.3549062666666665,-0.4111511088888889,1.492588311111111,0.1709778377777777
383,1778412833280,-0.0652355124,-0.080462013,1.38476065,-0.4992149419999999,1.64021655,0.1934706
384,1778412833290,-0.07665081,-0.08485251,1.4008135,-0.51845664,1.7141901,0.20715357
385,1778412833300,-0.10706112,-0.118872786,1.41686318,-0.509599326,1.85053122,0.303667439
386,1778412833310,-0.12619638,-0.14098383,1.4291078,-0.4862174422222222,1.9588005222222225,0.3933941022222222
387,1778412833320,-0.1124218755555555,-0.1313558977777777,1.4203200555555555,-0.4820093911111111,2.041332711111111,0.4338457666666666
388,1778412833330,-0.1027498972,-0.113781027,1.3825929,-0.5252981059999999,2.19394944,0.480446636
389,1778412833340,-0.086163566,-0.106561095,1.4093505,-0.58442813,2.2608984,0.4863107799999999
390,1778412833350,-0.0836430957777777,-0.1115207277777777,1.460054722222222,-0.6182283344444445,2.4070265666666666,0.5010389788888889
391,1778412833360,-0.0781143119999999,-0.119293542,1.50119126,-0.6296308,2.5687654,0.5144097
392,1778412833370,-0.0925934822222222,-0.1290895166666666,1.4873733444444444,-0.6168030355555555,2.624827544444445,0.5210611777777778
393,1778412833380,-0.1205863029999999,-0.134242601,1.43244937,-0.582473398,2.7809738000000004,0.59015482
394,1778412833390,-0.11546406,-0.12363527,1.4203267,-0.57221115,2.8014982,0.6170321
395,1778412833400,-0.1002666933333333,-0.1056938411111111,1.4370757222222224,-0.4481413011111111,2.931142044444444,0.6342036722222222
396,1778412833410,-0.135123738,-0.1200984697,1.38980366,-0.36971531,2.98330158,0.63639595
397,1778412833420,-0.1504051111111111,-0.1339949442222222,1.341667011111111,-0.300995,2.9695575,0.6347467
398,1778412833430,-0.2267306999999999,-0.1870942466666666,1.2856847666666666,-0.17019732,2.9060295,0.6231406
399,1778412833440,-0.258701068,-0.21040556,1.23173342,-0.124017267,2.90932818,0.66217369
400,1778412833450,-0.2107033466666666,-0.1707416666666666,1.2817007666666669,-0.038797286,2.867843022222222,0.7972320333333334
401,1778412833460,-0.185471175,-0.1528869669999999,1.29410908,0.0155002489999999,2.8950343,0.8186117000000002
402,1778412833470,-0.15010023,-0.13269067,1.2299803,0.06925481,2.9274092,0.8393805
403,1778412833480,-0.1345437644444444,-0.12849326,1.1637230444444446,0.0452281499999999,3.0007108,0.8255346333333333
404,1778412833490,-0.09582571,-0.131620489,1.0179161,-0.210429242,3.16380705,0.77292031
405,1778412833500,-0.0930745353333333,-0.1360953433333333,0.9629017,-0.3876674177777778,3.1919739444444444,0.7411019555555556
406,1778412833510,-0.104945146,-0.12192785,0.9685931,-0.5777088,3.1729698,0.70927
407,1778412833520,-0.1479110659999999,-0.105926907,1.04429868,-0.762062502,3.1586759399999997,0.664006219
408,1778412833530,-0.2284347266666666,-0.1133670455555555,1.1777583777777778,-0.8582234555555555,3.173444866666667,0.6268056233333333
409,1778412833540,-0.28702894,-0.14635001,1.3068446,-0.7469135,3.2358869999999995,0.64635277
410,1778412833550,-0.3117526044444444,-0.1587152255555555,1.259558622222222,-0.6062150022222222,3.3410205666666664,0.6552439811111112
411,1778412833560,-0.4024625,-0.19077332,1.1147907,-0.35291702,3.5834591,0.68483615
412,1778412833570,-0.4903822459999999,-0.1947247819999999,0.9772857,-0.197425832,3.74313455,0.8249034249999999
413,1778412833580,-0.5335778833333333,-0.16319042,0.7635201533333333,-0.051896565,3.807232799999999,1.0077707333333334
414,1778412833590,-0.46152085,-0.09729226,0.62034106,0.036879905,3.7709892,1.1197594
415,1778412833600,-0.332464508,0.0241477504,0.526634408,0.081044162,3.64124528,1.09385949
416,1778412833610,-0.26626554,0.08037054,0.4417026,0.1312218697777777,3.4117431888888894,1.0020016555555555
417,1778412833620,-0.28163227,0.10528053,0.4004502,0.068033114,3.383712,0.9126822
418,1778412833630,-0.28163227,0.10528053,0.4004502,0.068033114,3.383712,0.9126822
419,1778412833640,-0.4534580299999999,0.0664435788888889,0.3360291066666667,-0.0413764166666666,3.4301363555555557,0.8475251333333333
420,1778412833650,-0.5531724739999999,0.094133544,0.306780076,-0.37393014,3.4362450000000004,0.801752282
421,1778412833660,-0.59573597,0.1033292,0.36846662,-0.3515595666666666,3.3968793111111113,0.8253988655555555
422,1778412833670,-0.6269234411111112,0.10826174,0.4206580288888888,-0.23644033,3.356631133333333,0.8584525166666667
423,1778412833680,-0.6167128,0.127354997,0.380610618,0.07719582,3.23735296,0.9040081
424,1778412833690,-0.5875918555555555,0.1595791022222222,0.2318461822222222,0.3174624066666667,3.1676757,0.9267316
425,1778412833700,-0.5699875,0.208137155,0.0394992564999999,0.42629503,3.0639335,0.90474113
426,1778412833710,-0.5812906644444444,0.2249690988888888,-0.0496912452222222,0.4122794711111111,2.9981996555555557,0.8731128333333333
427,1778412833720,-0.6277567888888889,0.22692042,-0.0796489511111111,0.3251997977777778,2.8497297777777777,0.8338149888888888
428,1778412833730,-0.6455406850000001,0.242407439,-0.0268003425,0.298139275,2.68226091,0.79710987
429,1778412833740,-0.6014544611111111,0.2876048533333333,0.0214240123333333,0.34902287,2.5180652,0.7526402
430,1778412833750,-0.5939472722222222,0.3003969311111111,-0.0523743287777777,0.2442964877777777,2.4840613444444446,0.5958560555555555
431,1778412833760,-0.623326053,0.297407592,-0.1059512981,0.116167876,2.50236643,0.4955345699999999
432,1778412833770,-0.71393055,0.2401766155555555,-0.0928204506666666,-0.2457048333333333,2.619262177777778,0.3982809022222222
433,1778412833780,-0.8314052399999999,0.173769287,0.0466551622,-0.491335,2.7167126,0.382711088
434,1778412833790,-0.9252065,0.11723245,0.28257746,-0.6320742,2.8051634,0.45210332
435,1778412833800,-0.9404817033333333,0.0587432626666666,0.5736411733333333,-0.4418801044444445,2.9521059555555555,0.6307422133333334
436,1778412833810,-0.89395463,0.07451654,0.7033032,-0.07124006,3.1784673,0.8656469
437,1778412833820,-0.7619482922222223,0.1158604177777777,0.5517293366666667,0.3074852444444444,3.4320367888888885,1.0026124555555556
438,1778412833830,-0.6263306055555555,0.2089518911111111,0.4174599966666667,0.72774816,3.6268291,1.0989906
439,1778412833840,-0.55863017,0.25364286,0.23912981,0.9659785600000002,3.6488197,1.0922712
440,1778412833850,-0.45932558,0.331381131111111,-0.4142450488888889,1.3552239888888888,3.5188451555555553,0.9180440333333334
441,1778412833860,-0.46444783,0.35492924,-0.5476844,1.2048199,3.3782144,0.7801283
442,1778412833870,-0.4343105544444444,0.3912999422222222,-0.5566043177777779,1.0624924266666669,3.3486222,0.6781168311111111
443,1778412833880,-0.3849276266666667,0.4500059355555554,-0.6289086722222224,0.82337968,3.280342933333333,0.4324204755555556
444,1778412833890,-0.423439372,0.42173803,-0.59452248,0.6757039899999999,3.1550107400000003,0.189011411
445,1778412833900,-0.4477598799999999,0.3682633533333333,-0.6300875666666665,0.6002847111111111,3.1078805333333333,0.0598036461111111
446,1778412833910,-0.4573742399999999,0.3398064,-0.6621423,0.5652628,3.0831752,0.007406523
447,1778412833920,-0.4827415699999999,0.3072028777777777,-0.7109628666666666,0.4968478622222222,3.013470788888889,-0.0593879273333333
448,1778412833930,-0.480204835,0.28295857,-0.7470557600000001,0.485363964,2.93021906,-0.0873511544
449,1778412833940,-0.4748820455555556,0.2599033477777778,-0.7576526077777778,0.4950153611111111,2.8585786,-0.1074412422222222
450,1778412833950,-0.49182749,0.2079206619999999,-0.802741962,0.56343025,2.742857,-0.13621894
451,1778412833960,-0.5256471988888889,0.1725473177777778,-0.8942052933333334,0.6570935077777778,2.5549874444444445,-0.1181650088888888
452,1778412833970,-0.5329376033333334,0.14674636,-0.99290346,0.6481344066666667,2.3918234000000003,-0.0714691316666666
453,1778412833980,-0.51168841,0.12625736,-1.0936125799999998,0.57247078,2.22363676,-0.0213491124399999
454,1778412833990,-0.5051548111111112,0.1111548622222222,-1.1500637333333334,0.5229106888888889,2.0652915333333333,0.0010265627555555
455,1778412834000,-0.527927124,0.0751507264,-1.2469508,0.4696651799999999,1.69067245,0.02176143375
456,1778412834010,-0.5535891866666667,0.0556231642222222,-1.286657,0.45775366,1.530325,0.03489465
457,1778412834020,-0.55311765,0.0328738701,-1.27370231,0.459219688,1.0921643920000002,0.0752105652
458,1778412834030,-0.5379514444444444,0.0326949981111111,-1.2645961111111113,0.4482516022222221,0.6927177688888889,0.1095537593333333
459,1778412834040,-0.53350675,0.0335080539999999,-1.22783075,0.425073335,0.4574940519999999,0.1238950972
460,1778412834050,-0.5342656155555556,0.0326712842222222,-1.1976782444444445,0.4029131377777777,0.2601615533333333,0.1316800088888888
461,1778412834060,-0.52472574,0.05329579,-1.2141562,0.3795652,0.01901262,0.12896512
462,1778412834070,-0.5564013489999999,0.075516601,-1.23642883,0.309928628,-0.322878598,0.082235309
463,1778412834080,-0.57977296,0.07451654,-1.2382768666666666,0.2489117788888889,-0.5240306,0.0551883517777777
464,1778412834090,-0.5945164,0.07451654,-1.2202542,0.151963522,-0.75908462,0.0463785786
465,1778412834100,-0.5637523933333334,0.1085327506666666,-1.0708958133333335,-0.0186393233333333,-1.106914588888889,-0.0022058365555555
466,1778412834110,-0.55350786,0.12772086,-0.99231404,-0.06207735,-1.1959625,-0.025044737
467,1778412834120,-0.5762835966666667,0.1431689233333333,-0.8916170333333332,-0.12255123,-1.3124307666666668,-0.07615229
468,1778412834130,-0.6113100419999999,0.158173866,-0.8460859,-0.20370229,-1.39387706,-0.118504372
469,1778412834140,-0.6383163666666667,0.1657481577777778,-0.7878609777777777,-0.2653622288888889,-1.451771811111111,-0.1423952933333333
470,1778412834150,-0.6433302,0.16750978,-0.7458362,-0.31809872,-1.5068839,-0.16187452
471,1778412834160,-0.64633038,0.166119451,-0.73082618,-0.319076072,-1.5227659,-0.1635848919999999
472,1778412834170,-0.6618949844444444,0.16585656,-0.659411788888889,-0.2745079711111111,-1.5746878777777775,-0.1608564411111111
473,1778412834180,-0.682975799,0.17124171,-0.587451981,-0.0727060936,-1.6930089899999998,-0.1322484314999999
474,1778412834190,-0.68489766,0.17173766,-0.6282988766666667,0.0558161686666666,-1.7557022666666666,-0.0971247153333333
475,1778412834200,-0.6806494439999999,0.17926656,-0.7235300520000001,0.14438902,-1.8229973,-0.0565033705
476,1778412834210,-0.6786981,0.1838522,-0.755349,0.16576867,-1.8581209999999997,-0.039094225
477,1778412834220,-0.6385586,0.229479845,-0.80782153,0.0998582542,-2.06855785,-0.0480125955
478,1778412834230,-0.6148698944444444,0.2484663788888889,-0.7796762533333333,0.0338256663333333,-2.265691888888889,-0.1185722411111111
479,1778412834240,-0.6086364888888889,0.2500654044444445,-0.6854905555555555,0.0053194611666666,-2.3614592,-0.17205531
480,1778412834250,-0.619252627,0.246349735,-0.655916376,-0.0058794047499999,-2.44895536,-0.21544583
481,1778412834260,-0.63552487,0.23120251,-0.64845246,-0.001603474,-2.519134,-0.24067383
482,1778412834270,-0.644305908,0.2146100759999999,-0.615273706,-0.0105218442,-2.55554052,-0.251669076
483,1778412834280,-0.67357588,0.1900314099999999,-0.5879306466666666,-0.046195325,-2.7011666,-0.29565006
484,1778412834290,-0.681064122,0.175510239,-0.5534317000000001,-0.0752716525,-2.77471252,-0.286853874
485,1778412834300,-0.6734945666666666,0.1717647577777777,-0.4754139155555555,-0.0782987399999999,-2.885370866666667,-0.2788178444444444
486,1778412834310,-0.6706489,0.17433943,-0.43298256,-0.066353284,-2.9296234,-0.27854636
487,1778412834320,-0.6763944777777778,0.1743936366666666,-0.4107387266666666,-0.0349964576666666,-3.0586479222222223,-0.2758314844444444
488,1778412834330,-0.678728611111111,0.1771851311111111,-0.3872278822222222,-0.0212184573333333,-3.1615417888888886,-0.2786820933333333
489,1778412834340,-0.692997761,0.169915395,-0.320393676,-0.0406366134999999,-3.24182755,-0.292473672
490,1778412834350,-0.7113050299999999,0.1469360677777777,-0.2341599866666667,-0.080810002,-3.2912450222222223,-0.3016906866666666
491,1778412834360,-0.72458494,0.13650186,-0.13619697,-0.082235314,-3.2741413,-0.29503924
492,1778412834370,-0.767858776,0.0987252708,-0.1111619748,-0.0621995229,-3.1718854700000003,-0.2381082689999999
493,1778412834380,-0.8182522777777778,0.0588787742222222,-0.1180963242222222,-0.028480753,-3.0078118,-0.13011047
494,1778412834390,-0.7904729,0.06451596,-0.19769447,-0.06024481,-2.99926,-0.05131117
495,1778412834400,-0.7429667666666666,0.0881792655555555,-0.119478522176,-0.1452374211111111,-3.0467703777777775,-0.0292867325777777
496,1778412834410,-0.6325979,0.14211196,-3.0489584e-05,-0.20203774,-3.0945523,-0.0586413369999999
497,1778412834420,-0.64884884,0.132251622,0.0431671521664,-0.199334733,-3.09052067,-0.0879009195
498,1778412834430,-0.7209533111111112,0.0908047544444444,0.0944736695555555,-0.1820748933333333,-3.0779913666666667,-0.1441599455555555
499,1778412834440,-0.7372686,0.08890763,0.072443254,-0.17447324,-3.0921087,-0.13438639
500,1778412834450,-0.7206823200000001,0.083443898,0.0691259868,-0.267322024,-3.16498284,-0.124001991
501,1778412834460,-0.71092564,0.07378479,0.13711166,-0.34131092,-3.1812925,-0.12216945
502,1778412834470,-0.703534954,0.0497742444,0.2583534859999999,-0.402823231,-3.0896654000000003,-0.107631284
503,1778412834480,-0.7168134844444445,0.0179515885333333,0.3890504755555556,-0.4107438833333333,-2.936682111111111,-0.0641898674888888
504,1778412834490,-0.7293379322222222,0.0185004019777777,0.3984141711111111,-0.3063568766666666,-2.8878822555555552,0.0008229472666666
505,1778412834500,-0.6092429,0.061979227,0.207548694,-0.2467517479999999,-3.05203724,0.0452637824
506,1778412834510,-0.5647281,0.063540295,0.26184455,-0.38407022,-3.187401,-0.015882028
507,1778412834520,-0.5683122911111111,0.0346835963333333,0.4523570277777778,-0.5036605322222223,-3.1192575999999996,-0.0606096213333333
508,1778412834530,-0.597403752,0.0019208437999999,0.662483758,-0.465679395,-3.0311462,-0.0684148919999999
509,1778412834540,-0.6462572,-0.014299615,0.74260426,-0.316877,-3.0200288,-0.04703524
510,1778412834550,-0.540757158,0.0485058774999999,0.573774318,0.0106516559999999,-3.1648606999999997,0.014225105
511,1778412834560,-0.4588580711111111,0.0803976408888888,0.4476446722222221,0.11669728,-3.324570177777778,-0.0055739811111111
512,1778412834570,-0.44612357,0.081346214,0.5068588,-0.09139802,-3.5331407,-0.14721419
513,1778412834580,-0.491275611,0.0318524689,0.6523490000000001,-0.290587686,-3.40779467,-0.174580146
514,1778412834590,-0.5704296333333334,-0.0388030786666666,0.9395467,-0.4205174222222222,-3.0034681111111112,-0.1102918713333333
515,1778412834600,-0.6084467444444445,-0.0539259117777777,1.0332106822222222,-0.2435498846666666,-2.754106666666667,0.0114279363333333
516,1778412834610,-0.6167128,-0.049454104,0.98737466,-0.050471254,-2.663294,0.1014770049999999
517,1778412834620,-0.4255702088888889,0.0143165542222222,0.6099779911111111,0.1505653753333333,-2.8378606666666664,0.1751859038888888
518,1778412834630,-0.272046374,0.07705328,0.44653213,0.1376696996,-3.0917423499999996,0.1296981457
519,1778412834640,-0.2269238066666666,0.0602338688888888,0.5307660522222223,-0.1765433388888889,-3.1855006333333336,-0.0343686438888888
520,1778412834650,-0.2333740466666667,0.037461536,0.6402643122222221,-0.3926899422222222,-3.200025277777778,-0.1364904272222222
521,1778412834660,-0.283367156,0.0210439108,0.83930504,-0.462564088,-3.1633337,-0.178794991
522,1778412834670,-0.2214797222222222,0.0377427197777777,0.8799971755555556,-0.3578037888888888,-3.2119706,-0.1859690544444444
523,1778412834680,-0.1586373,0.050856624,0.90563214,-0.2893889,-3.370655,-0.25533417
524,1778412834690,-0.205624804,0.0317975869299999,1.030730888,-0.2304879419999999,-3.39411172,-0.2852656759999999
525,1778412834700,-0.2680813711111111,0.0020970058666666,1.170844088888889,-0.1047009233333333,-3.3278279555555557,-0.2400629777777777
526,1778412834710,-0.237032132,0.0323433508,1.25773184,0.09014579,-3.1966859,-0.130843489
527,1778412834720,-0.1420441866666666,0.0755531877777777,1.1885517333333333,0.2942502211111111,-3.108330177777778,-0.0745912366666666
528,1778412834730,-0.06518673,0.13723361,1.0906124,0.449385063,-3.06242165,-0.090344304
529,1778412834740,-0.0119722430999999,0.1727133333333333,0.9275947666666666,0.4184558233333333,-3.0532182,-0.1710372333333333
530,1778412834750,0.00643939996,0.184486374,0.8667334999999999,0.276087682,-3.07537156,-0.25851056
531,1778412834760,0.025367333,0.18995011,0.9532263,0.14316733,-3.079281,-0.3103104
532,1778412834770,0.0698363933,0.198170099,1.099805,0.085014666,-2.99376244,-0.348915944
533,1778412834780,0.10296332,0.20970736,1.1560125,0.1365158744444444,-2.8869319333333334,-0.4272537111111111
534,1778412834790,0.1529730177777777,0.2137929533333333,1.1352932555555555,0.2423282,-2.8581542,-0.5253286666666667
535,1778412834800,0.1884439219999999,0.195706536,1.04354874,0.319518928,-2.88289357,-0.61701685
536,1778412834810,0.19839573,0.16897328,0.9959117,0.3482762488888889,-3.037200488888889,-0.6877461588888889
537,1778412834820,0.217845031,0.130964948,1.02141936,0.32813188,-3.2332146199999996,-0.722632324
538,1778412834830,0.24842913,0.12942828,1.1093941,0.3300866,-3.3895915,-0.7275191
539,1778412834840,0.3252872619999999,0.1059574032,1.24943272,0.42110285,-3.4732776299999997,-0.763070386
540,1778412834850,0.2834718333333333,0.0477568523333333,1.3642869333333332,0.5304445000000001,-3.5565564666666662,-0.76722416
541,1778412834860,0.281955472,0.02019020396,1.45376772,0.740270515,-3.64889605,-0.706139425
542,1778412834870,0.2968635311111111,0.0056744504222222,1.5024114555555554,0.8933556388888889,-3.656260077777778,-0.6394891944444444
543,1778412834880,0.32298634,0.0101462554444444,1.4051970666666669,0.8898262844444444,-3.5114214111111113,-0.5836984777777778
544,1778412834890,0.263006199,-0.0238702955,1.3066006,0.701542815,-3.34469419,-0.541943716
545,1778412834900,0.1911493566666666,-0.0478279926666666,1.2884694666666665,0.36571935,-3.127130733333334,-0.4754427733333333
546,1778412834910,0.15822264,-0.0381790556,1.30402122,0.134004614,-3.03187936,-0.464976928
547,1778412834920,0.2285126444444444,0.0335419304444444,1.3630369222222225,-0.2243845599999999,-2.898063066666667,-0.5403962133333333
548,1778412834930,0.23403804,0.07207738,1.4178876,-0.47203222,-2.7506452,-0.6413896
549,1778412834940,0.1397845802222222,0.0414387291111111,1.605344288888889,-0.9107562911111112,-2.436457688888889,-0.7877214333333333
550,1778412834950,-0.0147467926666666,-0.056619154,1.9991105333333337,-1.3655660444444446,-1.6862693000000002,-0.8993029111111112
551,1778412834960,-0.11692755,-0.12022042,2.1697912,-1.3736428,-1.3327924,-0.8441908999999999
552,1778412834970,-0.2451802966666666,-0.19017031,2.278208877777778,-1.1878773444444444,-0.8458113444444444,-0.6988092222222222
553,1778412834980,-0.387845804,-0.246020452,2.25364984,-0.66322744,-0.26319882,-0.3402419
554,1778412834990,-0.3847819155555555,-0.2296610966666666,2.1711600111111107,0.02113362,-0.0213711677777777,0.0731744124444444
555,1778412835000,-0.2536496066666667,-0.1293977975555555,1.887159677777778,0.7286305,0.16312167,0.4709038577777778
556,1778412835010,-0.15912513,-0.055552024,1.6880558,0.97758466,0.28053162,0.63719004
557,1778412835020,0.0188188496666666,0.0273085044444444,1.3871540777777778,1.0387372622222224,0.4899164544444445,0.74931445
558,1778412835030,0.11296391,0.066223375,1.1950698,0.93421453,0.6219952,0.7569161
559,1778412835040,0.220897036,0.11513476,1.1302915800000002,0.63270034,0.7568702999999999,0.6379231
560,1778412835050,0.21923027,0.1271517233333333,1.0965477333333336,0.3888636566666666,0.8877137666666667,0.5288664888888889
561,1778412835060,0.169019005,0.129233153,1.08163627,0.2367491279999999,0.9205774,0.4736051619999999
562,1778412835070,0.1357328522222222,0.13379169,1.085923822222222,0.1105888062222222,0.8865599666666666,0.4281445466666666
563,1778412835080,0.15372847,0.13747753,1.1011008,0.016111096,0.7942541,0.37330404
564,1778412835090,0.17305887,0.1278184339999999,1.15596988,-0.0857782278,0.7129503699999999,0.273430516
565,1778412835100,0.1595824788888888,0.1059513077777777,1.183442988888889,-0.2040145066666666,0.6946181622222222,0.1791903533333333
566,1778412835110,0.1231237197777777,0.08318913,1.2195223333333334,-0.2881672,0.71362233,0.14118208
567,1778412835120,0.0428317678,0.0631988091,1.33109903,-0.419255,0.8665784839999999,0.087427514
568,1778412835130,0.026099084,0.055003207,1.3854163,-0.4304946,0.8993198999999998,0.07032379
569,1778412835140,-0.0241020149,0.02848641589,1.44664538,-0.3816268,0.9604046,0.08376243
570,1778412835150,-0.0442065111111111,-0.0029710406777777,1.4585708222222222,-0.3228497588888889,1.0748366555555555,0.1912715444444444
571,1778412835160,-0.011250656,-0.0021037813,1.4715798,-0.31199023,1.1106731,0.2352525399999999
572,1778412835170,0.0442830712,0.0038721770099999,1.49804477,-0.261412084,1.25361128,0.2686048
573,1778412835180,0.0790865897777777,0.0115555527777777,1.4862418666666666,-0.1956577733333333,1.4683579777777778,0.2783512222222222
574,1778412835190,0.0785987546666666,0.0164338854444444,1.441117288888889,-0.2359058211111111,1.605595,0.2748897522222222
575,1778412835200,0.083913428,0.0187023103,1.3835868699999998,-0.39011761,1.86225952,0.292977613
576,1778412835210,0.08954791,0.012043386,1.3793182,-0.5196783,2.0238898,0.31649524
577,1778412835220,0.1011217481,0.0119702101,1.4669453,-0.5935297260000001,2.21703949,0.324191911
578,1778412835230,0.0481328894444444,-0.0176670195555555,1.4811466666666666,-0.5960342,2.3610773,0.32016033
579,1778412835240,-0.0071650523333333,-0.05189327,1.468561233333333,-0.4097936611111111,2.403633,0.3569469111111111
580,1778412835250,-0.03155977,-0.0580399699999999,1.38120859,-0.279248813,2.36327638,0.4129480219999999
581,1778412835260,0.0371701889999999,-0.0122026082222222,1.2784011333333334,-0.2211776133333333,2.2684321666666665,0.4588226466666667
582,1778412835270,0.064407549,0.0165422934444444,1.251688911111111,-0.2468331966666667,2.2049040666666664,0.4392755333333333
583,1778412835280,0.056588665,0.020336553,1.2526646,-0.28755635,2.2040896,0.40995488
584,1778412835290,-0.0173722887777777,-0.0019953735777777,1.2726115333333334,-0.3610616411111111,2.2625951222222223,0.4082580688888889
585,1778412835300,-0.1018352044,-0.03627345852,1.25124981,-0.421820572,2.2952280000000003,0.459433506
586,1778412835310,-0.1300922677777777,-0.0550641902222222,1.2407396666666668,-0.4328701244444445,2.2701290555555556,0.5147491177777778
587,1778412835320,-0.0614365126666666,-0.0403478813333333,1.2521767,-0.3675773333333333,2.0658345,0.6249731
588,1778412835330,-0.03276105886,-0.0275991714,1.2283917800000002,-0.33581328,1.9884605,0.6347467
589,1778412835340,-0.0132155418222222,-0.0266614486666666,1.2048806111111112,-0.3001805333333334,2.0234145555555556,0.6268735333333333
590,1778412835350,-0.0299509362222222,-0.0293716344444444,1.1894054555555555,-0.28029406,2.1191139666666667,0.6251767411111111
591,1778412835360,-0.0540122975999999,-0.0346239729999999,1.19426488,-0.2466295799999999,2.2993817,0.66101307
592,1778412835370,-0.09365723,-0.0431935755555555,1.1919259222222225,-0.1338179666666666,2.4651928888888888,0.6792706444444444
593,1778412835380,-0.12863556,-0.05335677,1.1953137,-0.05780142,2.530282,0.6939988
594,1778412835390,-0.2011160711111111,-0.1026584286666666,1.0974691777777776,-0.037592558,2.4955315111111114,0.8266884333333333
595,1778412835400,-0.2508174866666667,-0.063123605,1.1717248666666666,-0.2319013744444444,2.3502178444444444,1.1306188888888888
596,1778412835410,-0.199218944,0.0077169133,1.32840376,-0.239352866,2.59198531,1.19684831
597,1778412835420,-0.1200984683333333,-0.0301033816666666,1.2618622000000002,-0.1392477177777777,3.243013544444445,1.1011624777777778
598,1778412835430,-0.124488965,-0.051405437,1.1933622,-0.10972344,3.3488936,1.0763892
599,1778412835440,-0.1524662115,-0.0194645512599999,1.1194891400000002,-0.032390176,3.38285677,1.05995742
600,1778412835450,-0.1703453,0.0074089686,1.0998813,0.0381016,3.3776035,1.0409601
601,1778412835460,-0.202926476,0.0268247358,1.15568334,0.146038307,3.33453878,0.961672119
602,1778412835470,-0.2032909977777778,0.0347987794444444,1.2060460444444443,0.30544908,3.3621288,0.88967358
603,1778412835480,-0.1835473,0.043051295,1.2119,0.41988114,3.44724,0.87908554
604,1778412835490,-0.176272486,0.053637278,1.18686194,0.476689938,3.49354224,0.863936532
605,1778412835500,-0.18438407,0.1008730944444444,1.0640390333333332,0.7677247166666666,3.7517813333333336,0.7357400555555555
606,1778412835510,-0.25578728,0.09356237,1.0072336000000002,0.8743514888888888,3.888679044444444,0.6175750422222221
607,1778412835520,-0.3055666,0.06671121,0.9502994,0.9079481,3.9456916,0.57549447
608,1778412835530,-0.2955118388888889,0.0744894435555555,0.8637428444444445,0.9483318777777776,3.914809855555556,0.5617164711111111
609,1778412835540,-0.2128782779999999,0.1599117702,0.826167109,1.08967512,3.71955585,0.430112821
610,1778412835550,-0.2096260533333333,0.2098970777777777,0.8239030677777779,1.1895486444444443,3.6508558666666664,0.2930115411111111
611,1778412835560,-0.23601988,0.20799993,0.7513853,1.2451358,3.7178454,0.13812783
612,1778412835570,-0.2920444889999999,0.1638662689999999,0.634338845,1.105740438,3.71790657,0.019111883
613,1778412835580,-0.33361703,0.1282087,0.59323585,0.98919076,3.7068503,-0.03970507
614,1778412835590,-0.3284134722222222,0.13856838,0.6111908166666667,0.9822678266666666,3.744722833333334,-0.0426914344444444
615,1778412835600,-0.316103804,0.176485896,0.664660708,1.10433554,3.94398109,-0.174824494
616,1778412835610,-0.3580188533333334,0.1677435266666666,0.53711468,1.1628750333333333,3.9530218,-0.26979087
617,1778412835620,-0.42159471,0.09989912,0.3128383799999999,1.065791032,4.00066772,-0.361988078
618,1778412835630,-0.44856274,0.06280854,0.2686742,0.93421453,4.0483136,-0.3671192
619,1778412835640,-0.4418685911111111,0.0724297,0.2990147311111111,0.9144637966666668,4.127520233333333,-0.3050164
620,1778412835650,-0.433269195,0.075053161,0.2145612975,0.982349288,4.156555859999999,-0.258510562
621,1778412835660,-0.41360138,0.0852590416666666,0.0544645601333333,1.1370158,3.967478333333333,-0.2537052266666666
622,1778412835670,-0.42682708,0.0919328716666666,-0.0545865164444444,1.1807932333333335,3.7876856,-0.2797680433333333
623,1778412835680,-0.4502701800000001,0.07646788,-0.1191228,1.1461785,3.727008,-0.30420193
624,1778412835690,-0.4729171633333333,0.0521947822222222,-0.1374334888888889,1.0528546388888889,3.748048388888889,-0.2858765133333333
625,1778412835700,-0.474247186,0.0549971098,-0.200194608,0.8829033559999999,3.81411496,-0.202679122
626,1778412835710,-0.4497992666666666,0.0960523477777777,-0.3504811422222222,0.7926336900000001,3.749202288888889,-0.1988647211111111
627,1778412835720,-0.4721447577777777,0.1079907144444444,-0.4243336799999999,0.7499422422222222,3.623028466666667,-0.2336151422222222
628,1778412835730,-0.486153379,0.110353994,-0.43244292,0.68804306,3.4362450000000004,-0.2455606
629,1778412835740,-0.42091884,0.14496781,-0.4924372666666666,0.5047889,3.3718344555555557,-0.3411921333333333
630,1778412835750,-0.4101865266666667,0.1554426788888888,-0.5779097777777777,0.3655157333333333,3.3643686,-0.41293274
631,1778412835760,-0.497821738,0.131086918,-0.6142065600000001,0.2720561039999999,3.31016606,-0.451660462
632,1778412835770,-0.6016035266666667,0.0980849933333333,-0.6204020422222223,0.1178510977777777,3.094170388888889,-0.4738138477777778
633,1778412835780,-0.63211006,0.08573671,-0.61918247,0.09918632,2.9933805,-0.44836187
634,1778412835790,-0.6251448511111111,0.09224115,-0.6128948522222222,0.1143896324444444,2.872644888888889,-0.3946751988888889
635,1778412835800,-0.5704058977777778,0.1203085077777777,-0.58770028,0.1528051353333333,2.7224953666666667,-0.3601283988888888
636,1778412835810,-0.5423426140000001,0.137227518,-0.5769666,0.258006614,2.5881903399999997,-0.3749380519999999
637,1778412835820,-0.57963747,0.09134679,-0.6882414,0.43148723,2.4410985,-0.3891097
638,1778412835830,-0.6174851988888889,0.0727007166666666,-0.7289212666666667,0.4844273233333333,2.293409211111111,-0.3717344999999999
639,1778412835840,-0.680390288,0.0476552186,-0.8113217200000001,0.5663623,2.01546008,-0.30591232
640,1778412835850,-0.6924557222222222,0.0595664844444444,-0.9233363799999998,0.5385891244444445,1.6959325777777776,-0.1471463177777777
641,1778412835860,-0.67519794,0.083736594,-0.917498658,0.464839496,1.56770894,-0.103721863
642,1778412835870,-0.6946103,0.0763865677777777,-0.9217509333333334,0.43861378,1.464896588888889,-0.0838218144444444
643,1778412835880,-0.7029847888888888,0.0697466144444444,-0.9520134888888888,0.4331161566666666,1.350464588888889,-0.0628493932222222
644,1778412835890,-0.715852728,0.0761751768,-0.98953946,0.43466364,1.17627806,-0.0442253419999999
645,1778412835900,-0.7258045266666667,0.0646785726666666,-0.9936352166666668,0.4064425,1.0216929466666669,-0.0207433541999999
646,1778412835910,-0.7160479,0.0653832188888888,-0.9662420055555556,0.3647691444444444,0.8911073644444445,0.0265464038888888
647,1778412835920,-0.6987786,0.0757849055,-0.976069095,0.344624762,0.805554839,0.0628103689
648,1778412835930,-0.6989737166666666,0.0870375983333333,-1.0104552333333334,0.3739997244444444,0.6437821155555556,0.0634008538888888
649,1778412835940,-0.7167308219999999,0.091493145,-1.07808112,0.400028605,0.42133188,0.05932854
650,1778412835950,-0.7278642744444445,0.0829994211111111,-1.1307603444444445,0.3845877344444444,0.2826186577777777,0.0642153177777777
651,1778412835960,-0.7205095199999999,0.0859094866666666,-1.1425666333333335,0.2731420488888889,0.0343516722222222,0.0908211111111111
652,1778412835970,-0.676356516,0.129477064,-1.0722211,0.179207317,-0.202480593,0.0867555855
653,1778412835980,-0.66918534,0.14455111,-1.0291759,0.1492758,-0.34016556,0.049554985
654,1778412835990,-0.7081612233333333,0.1237368966666666,-0.9771911333333334,0.070069273,-0.5065196466666666,-0.0064648000599999
655,1778412836000,-0.729198043,0.1185495999999999,-0.97221222,0.0067040486,-0.5972101,-0.0197914508
656,1778412836010,-0.7606338,0.1126725633333333,-0.9128615555555556,-0.0373041034444444,-0.6888235888888888,-0.0158650596888888
657,1778412836020,-0.76068154,0.1006003822,-0.8160171430000001,-0.0654980996,-0.862195638,0.00777303164
658,1778412836030,-0.735236,0.1193192944444444,-0.761409611111111,-0.061466504,-0.92413557,0.011071607
659,1778412836040,-0.727403588888889,0.1388665066666666,-0.7287552722222223,-0.0624167102222222,-1.0019845822222222,-0.0124035931111111
660,1778412836050,-0.7014129,0.16507061,-0.69799805,-0.066353284,-1.1006705,-0.064138964
661,1778412836060,-0.7323192000000001,0.1640847833333333,-0.6802632599999999,-0.0970992573333333,-1.1407827,-0.1176899
662,1778412836070,-0.77518755,0.14617722,-0.6367343,-0.1582094333333333,-1.1701034,-0.1551552
663,1778412836080,-0.791744362,0.136087211,-0.593833447,-0.198189392,-1.17140648,-0.165478525
664,1778412836090,-0.8184996288888889,0.1109685311111111,-0.5597142177777777,-0.1965995011111111,-1.1814379777777777,-0.1640464322222222
665,1778412836100,-0.8356280999999999,0.09793254,-0.5291162,-0.15309359,-1.2069578,-0.14232741
666,1778412836110,-0.8417259466666667,0.07199607,-0.5466070833333333,-0.0364217666666666,-1.2896258,-0.0942740926666666
667,1778412836120,-0.8370102433333333,0.0666299066666666,-0.5887538666666666,0.0592776366666666,-1.4052795666666666,-0.0372362321333333
668,1778412836130,-0.82855445,0.06597946,-0.6304027,0.08452599,-1.4769523,-0.0029778804
669,1778412836140,-0.7614502666666667,0.1045691088888888,-0.6121597444444444,0.0522189561111111,-1.558195,0.0165013605777777
670,1778412836150,-0.7223897,0.13650186,-0.5789057,0.005726693,-1.6290532,-0.023823043
671,1778412836160,-0.728463259,0.136038419,-0.573612724,-0.00441337144,-1.6776766600000002,-0.061939912
672,1778412836170,-0.7526692333333334,0.1291030577777777,-0.5646230644444444,-0.019793148,-1.7380555666666668,-0.109884635
673,1778412836180,-0.7912047,0.10235353,-0.58036923,-0.06757498,-1.7793217,-0.124001995
674,1778412836190,-0.7935761,0.1031936888888888,-0.5460210088888888,-0.1060583533333333,-1.8330763,-0.1113778166666666
675,1778412836200,-0.7846189,0.10454878,-0.49813882,-0.13232478,-1.9155407,-0.10140064
676,1778412836210,-0.77642334,0.112305331,-0.46976524,-0.1064859465,-1.99763852,-0.1010341345
677,1778412836220,-0.7533162722222222,0.1187501488888888,-0.4480715622222222,-0.0763304547777777,-2.0860349888888887,-0.1141605672222222
678,1778412836230,-0.7488987111111111,0.1214874322222222,-0.4241168766666667,-0.0658103084444444,-2.125740088888889,-0.1375085033333333
679,1778412836240,-0.7551782119999999,0.1085398735,-0.4216343539999999,-0.0720952478,-2.1567642,-0.171159403
680,1778412836250,-0.76730084,0.094517715,-0.43051293,-0.09689565,-2.1708748,-0.16859384
681,1778412836260,-0.770227864,0.0808583795,-0.424649765,-0.221080898,-2.19946244,-0.131209994
682,1778412836270,-0.740863001111111,0.0997077194444444,-0.3409955066666666,-0.3099540866666666,-2.2775694333333334,-0.1172826733333333
683,1778412836280,-0.7306930266666667,0.1051077633333333,-0.2644158466666667,-0.3166733933333333,-2.369807333333333,-0.1388659366666666
684,1778412836290,-0.7404852900000001,0.0905418668,-0.201594082,-0.333492048,-2.40568448,-0.146969844
685,1778412836300,-0.7348295,0.097200796,-0.1662292,-0.3521025311111111,-2.404965,-0.1446350522222222
686,1778412836310,-0.7293278111111111,0.0943550968888888,-0.1035765011111111,-0.29122143,-2.4235619666666666,-0.1567841333333333
687,1778412836320,-0.75437325,0.0584180429999999,-0.055917896,-0.19226417,-2.4488103,-0.16370706
688,1778412836330,-0.7777893,0.054027542,-0.06835765,-0.0081191788888888,-2.574924866666666,-0.1487073788888888
689,1778412836340,-0.768739982,0.051676798,-0.174010149,0.10150754,-2.7566314,-0.126934064
690,1778412836350,-0.7897412,0.032532386,-0.1864743,0.10773818,-2.8453264,-0.1185043699999999
691,1778412836360,-0.7369874155555556,0.0314754117777777,-0.2308163033333333,-0.0341310919777777,-2.8760045555555553,-0.0477818304444444
692,1778412836370,-0.640000742,0.0503017124,-0.1501124164,-0.3101577,-2.90763296,-0.033474428
693,1778412836380,-0.5742713,0.072565205,-0.020519491,-0.44393325,-2.9259584,-0.067193195
694,1778412836390,-0.5892315333333333,0.05629393,0.1098743,-0.3464013066666667,-2.9892829,-0.1592275166666666
695,1778412836400,-0.60841966,0.03350805,0.10515858,-0.26128992,-3.0487387,-0.18569757
696,1778412836410,-0.6412162755555556,0.0068940327777777,0.0737847944444444,-0.2547063366666666,-3.192627022222222,-0.1491824722222222
697,1778412836420,-0.611114916,-0.0058113148,0.1116040739999999,-0.299773288,-3.2531280199999997,-0.1115407088
698,1778412836430,-0.4783375444444445,0.0552572877777777,0.1987582122222222,-0.3626226777777778,-3.286290488888889,-0.110631224
699,1778412836440,-0.4379930488888889,0.0895580677777777,0.2545372111111111,-0.3468085333333333,-3.3466963777777776,-0.1804714244444444
700,1778412836450,-0.45359356,0.072803026,0.27989438,-0.32414611,-3.4032132500000003,-0.246476864
701,1778412836460,-0.5180383733333334,0.0156208306666666,0.2891632066666667,-0.3075107,-3.4840013222222224,-0.3194052466666666
702,1778412836470,-0.5544835555555555,-0.008831816,0.3288064599999999,-0.3603829266666666,-3.5079601777777776,-0.3009440888888889
703,1778412836480,-0.5147068220000001,-0.0309316818999999,0.45783465,-0.438313456,-3.5693027200000005,-0.25032522
704,1778412836490,-0.42864289,0.0004979968888888,0.5083494111111111,-0.3650660799999999,-3.715308666666667,-0.2376195888888889
705,1778412836500,-0.408630542,-0.0092749313,0.523817126,-0.327994434,-3.81516856,-0.271827035
706,1778412836510,-0.38072345,-0.012348281,0.65229416,-0.26312247,-3.9289696,-0.3048128
707,1778412836520,-0.4914616277777778,-0.0774435421111111,0.75302839,0.0473236928888888,-4.012520122222222,-0.2385019152222222
708,1778412836530,-0.42490587,-0.0411517924,0.693778335,0.329536826,-4.15345589,-0.0494786281
709,1778412836540,-0.2525553955555555,-0.010166582,0.6591645022222222,0.3024627066666666,-4.227062933333333,-0.0446597233333333
710,1778412836550,-0.165558448,-0.0002540796666666,0.70885231,0.22746424,-4.2362256,-0.06536066
711,1778412836560,-0.0800046679999999,0.0156045686,0.798991722,-0.0024586589999999,-4.17220898,-0.1510014436
712,1778412836570,-0.0493016576666666,-0.0083643088666666,0.8580480333333332,-0.12221187,-4.156611888888889,-0.2247239266666666
713,1778412836580,-0.0868922695,-0.02177261202,0.93845719,-0.1181531232,-4.111735059999999,-0.267856534
714,1778412836590,-0.2018952511111111,-0.0582351043333333,1.0379772444444444,-0.0073725877777777,-4.0108232,-0.261985611111111
715,1778412836600,-0.20915854,-0.0611621029999999,1.037652,0.090023614,-4.0108232,-0.20402299
716,1778412836610,-0.132553462,-0.0461612318,0.933155045,0.1458550514,-3.96061149,-0.132798191
717,1778412836620,-0.10518907,-0.059942525,0.8843808,0.1150683499999999,-3.9417973,-0.11606098
718,1778412836630,-0.1036442644444444,-0.0609181911111111,0.8875551066666667,0.1150683499999999,-3.9417973,-0.11606098
719,1778412836640,-0.0753763538,-0.0668697539999999,0.915193608,-0.0133928266,-3.87252736,-0.0084449626
720,1778412836650,0.0462933521111111,-0.0411609383333333,0.9775943555555556,-0.0576656777777777,-3.8865496666666663,0.0571566383333333
721,1778412836660,0.3112559565,0.1509600363,1.15144525,0.2253873639999999,-4.06689888,-0.0815252011
722,1778412836670,0.3365135377777777,0.1725236155555555,1.1592919000000002,0.40705334,-4.190819333333334,-0.2661257866666666
723,1778412836680,0.3421507222222222,0.1456792333333333,1.1389518777777776,0.3451541633333333,-4.1397118,-0.35714203
724,1778412836690,0.348303865,0.098636852,1.1714341899999998,0.1219098419999999,-4.0004386,-0.408534642
725,1778412836700,0.3525273344444444,0.071968966,1.3395159111111112,-0.04191939,-3.8739934,-0.41293275
726,1778412836710,0.3277325277777778,0.0446706265555555,1.4644350555555556,-0.0839321106666666,-3.617708966666666,-0.3811008155555555
727,1778412836720,0.330119855,0.010918321,1.55313029,0.0377350892,-3.3504973,-0.328880164
728,1778412836730,0.2406136266666667,-0.0502773233333333,1.6000120000000002,0.2254280922222222,-3.237897766666667,-0.2586598722222222
729,1778412836740,0.224409432,-0.0691808667999999,1.5542004,0.569538729,-3.22313554,-0.077371439
730,1778412836750,0.2661300177777778,-0.0493423100666666,1.5335109,0.8366147333333332,-3.2921952,0.08511987
731,1778412836760,0.3550579777777778,0.0145435315333333,1.5358891,1.179367911111111,-3.363868044444444,0.2352525566666666
732,1778412836770,0.41019162,0.0582716932999999,1.43682774,1.3812935899999998,-3.43980296,0.296031866
733,1778412836780,0.43536078,0.0899103955555555,1.3802398,1.2674656333333332,-3.4422601000000004,0.2248681422222221
734,1778412836790,0.376180495,0.0729310849999999,1.4116525,1.019000156,-3.29234462,0.1193137351999999
735,1778412836800,0.3079109111111111,0.0480583603333333,1.4425536888888888,0.82548374,-3.1281488,0.048944138
736,1778412836810,0.1402063556,-0.0449203033,1.51534757,-0.167547758,-2.0127951499999996,-0.0304125582
737,1778412836820,-0.0380950431111111,-0.1267316511111111,1.6787497444444446,-0.6010567222222222,-1.4721334222222222,-0.0125478196666666
738,1778412836830,-0.12863556,-0.15635058,1.8093433000000003,-0.9169326422222224,-0.7517408942222222,0.1676521249999999
739,1778412836840,-0.189425674,-0.158027517,2.04574749,-0.94116294,-0.092772424,0.43133453
740,1778412836850,-0.18964522,-0.06774786,2.0692365,-0.47203222,0.066658705,0.64146596
741,1778412836860,-0.04906384188,0.013311752,2.02180086,-0.091077328,0.0176687551999999,0.673107844
742,1778412836870,0.1209352399999999,0.1231135577777777,1.8868478333333336,0.80532575,-0.0884965,0.70316154
743,1778412836880,0.12289742,0.147734228,1.54093754,1.23976038,-0.131500138,0.6404886160000001
744,1778412836890,0.1492668466666666,0.1726320233333333,1.1764508,1.4043633333333334,-0.1491739866666666,0.5655172666666667
745,1778412836900,0.1993714,0.19019403,0.9502994,1.2475792,-0.09582666,0.5028036
746,1778412836910,0.1909698155555555,0.1904108344444444,0.7487631733333333,0.66971766,0.0716812266666666,0.41457016
747,1778412836920,0.21051702,0.2080067233333333,0.7294700555555556,0.14255647,0.15584241,0.3586437
748,1778412836930,0.2435507899999999,0.22339718,0.8116632000000001,-0.311616083,0.164638605,0.25748739
749,1778412836940,0.21816313,0.1976571922222222,1.0627144777777775,-0.5701071333333334,0.1650729888888888,0.1143472111111111
750,1778412836950,0.16446081,0.14991727,1.3632199,-0.776845,0.1582858,-0.0452027
751,1778412836960,0.0969975251111111,0.0859840128888888,1.5470651666666668,-0.6303095222222223,0.1483764922222222,-0.0815820477777777
752,1778412836970,0.054539765,0.0444599116,1.6350405,-0.353161348,0.184086452,-0.0692700800999999
753,1778412836980,0.043688185,0.0225047008888888,1.6144878333333337,-0.1831608444444444,0.2334963677777777,-0.0350134244444444
754,1778412836990,0.0289285169,0.0215805277,1.56061535,0.098331136,0.36372899,0.0333064476
755,1778412837000,0.02414775,0.005701552,1.5372238,0.19020256,0.45462307,0.058717694
756,1778412837010,-0.0232262873333333,-0.0034317722222222,1.4822613333333334,0.2101569066666666,0.57679249,0.098626378
757,1778412837020,-0.063967146,0.008384636,1.4159362,0.205779175,0.72706093,0.16653223
758,1778412837030,-0.0544205186666666,0.0088182656666666,1.4134394555555554,0.1785286022222222,0.8451580955555555,0.2396642255555555
759,1778412837040,0.0421609959999999,0.0179461698,1.39541682,0.0944217129999999,1.028880578,0.385032305
760,1778412837050,0.07247374,0.02643447,1.3983438,0.06192464,1.1088405,0.40384638
761,1778412837060,0.1143023954,0.0397370752999999,1.40197511,0.0055434392,1.24017266,0.392057042
762,1778412837070,0.14356528,0.0580928213333333,1.3995837333333334,-0.0622130944444444,1.416571722222222,0.3650915333333333
763,1778412837080,0.134898122,0.0586070784,1.38712368,-0.115831908,1.5646547400000002,0.3463045839999999
764,1778412837090,0.1214230755555555,0.0319632467777777,1.3777498111111113,-0.1756270633333333,1.7021090111111112,0.3421508233333333
765,1778412837100,0.12445848,0.031312805,1.4042283,-0.18485765,1.7422891,0.33237725
766,1778412837110,0.141874126,0.037465602,1.4155947599999998,-0.187553017,1.78083358,0.29432148
767,1778412837120,0.13250773,0.04256346,1.4132532,-0.2414713066666666,1.9373530222222224,0.1735569711111111
768,1778412837130,0.1243121299999999,0.035709404,1.4124727199999998,-0.2832804,2.00251,0.13934954
769,1778412837140,0.0173655111111111,-0.0228705757222222,1.4852661888888887,-0.4353135033333333,2.368882677777778,0.0780611955555555
770,1778412837150,-0.0322762746,-0.067366736,1.49365422,-0.43959623,2.49723517,0.09946121
771,1778412837160,-0.0611858205555555,-0.1068050055555555,1.5056468222222223,-0.39832333,2.6333116000000003,0.15848941
772,1778412837170,-0.0802119999999999,-0.133815725,1.50282554,-0.346197692,2.7087716200000003,0.214972416
773,1778412837180,-0.0647734291111111,-0.1430706766666666,1.4916893222222225,-0.28022618,2.7866343,0.3185313933333333
774,1778412837190,-0.0178093042222222,-0.1319792455555555,1.500632966666667,-0.2184627355555555,2.873391611111111,0.4208822466666666
775,1778412837200,0.0040246252,-0.1189032759999999,1.4857208,-0.185040912,2.97346702,0.468351872
776,1778412837210,0.0153532002222222,-0.0953138244444444,1.3901624444444445,-0.1768148311111111,3.1913629666666665,0.5233009777777777
777,1778412837220,-0.015153322,-0.09314568,1.3158695,-0.19348587,3.3128538,0.5565582
778,1778412837230,-0.025560434,-0.0910859377777777,1.2922231444444443,-0.2095036433333333,3.336201755555555,0.5641598444444444
779,1778412837240,-0.0344227406,-0.065945919,1.23927353,-0.227326812,3.3562239500000004,0.5914375599999999
780,1778412837250,-0.0157224623333333,-0.0317769206666666,1.2549681777777777,-0.202165,3.3120391999999996,0.6285024222222222
781,1778412837260,-0.0187206042,-0.014500846,1.2527621999999998,-0.10392039,3.2526853000000004,0.587711435
782,1778412837270,-0.0676258976666666,-0.02143079,1.2558625777777777,-0.0691360311111111,3.240434511111111,0.5751551433333333
783,1778412837280,-0.0873831483333333,-0.0210784656666666,1.2555102333333332,-0.0404940833333333,3.2790535333333333,0.5877114333333333
784,1778412837290,-0.088261243,-0.0332092534,1.2686288600000002,-0.04497363,3.34076955,0.600966812
785,1778412837300,-0.10714039,-0.045063604,1.2870872,-0.04497363,3.4087567,0.61764294
786,1778412837310,-0.11818982,-0.0502590308,1.30440536,0.0332759018,3.54332637,0.70151225
787,1778412837320,-0.12765989,-0.04164877,1.3175769,0.14499986,3.6512632,0.77829576
788,1778412837330,-0.12765989,-0.04164877,1.3175769,0.14499986,3.6512632,0.77829576
789,1778412837340,-0.1418341622222222,-0.0145232047777777,1.1081947611111111,0.5508060677777777,3.5757217111111106,0.7901733555555555
790,1778412837350,-0.13361145,0.0227757186,0.95034205,0.74668443,3.463733,0.78135
791,1778412837360,-0.1458181255555555,0.0352425725555555,0.8517265166666667,0.7316168466666667,3.4490047333333336,0.7250162922222222
792,1778412837370,-0.16066994,0.0457953579999999,0.7919872466666668,0.6656453422222222,3.4911532000000003,0.6918947911111111
793,1778412837380,-0.165207805,0.075297079,0.754397673,0.52751242,3.60648809,0.672069421
794,1778412837390,-0.19135263,0.0956661533333333,0.6872758833333333,0.42354621,3.662462033333333,0.65368293
795,1778412837400,-0.214869245,0.113744447,0.65383391,0.3663709069999999,3.64857538,0.64036644
796,1778412837410,-0.25447623,0.14162411,0.7261806333333333,0.3262178888888889,3.416969311111111,0.5757659444444445
797,1778412837420,-0.27919313,0.15040511,0.8343779999999998,0.35390964,3.3433962,0.55839074
798,1778412837430,-0.29337075,0.14064845,0.9109983,0.47546825,3.283533,0.5370111
799,1778412837440,-0.310835199,0.121915654,0.97698383,0.8007443750000001,3.29801012,0.552587699
800,1778412837450,-0.30995712,0.12625737,0.8980707000000001,1.1272422,3.3586674,0.57427275
801,1778412837460,-0.3399927333333333,0.1236013877777778,0.6962703444444445,1.3438894222222222,3.387648611111111,0.5917837322222222
802,1778412837470,-0.381705204,0.1245926352,0.5377448300000001,1.41036997,3.3368600900000005,0.591865184
803,1778412837480,-0.4008838244444444,0.102248512,0.5479418355555555,1.4307654666666667,3.3359979777777777,0.606376188888889
804,1778412837490,-0.314585412,0.1663389679999999,0.44051352,1.527958,3.359889,0.6432985
805,1778412837500,-0.2306537,0.20653644,0.26599112,1.4318514222222225,3.3669476666666664,0.5135274066666667
806,1778412837510,-0.301804184,0.2092805079999999,0.181937444,1.36412882,3.3911032800000003,0.453325015
807,1778412837520,-0.36218575,0.19653587,0.1163787399999999,1.2341405,3.4454076,0.35070267
808,1778412837530,-0.4723615577777777,0.1239266122222222,0.1779372088888889,0.9310245244444444,3.595540333333333,0.2447546133333333
809,1778412837540,-0.596906811,0.0471216527,0.275040412,0.941605766,3.712714300000001,0.340135024
810,1778412837550,-0.5933713677777779,0.0436780234444444,0.21455182,1.0637141,3.6824164,0.4105657
811,1778412837560,-0.46395998,0.133087033,-0.1220498,1.50150839,3.41193313,0.5379273880000001
812,1778412837570,-0.4109182888888888,0.1705722811111111,-0.2861074766666667,1.5616225333333331,3.2073128222222222,0.5127129822222222
813,1778412837580,-0.4551891777777777,0.1612898944444444,-0.3228711388888888,1.4196345333333331,3.1177900000000003,0.4101584733333333
814,1778412837590,-0.50690153,0.1601252,-0.403090582,1.30640381,3.0571532,0.3515578689999999
815,1778412837600,-0.5323142777777777,0.1872738066666666,-0.4740486611111111,1.1898201888888889,2.8370291666666665,0.3169703533333333
816,1778412837610,-0.5383606750000001,0.252090926,-0.5468916690000001,1.03604276,2.73454937,0.272330993
817,1778412837620,-0.5183839,0.30367625,-0.6384519,0.7918871,2.6652794,0.19921257
818,1778412837630,-0.537924311111111,0.3328141266666666,-0.5707107833333332,0.4807622377777777,2.645935855555555,0.1081878392222222
819,1778412837640,-0.565173254,0.3791257799999999,-0.410652028,0.133882448,2.68445998,-0.0331079216
820,1778412837650,-0.5953091211111111,0.3698894555555555,-0.3380312311111111,-0.0309920133333333,2.754802411111111,-0.1206083999999999
821,1778412837660,-0.6671629166666667,0.3734770666666666,-0.2811038,-0.071511548,2.8018376000000003,-0.1589560366666666
822,1778412837670,-0.70116895,0.4056943999999999,-0.3243787,-0.025426516,2.7153687,-0.1551552
823,1778412837680,-0.7233111666666666,0.4013310044444445,-0.2419212977777778,0.0522868283333333,2.564082244444444,-0.1798605844444444
824,1778412837690,-0.7287315600000001,0.400206278,-0.18542546,0.21659117,2.48251376,-0.1723811
825,1778412837700,-0.70995,0.38740066,-0.15281379,0.30748525,2.4356008,-0.1899735
826,1778412837710,-0.688261688888889,0.4116297088888889,-0.2631183544444444,0.4215100644444444,2.523834288888889,-0.1751774177777777
827,1778412837720,-0.67396615,0.420597717,-0.307469182,0.39300385,2.5412774,-0.20646638
828,1778412837730,-0.6528904,0.3905715677777778,-0.2964129711111111,0.3891351655555555,2.6254384888888884,-0.2382304322222222
829,1778412837740,-0.6206155,0.392279,-0.3668202,0.420492,2.6891024,-0.25105822
830,1778412837750,-0.600272844,0.33857464,-0.516377708,0.468748915,2.7126199,-0.321916505
831,1778412837760,-0.6207882666666666,0.3069284833333333,-0.6310429133333333,0.4876173055555555,2.6637182,-0.3489974077777777
832,1778412837770,-0.6628222100000001,0.268573594,-0.70417219,0.4937936699999999,2.562046,-0.36895174
833,1778412837780,-0.6981606777777778,0.2044123411111111,-0.7725721666666667,0.5034314744444445,2.4416413777777777,-0.3097674233333333
834,1778412837790,-0.6899691444444445,0.1704367777777777,-0.8431758577777777,0.5201279711111111,2.3320960777777775,-0.2271673044444444
835,1778412837800,-0.65118436,0.15413704,-0.896082708,0.5090037379999999,2.15461096,-0.140189447
836,1778412837810,-0.6430761333333334,0.1308917866666666,-0.9563667333333332,0.4736356866666666,2.027962033333333,-0.0663787346666666
837,1778412837820,-0.6167128,0.13284312,-1.028932,0.43454146,1.9542531,-0.025655584
838,1778412837830,-0.6114442,0.132257718,-1.0574885200000002,0.359590507,1.83073979,0.0050623968
839,1778412837840,-0.5669504133333334,0.1406213455555555,-1.1313126555555555,0.2543415166666666,1.642856711111111,0.0317046693333333
840,1778412837850,-0.55782524,0.146429274,-1.20035974,0.1816507125,1.42690862,0.0223111964999999
841,1778412837860,-0.5489277,0.1526681166666666,-1.239581177777778,0.1079418033333333,1.1355140866666666,0.0167728476666666
842,1778412837870,-0.5422877,0.1606801,-1.2356514,0.08025006,0.96406966,0.007406523
843,1778412837880,-0.52411593,0.163533925,-1.22723931,0.03675773468,0.682102592,-0.0297940742
844,1778412837890,-0.5192240888888889,0.1570179622222222,-1.2128824,-0.0048613262666666,0.4865907588888889,-0.0534151977777777
845,1778412837900,-0.5621669777777778,0.1180726044444444,-1.1831788888888888,-0.0734798366666666,0.2754157633333333,-0.0405195343333333
846,1778412837910,-0.5899308000000001,0.1042499872,-1.19044754,-0.0946965979999999,0.1399603707999999,0.0051463887999999
847,1778412837920,-0.5979312,0.097200796,-1.1804957,-0.11277767,-0.028633466,0.067269556
848,1778412837930,-0.572823054,0.1291325296,-1.12360211,-0.092069951,-0.2148197113999999,0.1085017444
849,1778412837940,-0.5422606377777778,0.1679806644444444,-1.0756860444444445,-0.0529146433333333,-0.5329897,0.14993755
850,1778412837950,-0.53480762,0.1874025311111111,-1.0777457666666668,-0.04314109,-0.65353024,0.13812783
851,1778412837960,-0.54416592,0.2072712499999999,-1.08098681,-0.1066081179999999,-0.89273802,0.0931694767
852,1778412837970,-0.5705041333333334,0.2190879766666666,-1.0337798,-0.16775393,-1.0090433,0.066658705
853,1778412837980,-0.5730415666666667,0.23266602,-0.9514783,-0.2643950555555555,-1.1058965,0.0399850442222222
854,1778412837990,-0.56843562,0.252374496,-0.8591599000000001,-0.395309798,-1.19950547,-0.0090939885
855,1778412838000,-0.5851222222222222,0.2604996222222222,-0.7869937466666667,-0.4730502966666667,-1.2425906,-0.0612883413333333
856,1778412838010,-0.6163805,0.258179699,-0.731484751,-0.50184158,-1.25863544,-0.0912605787999999
857,1778412838020,-0.644062,0.25339893,-0.6997055,-0.4964661,-1.2772052,-0.102011494
858,1778412838030,-0.6614071333333333,0.2480056644444444,-0.6801108333333333,-0.4599510166666667,-1.3430410333333331,-0.0880298773333333
859,1778412838040,-0.6794299,0.24047135,-0.6616545,-0.414979092,-1.41452374,-0.0669488588999999
860,1778412838050,-0.6601605,0.26632652,-0.62893915,-0.34680852,-1.4958886,-0.037261683
861,1778412838060,-0.6311344,0.2968466,-0.6218656,-0.2345908011111111,-1.6404557333333334,-0.0498179905555555
862,1778412838070,-0.60695923,0.32187245,-0.659212225,-0.17813833,-1.7402275,-0.080020994
863,1778412838080,-0.6091514166666667,0.33346458,-0.6885666,-0.2227301744444444,-1.8091853666666668,-0.1299747211111111
864,1778412838090,-0.617078674,0.329430819,-0.687143775,-0.281814376,-1.83405362,-0.1589424519999999
865,1778412838100,-0.6163875833333333,0.3216447788888889,-0.65768405,-0.36228334,-1.8294112,-0.1873264933333333
866,1778412838110,-0.6163604888888888,0.3180741133333333,-0.6155982533333333,-0.4181419222222222,-1.8328726555555557,-0.2142037711111111
867,1778412838120,-0.6006143,0.32834232,-0.58597934,-0.42194274,-1.8801115,-0.25655586
868,1778412838130,-0.6297623688888889,0.3095641355555555,-0.6154356533333334,-0.3795906633333333,-2.011443666666666,-0.3029802433333333
869,1778412838140,-0.652843,0.29343176,-0.6372323,-0.3437543,-2.1647663,-0.33902022
870,1778412838150,-0.6566237,0.29209023,-0.63003677,-0.345220332,-2.19921806,-0.3414636199999999
871,1778412838160,-0.6466536,0.2899356066666667,-0.5316367133333334,-0.3525097633333333,-2.459814088888889,-0.3498118666666666
872,1778412838170,-0.62096,0.302212762,-0.508721746,-0.34436515,-2.5527308,-0.3775036
873,1778412838180,-0.6413788833333334,0.2894376166666667,-0.4683505166666667,-0.3116508688888889,-2.684402111111111,-0.4208737555555555
874,1778412838190,-0.6579110055555556,0.2643751833333333,-0.4418448811111111,-0.2893210133333333,-2.749559188888889,-0.4353304855555555
875,1778412838200,-0.65191606,0.249105999,-0.438958553,-0.2809591919999999,-2.8015898800000003,-0.427959586
876,1778412838210,-0.643005,0.2402274299999999,-0.4340293833333333,-0.2871491133333334,-2.898470166666667,-0.4330907066666667
877,1778412838220,-0.6443059,0.22998293,-0.41904885,-0.28389126,-2.9583333,-0.45019442
878,1778412838230,-0.6383695850000001,0.2224215159999999,-0.434382049,-0.317121352,-3.0888102500000003,-0.467237068
879,1778412838240,-0.6232986,0.2177871,-0.42661023,-0.38407022,-3.239323,-0.4874560999999999
880,1778412838250,-0.612078406,0.2146161919999999,-0.35922219,-0.4378248,-3.2869692,-0.4996730699999999
881,1778412838260,-0.5762429411111111,0.2142841866666666,-0.2164929955555555,-0.6080475322222223,-3.3800214888888886,-0.5676128544444444
882,1778412838270,-0.57033813,0.20629252,-0.103756055,-0.660784,-3.3743203,-0.6151232
883,1778412838280,-0.6095965489999999,0.174519329,-0.0348069093,-0.65052178,-3.37926812,-0.634853572
884,1778412838290,-0.63479316,0.15406387,0.0014330104,-0.6265766,-3.3920348,-0.66704524
885,1778412838300,-0.6712282,0.1173849033333333,0.0682966673333333,-0.5855819577777778,-3.4242740333333335,-0.64586918
886,1778412838310,-0.71421848,0.08393173,0.152704027,-0.442406129,-3.44065831,-0.56790468
887,1778412838320,-0.7150722,0.07573613,0.15372847,-0.33336988,-3.4500654,-0.4990622
888,1778412838330,-0.655279085,0.102216329,0.08009308182,-0.28545655,-3.54364717,-0.4796372619999999
889,1778412838340,-0.51740825,0.1501612,0.011921427,-0.17874917,-3.6681378,-0.4263714
890,1778412838350,-0.44819009,0.1649316977777778,0.0041160938444444,-0.1935367711111111,-3.9926336111111103,-0.4677053888888889
891,1778412838360,-0.331251052,0.138501983,0.081358405,-0.439535155,-4.21606772,-0.579205373
892,1778412838370,-0.30776188,0.14552678,0.2669668,-0.63146335,-4.2295065,-0.69453335
893,1778412838380,-0.2910061533333333,0.1371252066666666,0.2941906088888888,-0.6518249255555556,-4.230049444444444,-0.7119764333333334
894,1778412838390,-0.2590212099999999,0.124181038,0.3370349199999999,-0.7207692299999999,-4.2185112,-0.776753374
895,1778412838400,-0.2449363866666666,0.0812920077777777,0.5703449277777778,-0.8012788666666667,-4.258012333333333,-0.8804345
896,1778412838410,-0.238190729,0.0774679375,0.673545397,-0.70513151,-4.3130089599999994,-0.8975178899999999
897,1778412838420,-0.24455696,0.093054205,0.66037387,-0.5105156,-4.4488006,-0.9266553
898,1778412838430,-0.3050990888888888,0.0336503359999999,0.6514336877777778,-0.4229608266666667,-4.549997733333334,-0.9266553
899,1778412838440,-0.319835722,0.0040429186899999,0.694680756,-0.0969796396,-4.8652152399999995,-0.8791924720000001
900,1778412838450,-0.3190870466666666,-0.0369025583333333,0.7241174311111112,0.0860870444444444,-4.895533377777777,-0.7904363422222223
901,1778412838460,-0.23406854,-0.010640865,0.683546,0.17065546,-4.8214173,-0.7049177
902,1778412838470,-0.095676318,-0.0234220992,0.5543219880000001,-0.075523625,-4.86570388,-0.6797508050000001
903,1778412838480,0.1058395111111111,-0.0218915206666666,0.70755146,-0.6751728577777778,-4.845647555555556,-0.7052570888888889
904,1778412838490,0.176467616,-0.0265747212,0.8089923459999999,-0.918683742,-4.7943566,-0.758794458
905,1778412838500,0.1627974355555555,-0.0617990011111111,1.2104059833333334,-1.0993724,-4.603344766666667,-0.8537608666666667
906,1778412838510,0.0922682553333333,-0.0998127383333333,1.584943377777778,-1.0547126,-4.277424011111111,-0.916203
907,1778412838520,-0.012714156,-0.12656227,1.6904949000000002,-0.812885,-4.021818,-0.9009997
908,1778412838530,-0.1386971186666666,-0.1728928744444444,1.730138188888889,-0.3194307022222222,-3.8974089777777774,-0.7579935777777778
909,1778412838540,-0.2467522,-0.19540773,1.7605295,0.2940466,-3.7609866,-0.5583144
910,1778412838550,-0.1779311149,-0.148255602,1.63526309,0.599470224,-3.70039052,-0.4161091519999999
911,1778412838560,-0.035886243,-0.05189327,1.482556,1.1926029,-3.5459683,-0.15210097
912,1778412838570,0.0251782998,-0.0044575759999999,1.33218142,1.27836582,-3.54083722,-0.136341112
913,1778412838580,0.1823751422222222,0.1128554977777777,1.0637409222222225,1.0815644333333332,-3.5037520555555557,-0.2189548022222222
914,1778412838590,0.2339567566666666,0.1437380633333333,0.9753414333333332,0.8134025222222223,-3.443956888888889,-0.3008083333333333
915,1778412838600,0.235669245,0.141014331,1.00633923,0.588963656,-3.3771300799999997,-0.354657928
916,1778412838610,0.1850006288888889,0.1213248288888889,1.219847688888889,0.2111071155555555,-3.1372436444444443,-0.454673991111111
917,1778412838620,0.14836231,0.10235353,1.2775441,0.15782766,-3.0646207,-0.4648547799999999
918,1778412838630,0.1186380185,0.0766447148,1.40860962,0.303881238,-2.96077675,-0.404014378
919,1778412838640,0.1509166644444444,0.0702344526666666,1.484344711111111,0.5145624666666666,-2.9258226444444446,-0.3301968777777778
920,1778412838650,0.20766456,0.091102876,1.4906052,0.64589465,-2.9088547,-0.2870982
921,1778412838660,0.3203439077777777,0.1506388713333333,1.4086390333333334,0.8960026555555556,-2.8544214,-0.2758314733333333
922,1778412838670,0.3565452,0.17043677,1.2944047,1.0020186,-2.7976804,-0.28343314
923,1778412838680,0.386705492,0.158521434,1.18253246,0.87447368,-2.80898114,-0.281356248
924,1778412838690,0.4738386466666666,0.15570013,1.1483800666666666,0.6597405133333333,-2.8204854,-0.3058308666666666
925,1778412838700,0.5110969200000001,0.14676669,1.2109344666666668,0.4986125822222221,-2.7572966222222224,-0.37865744
926,1778412838710,0.431006864,0.07403481,1.31439988,0.1409682752,-2.54690467,-0.555382334
927,1778412838720,0.39630362,0.02643447,1.3824892,0.003283304,-2.4677465,-0.60412794
928,1778412838730,0.2615061102,-0.1052774829999999,1.6379126899999998,-0.135501192,-2.2124124600000004,-0.6332042619999999
929,1778412838740,0.1111175968888888,-0.1551072888888889,1.7183591111111112,-0.1488940155555555,-1.996172388888889,-0.5712779477777777
930,1778412838750,0.0261702257,-0.2024813266666666,1.7421443666666667,-0.1994586044444444,-1.382474588888889,-0.3384772655555556
931,1778412838760,-0.0040063316099999,-0.2055028499999999,1.73598542,-0.231656186,-0.933115,-0.1492834364
932,1778412838770,-0.0414759988888888,-0.1759452244444444,1.6888553888888889,-0.1589984544444444,-0.4641675555555556,0.0655048835555555
933,1778412838780,-0.0348733064817777,-0.1228120455555555,1.5102473555555556,-0.0622130984444444,-0.2416155622222222,0.2090539866666666
934,1778412838790,0.0085126923744,-0.0847976258,1.40510336,0.0383459363,-0.14182346,0.353695823
935,1778412838800,0.1178354722222222,0.0288058826666666,1.3255889555555556,0.1983471933333333,-0.25994096,0.4382574533333334
936,1778412838810,0.2900169259999999,0.198822574,1.2395784,0.319213512,-0.447185992,0.359254536
937,1778412838820,0.37800986,0.2633995,1.2236079,0.32397813,-0.5270848,0.24930204
938,1778412838830,0.3156417155555555,0.2480124322222222,1.2507810444444445,0.1362443923888888,-0.4033543188888889,0.0021549338888888
939,1778412838840,0.2774552,0.22778767,1.2733976,-0.0071010995,-0.26991814,-0.1246128399999999
940,1778412838850,0.1321554055555555,0.1258914922222222,1.3484763666666666,-0.0947916166111111,-0.0561894649999999,-0.1607206955555555
941,1778412838860,0.12104365,0.09768862,1.3532192,-0.10728005,0.07704311,-0.14538164
942,1778412838870,0.119567954,0.04196586096,1.3534144,-0.0516929479999999,0.110089948,-0.139028835
943,1778412838880,0.10223158,0.0035063023999999,1.348097,-0.01565296,0.14240377,-0.13438639
944,1778412838890,0.065131852,-0.0107628226599999,1.31975078,-0.10850175,0.3257343,-0.028709821
945,1778412838900,0.1040745033333333,0.0034520986777777,1.3309922,-0.1835765744444444,0.4222481822222222,0.0108001191111111
946,1778412838910,0.1042371077777777,-7.114218888888864e-05,1.3379370666666668,-0.3485732044444444,0.6638722122222223,0.0517268868888888
947,1778412838920,0.08052299,-0.010884781,1.3622441,-0.42133188,0.75943583,0.08376243
948,1778412838930,0.1713040388888888,0.002232515,1.4062067333333337,-0.4913757066666667,0.91309783,0.0989657411111111
949,1778412838940,0.1991511966666667,0.0026627568888888,1.399644711111111,-0.5541572222222223,1.038049988888889,0.0798258588888888
950,1778412838950,0.1086831735,-0.046170376,1.40664611,-0.722235292,1.2587424,0.057618168
951,1778412838960,0.038294915,-0.089730844,1.4493529,-0.85808766,1.474738,0.09475768
952,1778412838970,0.0006646723999999,-0.128001374,1.5304247199999998,-0.8991366060000001,1.68108228,0.224318381
953,1778412838980,0.0768371366666666,-0.0916821766666666,1.618478577777778,-0.7424339333333333,1.9359276000000003,0.3885752166666666
954,1778412838990,0.08564524,-0.08192551,1.6221373,-0.704765,1.9786869,0.40445724
955,1778412839000,0.1100948374,-0.062067643,1.56796951,-0.539775159,2.0836915300000003,0.463098584
956,1778412839010,0.1537691344444444,-0.0520558804444444,1.4650346666666667,-0.4346347833333333,2.221057588888889,0.515224231111111
957,1778412839020,0.1958210466666666,-0.0444131613333333,1.410891988888889,-0.4845885155555555,2.354697311111111,0.5338889733333333
958,1778412839030,0.199322604,-0.0512834787999999,1.35130745,-0.67904833,2.59411552,0.522839438
959,1778412839040,0.19180998,-0.06579652,1.3246504,-0.8299887,2.7245314,0.5211291
960,1778412839050,0.165652964,-0.0796601352,1.3657687200000002,-0.97243826,2.8188614999999997,0.518685688
961,1778412839060,0.14088221,-0.1019266753333333,1.4595092777777778,-1.0607531444444445,2.9248300111111107,0.533346
962,1778412839070,0.1286863666666666,-0.1246922333333333,1.5962923333333334,-1.0658436,3.086568822222222,0.5752908577777778
963,1778412839080,0.14153264,-0.1474049399999999,1.61981404,-1.011776884,3.340830599999999,0.6287603500000001
964,1778412839090,0.12397064,-0.17464434,1.5921355,-0.9912523600000002,3.4991622,0.66834325
965,1778412839100,0.0935860806666666,-0.1686548333333333,1.6101311555555555,-0.8912770466666667,3.596761977777778,0.7254914055555556
966,1778412839110,0.0674978424,-0.169180606,1.6060327600000002,-0.684118372,3.6593263,0.7875806599999999
967,1778412839120,0.0979528688888888,-0.1748882522222222,1.556625377777778,-0.5059681577777777,3.7075968333333336,0.8502400111111111
968,1778412839130,0.119031336,-0.161716746,1.47425064,-0.4660459099999999,3.811916,0.874076644
969,1778412839140,0.10832949,-0.1624485,1.428132,-0.495991001111111,3.944334011111112,0.8854655244444445
970,1778412839150,0.0564870372222222,-0.1624180166666666,1.4019483555555556,-0.5518495855555555,4.1096019777777775,0.906641561111111
971,1778412839160,0.058570493,-0.12802577,1.3820014,-0.55022067,4.2382874,0.93161845
972,1778412839170,0.0075614170555555,-0.1205456444444444,1.3580128444444444,-0.4761724044444444,4.292856433333333,0.92381315
973,1778412839180,-0.0058844895,-0.11534209,1.3163573,-0.41827765,4.310367,0.9169581
974,1778412839190,-0.05786923,-0.12022042,1.2956244,-0.37857258,4.3494616,0.8949676
975,1778412839200,-0.1568858522222222,-0.1382431577777777,1.1899813777777777,-0.3692062666666666,4.500951666666667,0.9124785533333332
976,1778412839210,-0.2172230449999999,-0.144642585,1.11745845,-0.35994175,4.54279465,0.97223978
977,1778412839220,-0.2835463633333333,-0.1477051011111111,1.1213628111111111,-0.35474956,4.5504303,1.0018659
978,1778412839230,-0.3034763833333333,-0.1407907422222222,1.1254924666666666,-0.2149842966666666,4.571402644444444,1.1267502
979,1778412839240,-0.27114385,-0.1080246,1.0959786,-0.06574243,4.5571494,1.1961153
980,1778412839250,-0.2719569122222222,-0.0929491911111111,1.05845614,0.2001797322222222,4.513711711111111,1.2377886555555555
981,1778412839260,-0.2671598933333333,-0.0579098888888888,0.90016089,0.4570749388888888,4.478282388888889,1.2545530444444446
982,1778412839270,-0.25133782,-0.0129092888,0.6819970900000001,0.630745625,4.320385150000001,1.19745914
983,1778412839280,-0.2540697,0.025946636,0.55567265,0.5507381888888889,4.208695444444444,1.0903029777777775
984,1778412839290,-0.25553322,0.06744295,0.3108718,0.4272113,4.128946,1.0183587
985,1778412839300,-0.2455834355555555,0.1180759931111111,0.29041666,0.1000516888888888,4.055101066666667,0.9029086055555556
986,1778412839310,-0.2431916955555555,0.1633564233333333,0.4650406777777778,-0.5009456333333334,4.093516500000001,0.6292490333333333
987,1778412839320,-0.410069669,0.1079544651,0.7237525579999999,-0.6359836,4.24781646,0.530291772
988,1778412839330,-0.5645248333333334,0.0299204458888888,0.7506196577777778,-0.5371892933333333,4.475906866666667,0.5549292933333333
989,1778412839340,-0.6662584,-0.0279894379999999,0.7035471,-0.41583428,4.52844,0.63841176
990,1778412839350,-0.6183257280000001,-0.0142203416,0.6590597650000001,-0.3184423184,4.4963093,0.698335872
991,1778412839360,-0.4483188555555555,0.0438880628888888,0.512357138888889,0.071698196,4.307313,0.8784747
992,1778412839370,-0.4406385220000001,0.0258734609,0.463450835,0.2267923149999999,4.1941842000000005,0.83174492
993,1778412839380,-0.4640955244444444,0.0325594872222222,0.2928693933333333,0.4413286711111111,4.133968222222222,0.8335435
994,1778412839390,-0.48079026,0.03521547,0.22473872,0.4883639177777777,4.097588966666667,0.83272906
995,1778412839400,-0.516371584,0.0333738964,0.1033474942399999,0.55170202,4.088140989999999,0.8793909980000001
996,1778412839410,-0.49192911,0.0564667066666666,-0.0346056762666666,0.5793123177777777,4.116525066666666,0.9469575
997,1778412839420,-0.4592341066666667,0.0721586799999999,-0.1459739599999999,0.5353991533333333,4.120665166666666,0.9952823222222222
998,1778412839430,-0.414917493,0.115756755,-0.231370206,0.493182808,4.01312902,1.011272916
999,1778412839440,-0.35633177,0.17385161,-0.2950782,0.4930470555555555,3.8694713666666662,0.9739705244444444
1000,1778412839450,-0.32825086,0.22632419,-0.27946752,0.53594214,3.6262183,0.8485432
