id,timestamp,acc_x,acc_y,acc_z,gyro_x,gyro_y,gyro_z
0,1778291846920,-0.02710807,0.22653468,0.8400329,-0.0234375,-0.007751465,-0.04196167
1,1778291846930,-0.0215415675,0.2609311112499999,0.8970054249999999,-0.0740432749999999,-0.045303345,-0.0470199585
2,1778291846940,-0.018201666,0.28156897,0.93118894,-0.12464905,-0.082855225,-0.052078247
3,1778291846950,-0.0071641471111111,0.2676443988888889,0.9911990533333334,-0.1088443355555555,-0.0883619516666666,-0.0359225805555555
4,1778291846960,0.004496754,0.25777397,1.0129471,-0.09428406,-0.089782715,-0.029174805
5,1778291846970,0.0059005315625,0.2563705875,1.0188200375,-0.08429908875,-0.092975616875,-0.024179458875
6,1778291846980,0.0220017588888888,0.2506278077777778,1.0054900222222225,-0.0356953935555555,-0.0803053111111111,-0.0149112277777777
7,1778291846990,0.0471397888888888,0.25359712,0.9674438111111112,0.0009935166666666,-0.0427263038888888,-0.0234900577777777
8,1778291847000,0.0529833738888888,0.2670344933333333,0.9341164511111112,-0.0232170951555555,-0.0072750514444444,-0.0410614004444444
9,1778291847010,0.051844105,0.27522436,0.9214255,-0.040496826,0.011428833,-0.0488739
10,1778291847020,0.0251604956666666,0.2747902222222222,0.9201790733333332,-0.116722954,0.0355716285555555,-0.0564558244444444
11,1778291847030,0.0060218552499999,0.2711965699999999,0.95986567,-0.17817688,0.0449829105,-0.0582046509999999
12,1778291847040,-0.0116927015,0.2755484233333333,1.017422066666667,-0.1640574166666666,0.0469411226666666,-0.053675334
13,1778291847050,-0.0365453933333333,0.2781527266666667,1.039713,-0.1125691744444444,0.0467631027777777,-0.0426686605555555
14,1778291847060,-0.048178469,0.2768923033333333,1.0418284333333334,-0.0632120766666666,0.0416107176666666,-0.0279337563333333
15,1778291847070,-0.0357111635,0.279616905,1.0231376,0.008247375,0.0252761845,-0.0009460449999999
16,1778291847080,-0.0134105459749999,0.2840704975,0.995253725,0.0451316825,0.013824463175,0.01197052
17,1778291847090,0.0064496854888888,0.2789802111111111,0.938727411111111,0.0418938533333333,-0.0126647951333333,0.0111304388888888
18,1778291847100,0.0106258476666666,0.2765938333333333,0.91529778,0.0165049233333333,-0.031361898,0.0031433104333333
19,1778291847110,0.010354511,0.2763225,0.90519613,-0.014389038,-0.045562744,-0.0057373047
20,1778291847120,0.0095275396555555,0.27671568,0.9059961377777778,-0.0192430282222222,-0.0481092663333333,-0.0059153239
21,1778291847130,0.0029117689,0.27986112,0.9123962,-0.0580749499999999,-0.068481445,-0.0073394775
22,1778291847140,-0.0021878016222222,0.2729328844444444,0.9496560588888888,-0.1062384688888889,-0.0804307738888888,-0.0093468558333333
23,1778291847150,0.0003753775444444,0.2640784944444445,0.9962713,-0.1309102333333333,-0.1094258644444444,-0.0091637506666666
24,1778291847160,0.0044983095,0.26033577,1.0156333,-0.1257019,-0.1217346199999999,-0.008926392
25,1778291847170,0.0003753776333333,0.2571910233333334,1.0428582777777775,-0.0627475306666666,-0.1210293266666666,-0.0034874808888888
26,1778291847180,-0.0011301077999999,0.2567713977777777,1.0488912555555556,-0.0148128934444444,-0.1092512364444444,0.0043199326666666
27,1778291847190,0.0098121836888888,0.2527440511111111,1.022561088888889,0.0400509311111111,-0.0823228626666666,0.0100623237777777
28,1778291847200,0.0182191208888888,0.2494361666666666,0.991973,0.0717807355555555,-0.0504319935555555,0.0172322593333333
29,1778291847210,0.020727687,0.2492330999999999,0.9747535,0.07296753,-0.033859253,0.0139770509999999
30,1778291847220,0.0152765894444444,0.2460183588888888,0.9482860888888888,0.0307057698666666,-0.0281694202222222,0.0097707114444444
31,1778291847230,0.015358336,0.24142171,0.9431471,-0.0021514893,-0.024261475,0.006515503
32,1778291847240,-0.0087919241999999,0.223874267,0.95085909,-0.04262695346,-0.034277344,0.0161010746
33,1778291847250,-0.0095087015555555,0.2058709388888889,0.9661972777777778,-0.1134067124444444,-0.0547417537777777,0.047124228
34,1778291847260,-0.0011026285333333,0.1901024888888889,0.9947651666666668,-0.1484408944444444,-0.0645667172222222,0.0822143555555555
35,1778291847270,0.0016765829,0.1778997777777777,1.0133678000000002,-0.17152405,-0.07167053,0.116241455
36,1778291847280,0.0004972197777777,0.1727072288888889,1.0233341555555553,-0.1732991555555555,-0.0747477193333333,0.1226925322222222
37,1778291847290,-0.0007367563888888,0.1392301766666666,1.0845381,-0.16826545,-0.1100209539999999,0.1920522055555555
38,1778291847300,-0.0039907199444444,0.1100516522222222,1.1257564111111111,-0.1369018566666666,-0.1256459533333333,0.2121124266666666
39,1778291847310,-0.0195158328888888,0.0759793977777777,1.1812112222222222,-0.081507364,-0.1394907633333333,0.2307535833333333
40,1778291847320,-0.0201773756,0.055280364,1.2152955,-0.0007476804,-0.1323883076,0.256744386
41,1778291847330,-0.0052651373333333,0.0395326877777777,1.2133047555555556,0.0539109973333333,-0.1212632917777777,0.2765028222222222
42,1778291847340,0.00937873664,0.0126859308888888,1.1976308444444443,0.0984124088888888,-0.1091851122222222,0.2916531022222222
43,1778291847350,0.0015958733555555,-0.0327774472222222,1.1737810555555557,0.1139153384444444,-0.1066402855555555,0.3075120722222222
44,1778291847360,0.0205510594444444,-0.0728839166666666,1.1452533666666664,0.1004876022222222,-0.0957505977777777,0.3278774777777777
45,1778291847370,0.045716395,-0.1027127844444444,1.1230172444444444,0.0759904633333333,-0.0771111388888888,0.3318430666666667
46,1778291847380,0.05501719,-0.13308433,1.1059339,0.03994751,-0.04397583,0.3239746
47,1778291847390,0.0251604973333333,-0.1521477011111111,1.1252819777777776,0.0125952827777777,0.0603095162222222,0.3519049688888889
48,1778291847400,-0.0191364806666666,-0.1722957233333333,1.1738218666666669,-0.0097808836666666,0.24401347,0.41398112
49,1778291847410,-0.0325462055555555,-0.1960507988888888,1.2387545333333334,0.0736694319999999,0.4122043188888888,0.4986131333333333
50,1778291847420,-0.0295252108,-0.212793674,1.28878152,0.188220212,0.53873291,0.55566404
51,1778291847430,-0.02051926,-0.21154964,1.309722,0.28121948,0.60424805,0.57164
52,1778291847440,0.0233577493333333,-0.2622587955555555,1.2853694222222225,0.4998372455555555,0.6562669622222222,0.5704600011111112
53,1778291847450,0.076129064,-0.26841468,1.2582247,0.67004395,0.6772156,0.55033875
54,1778291847460,0.1196925671111111,-0.1897739444444444,1.1942144222222222,0.8459370944444444,0.6791076533333333,0.4145796022222222
55,1778291847470,0.112723194,-0.100719928,1.1047133,1.0594042,0.7091759577777778,0.2340189622222222
56,1778291847480,0.072588906,-0.0575494319999999,1.0061141,1.1563416,0.75764465,0.15779114
57,1778291847490,0.0393364114,0.0138139472,0.83283322,1.18941498,0.8528778109999999,0.0678268442
58,1778291847500,0.013648916,0.07229026,0.6863997,1.1898956,0.9563141,-0.022781372
59,1778291847510,0.0170660271111111,0.1091159755555555,0.59555626,1.0343712444444444,0.941163811111111,-0.1259918199999999
60,1778291847520,0.0264354311111111,0.1656967155555555,0.47468002,0.7997198999999999,0.877605861111111,-0.2773776555555555
61,1778291847530,0.044278484,0.2026168,0.44905323,0.65885925,0.72143555,-0.35568237
62,1778291847540,0.0816192213333333,0.1877702033333333,0.4135427166666667,0.3023529,0.17458598,-0.5602162666666667
63,1778291847550,0.0649016091111111,0.1837976288888889,0.4197659933333333,0.2051205096666666,0.0427890355555555,-0.599512738888889
64,1778291847560,0.0514519632222222,0.2065361366666666,0.4986917133333333,-0.0633900953333333,-0.2032267266666666,-0.6243031833333333
65,1778291847570,0.0481022547777777,0.1940071333333333,0.6136428222222222,-0.3118370911111111,-0.3378024644444444,-0.6248931877777778
66,1778291847580,0.02894348,0.1852882466666666,0.7169064233333333,-0.4094255277777778,-0.3349626333333333,-0.6223568355555555
67,1778291847590,0.01845769,0.193831092,0.8713950479999999,-0.397677616,-0.069100952,-0.6028259300000001
68,1778291847600,0.02377789,0.19871266,0.9080037,-0.36167908,0.0476532,-0.59643555
69,1778291847610,0.0292550853333333,0.1988474688888889,0.8640730777777779,-0.1166568342222222,0.3092329244444445,-0.5987921944444445
70,1778291847620,-0.0023234694444444,0.1697640044444444,0.7602948333333334,-0.0603146011111111,0.3357442222222222,-0.59411792
71,1778291847630,-0.0409794133333333,0.13586699,0.6381170666666667,-0.2138926177777778,0.2207556844444444,-0.5740559922222223
72,1778291847640,-0.0333323265,0.13569938375,0.66588321875,-0.4532165525,0.082536700425,-0.580978395
73,1778291847650,-0.022350004,0.14965744,0.78768325,-0.59069824,-0.0013580322,-0.61027527
74,1778291847660,-0.1511916256666666,0.2263316966666666,1.009592025,-0.46446736,-0.0725555407333333,-0.60264079
75,1778291847670,-0.2779852622222222,0.2834277277777777,1.1185024888888888,-0.2410617383333333,-0.1472490055555555,-0.5564761588888889
76,1778291847680,-0.3543486799999999,0.3463943722222222,1.095886577777778,-0.0504896372222222,-0.2530670144444444,-0.4723324233333332
77,1778291847690,-0.4072686333333333,0.3919652533333333,1.0415027666666667,0.1983083133333333,-0.5497995999999999,-0.3015340233333333
78,1778291847700,-0.41711244,0.39944896,0.9648687,0.2700348,-0.7273407,-0.19110107
79,1778291847710,-0.31428282,0.3528751733333333,0.8412942999999999,0.1445719455555555,-1.0815378666666666,-0.1016760913888888
80,1778291847720,-0.21918215,0.30560973,0.7446071,-0.05380249,-1.530014,-0.0073394775
81,1778291847730,-0.1888909744444444,0.31876109,0.7632640111111111,-0.2743835488888889,-1.7973344555555557,0.0631527378888888
82,1778291847740,-0.135994849,0.36241287,0.858581869,-0.5102798500000001,-1.97109374,0.180957034
83,1778291847750,-0.10703706,0.39700848,0.94741833,-0.5512848,-1.9028625,0.22383118
84,1778291847760,-0.0879602033333333,0.4335765188888889,0.95106582,-0.53915406,-1.768164711111111,0.2350769066666666
85,1778291847770,-0.0292922418888888,0.5457617266666666,0.9276367144444444,-0.5058966755555555,-1.3642493644444444,0.2682800266666667
86,1778291847780,0.0175957385,0.6402122111111112,0.8778760000000001,-0.5700446222222222,-0.4583621555555555,0.3029564777777778
87,1778291847790,0.0304081782222222,0.6662449388888889,0.8150987277777778,-0.6724310888888889,0.0094723166666666,0.3085767888888889
88,1778291847800,0.019018268,0.64216477,0.79280835,-0.72332764,0.11955261,0.3090515
89,1778291847810,0.0227065420999999,0.5809325966666666,0.6782644833333333,-1.0253906366666667,0.2447797966666666,0.33526781
90,1778291847820,0.0450227572999999,0.534912778,0.63312201,-1.22661133,0.266189571,0.337225346
91,1778291847830,0.112261584,0.5000549933333334,0.7085673888888889,-1.5203196111111112,0.1774970138888889,0.2641364222222222
92,1778291847840,0.1400844622222222,0.4832424999999999,0.8295108733333333,-1.7224816111111112,0.0624389645555555,0.1587897422222222
93,1778291847850,0.0924260205555555,0.4709718722222222,0.9991315733333336,-1.8312004777777775,-0.0327317981111111,0.0567542197777777
94,1778291847860,0.0461633227777777,0.4603416988888889,1.1635718222222222,-1.8283623555555557,-0.0346221922222222,0.0081668428666666
95,1778291847870,0.0172015224444444,0.4569382377777777,1.309964788888889,-1.7422535888888888,0.016452365,0.0042063394333333
96,1778291847880,-0.0671474834444444,0.4606525988888889,1.4602912555555556,-1.3833092666666666,0.1610378655555555,0.0777774368888888
97,1778291847890,-0.1156738488888889,0.4397593577777778,1.4770762666666668,-1.0084584666666665,0.2962137833333333,0.2177988666666666
98,1778291847900,-0.1177892377777777,0.4209400111111111,1.4374307555555557,-0.7783050444444445,0.3705461266666667,0.3332604311111111
99,1778291847910,-0.0907537593333333,0.4009269444444444,1.3800913,-0.5757276622222223,0.43078952,0.4499053988888888
100,1778291847920,-0.030062147,0.37453123,1.28177584,-0.406091312,0.4891998239999999,0.57291565
101,1778291847930,0.0909341913333333,0.3860803555555556,1.1538767666666665,-0.3345659066666667,0.5895775777777778,0.6312340666666667
102,1778291847940,0.1533042522222222,0.3958968577777778,1.0983948555555554,-0.3260413288888888,0.6459130311111111,0.6201053333333334
103,1778291847950,0.1488432677777777,0.3979856222222222,1.0742332555555558,-0.3423173666666666,0.6543172277777778,0.5307413866666667
104,1778291847960,0.11689884,0.3976465388888889,1.0579896666666668,-0.3623250288888889,0.6170959555555555,0.4076453311111111
105,1778291847970,0.07295599,0.398595,1.0576098,-0.37019348,0.5147705,0.29786682
106,1778291847980,-0.0221171534999999,0.39550779,1.09147315,-0.321615596,0.2282104491999999,0.209451292
107,1778291847990,-0.1038511857777777,0.38782987,1.1299329444444444,-0.2502254866666666,-0.0068037243333333,0.1815236377777777
108,1778291848000,-0.1222916973333333,0.40892724,1.1968852,-0.11470032,-0.2124023444444444,0.2256707022222222
109,1778291848010,-0.1181971111111111,0.4469458088888889,1.2826313555555555,0.1406673833333333,-0.4655812566666666,0.3129594511111111
110,1778291848020,-0.10899068,0.4675410999999999,1.3074028,0.3115352999999999,-0.5396779333333332,0.35426331
111,1778291848030,-0.1108603133333333,0.48161464,1.1892522555555556,0.9349484,-0.5482584666666667,0.4986758666666666
112,1778291848040,-0.1238768591111111,0.4515139244444444,1.0667080866666665,1.0211164888888888,-0.4481201111111111,0.5474361688888889
113,1778291848050,-0.0913365253333333,0.3437228333333333,0.7854052111111112,0.8689015955555556,-0.1458163777777777,0.6589338511111111
114,1778291848060,-0.0294951387777777,0.2239585322222222,0.6027551555555556,0.5827043333333334,0.1386718744444444,0.7449883311111111
115,1778291848070,0.059532605,0.09449872,0.5094569,0.23968506,0.31929016,0.7830963
116,1778291848080,0.0780319817,0.05801263848,0.499194619,-0.1103179919999999,0.418888856,0.814256282
117,1778291848090,0.119813375,-0.0044656456,0.5183664,-0.77127075,0.556839,0.88856506
118,1778291848100,0.1339157866666666,-0.0117331424666666,0.8330919555555556,-1.2028791555555556,0.5489095111111111,0.9585096666666668
119,1778291848110,0.16317571,0.0152624178,1.0931213,-1.2577412666666663,0.4771219733333333,0.9599253333333334
120,1778291848120,0.15837565,0.053253327,1.2119771,-1.1686096,0.39865112,0.939682
121,1778291848130,0.1567891099999999,0.1867529533333333,1.3186704333333334,-0.7053884,0.11457824728,0.8290863066666667
122,1778291848140,0.24074511,0.2550893,1.3126509,-0.5044098,0.00022888184,0.75379944
123,1778291848150,0.3852265933333333,0.3059757866666667,1.2455744,-0.2299889444444444,-0.1909264464622222,0.4334479422222222
124,1778291848160,0.3807111766666666,0.2639163733333333,1.1300955,-0.0353969997777777,-0.3446757011111111,0.0756988511111111
125,1778291848170,0.268823603,0.172866672,1.01627963,-0.0166351311999999,-0.370474244,-0.169894408
126,1778291848180,0.0968726511111111,0.0664060594444444,0.9574244,-0.16619364,-0.29946391,-0.2846577933333333
127,1778291848190,0.04562082,0.031533275,0.9574244,-0.2940216,-0.21281433,-0.2960205
128,1778291848200,0.0255403655555555,0.0249978677777777,0.9801489222222222,-0.2940216,-0.21281433,-0.2960205
129,1778291848210,-0.0725441415555555,-0.017007786,1.074409188888889,-0.4709184444444445,0.0683644615555555,-0.2232259111111111
130,1778291848220,-0.0948756505555555,0.0152620727777777,1.2349179666666668,-0.430079151111111,0.5808156444444443,0.1185506159999999
131,1778291848230,-0.0178617172222222,0.0663514483333333,1.2506457888888889,-0.2075517511111111,0.6146630311111111,0.2132432666666666
132,1778291848240,0.045230098,0.106872804,1.2268878,-0.039205932,0.5751617459999999,0.2132904
133,1778291848250,0.0824871544444444,0.1647606977777777,1.1574839,0.2222832555555555,0.4713253444444444,0.0998433444444444
134,1778291848260,0.0827588388888888,0.1833636666666666,1.0943001666666663,0.3484564911111111,0.3752153222222222,-0.0017123755555555
135,1778291848270,0.0840332555555555,0.1982783622222222,1.034330311111111,0.4453362355555555,0.2293379088888889,-0.1135050455555555
136,1778291848280,0.05359396625,0.2262090766666666,0.9955387,0.4806111633333333,0.1163584393333333,-0.2088521266666666
137,1778291848290,0.00071549875,0.25020835,0.9697497,0.47244263,0.0620269779999999,-0.2805786
138,1778291848300,-0.0044780888666666,0.2945587355555555,0.9717701844444444,0.4071638344444444,0.0464630135555555,-0.3324771377777777
139,1778291848310,-0.0031901912,0.34075317,0.9769497499999998,0.32170105,0.03593445,-0.39082336
140,1778291848320,0.0572272820888888,0.4045201677777778,1.0296113166666667,0.27908834,0.0449812144444444,-0.4330902066666666
141,1778291848330,0.137873802,0.47540038,1.09182772,0.255014042,0.0428436264,-0.48862915
142,1778291848340,0.16179137,0.4912147800000001,1.1056898,0.26524353,0.025802612,-0.51119995
143,1778291848350,0.1367898777777777,0.5089902455555556,1.0740434333333333,0.3044247133333333,-0.1245812306666666,-0.6558431
144,1778291848360,0.0688335708888888,0.4969228599999999,1.0252047666666668,0.2938927588888889,-0.2137722444444444,-0.72236124
145,1778291848370,-0.0716898627777777,0.4725174477777777,0.984488422222222,0.1800299744444444,-0.3427191777777778,-0.6562533933333333
146,1778291848380,-0.1700858022222222,0.4608570611111111,0.9756755222222222,0.1253458633333333,-0.4183519044444444,-0.5725741955555556
147,1778291848390,-0.2317643866666666,0.4385939755555555,0.978888522222222,0.0810716448888888,-0.5099656811111112,-0.4249233688888889
148,1778291848400,-0.2005244044444444,0.42996998,0.9997140333333334,0.0738525393333333,-0.6256103466666666,-0.1903889946666666
149,1778291848410,-0.154261841,0.4392313129999999,1.0186699,0.09161377,-0.6703491,-0.062194824
150,1778291848420,-0.0370740685555555,0.4550540877777778,1.0347092000000002,0.1668870688888888,-0.619873048888889,0.1236928319999999
151,1778291848430,0.0031141478888888,0.4609114922222223,1.0387222222222223,0.2068922244444444,-0.5696885777777778,0.1954227044444444
152,1778291848440,0.0098667967777777,0.4711208333333334,1.0340313555555556,0.2416924444444444,-0.4747568666666667,0.2594604555555555
153,1778291848450,0.00600241211,0.4757983666666667,1.0391841666666666,0.27643332,-0.3120574966666666,0.3298289066666666
154,1778291848460,0.0023003112933333,0.4717307333333333,1.0644974444444444,0.30625916,-0.17073059,0.36817932
155,1778291848470,0.05844743,0.4527487722222222,1.052716077777778,0.5029212088888889,0.1960737435555555,0.3715515044444444
156,1778291848480,0.10122544,0.4274752466666667,1.0290562333333333,0.5946536600000001,0.33869934,0.3489413666666666
157,1778291848490,0.151053455,0.40512394,1.005016,0.652740465,0.3861389149999999,0.2392806999999999
158,1778291848500,0.1905502811111111,0.4106490888888889,1.0084999888888888,0.7153218333333333,0.3803660066666666,0.1073659306666666
159,1778291848510,0.19766897,0.4267841,1.0218551,0.7781677,0.34272766,0.013961792
160,1778291848520,0.16807687625,0.454621475,0.9876112875,0.95972635,0.27215003875,-0.13390540925
161,1778291848530,0.1438016928571428,0.4727708971428571,0.9585579,1.111136342857143,0.2216622471428571,-0.2491520442857143
162,1778291848540,0.0669146855,0.5014650900000001,0.8077568749999999,1.1211929,0.135002135,-0.310943605
163,1778291848550,0.0139883461111111,0.5196605444444445,0.6928668611111111,1.0336049044444442,0.0189497222222222,-0.3562740777777777
164,1778291848560,-0.039067786,0.5133019,0.6399063,0.89482117,-0.06474304,-0.37698364
165,1778291848570,-0.0256985018888888,0.4938723111111111,0.6405300277777778,0.7836778455555556,-0.049652098,-0.3681657555555555
166,1778291848580,0.0397369695555555,0.4406139755555555,0.6495739999999999,0.2227495022222222,0.0710822215555555,-0.3363325299999999
167,1778291848590,0.195741168,0.360400136,0.607203056,-0.229254152,0.314178468,-0.436950686
168,1778291848600,0.27792322,0.29981972,0.6211139333333333,-0.6559787333333333,0.4620327555555555,-0.5658264166666667
169,1778291848610,0.2595777566666666,0.2830751433333333,0.7927674166666666,-1.0202399111111111,0.4487152222222222,-0.7454477888888889
170,1778291848620,0.2294773777777777,0.2912918011111111,0.8977393888888889,-1.0975901,0.3308258066666666,-0.8549346866666666
171,1778291848630,0.1727343611111111,0.3113853966666666,1.0481870666666666,-1.0481177444444445,0.1687825555555555,-0.9363691533333331
172,1778291848640,0.0186525673333333,0.2454350766666666,1.1068689777777778,-0.8303307355555556,-0.0416666666666666,-0.9562598377777776
173,1778291848650,-0.1175718242222222,0.1718109422222222,1.1171873222222224,-0.6767018633333334,-0.1493191188888888,-0.91885376
174,1778291848660,-0.1994131255555555,0.0960448177777777,1.0724427444444444,-0.4385494633333333,-0.1365288611111111,-0.7843933111111111
175,1778291848670,-0.212092339,0.0539369392,0.9603404,-0.260044857,-0.0703903201,-0.68053589
176,1778291848680,-0.2268561355555555,0.0017984253333333,0.8648582377777778,-0.3361612955555555,0.0339762371111111,-0.6290300177777778
177,1778291848690,-0.1314974322222222,-0.0824560444444444,0.783004308888889,-0.9780985666666666,0.4723324311111111,-0.4239095044444444
178,1778291848700,-0.06542562,-0.08671378,0.8133488933333334,-1.2832370555555557,0.6204037222222222,-0.3757392022222222
179,1778291848710,-0.014200404,-0.0290618657777777,1.0315362666666668,-1.4669376333333333,0.5637664833333333,-0.3155517577777778
180,1778291848720,0.0267062496666666,0.04153937,1.2873896333333334,-1.3141937333333336,0.27152507,-0.2683258033333333
181,1778291848730,0.0356691666666666,0.0742706735555555,1.3880499444444443,-1.0258636,-0.02532959,-0.27153015
182,1778291848740,-0.0019702137777777,0.0220959495555555,1.3983552333333331,-0.2754991177777778,-0.7371063388888888,-0.3172098777777778
183,1778291848750,-0.0661309222222222,-0.0693715816666666,1.3199038666666665,0.3071441733333333,-1.1424357333333337,-0.3444925933333333
184,1778291848760,-0.147929519,-0.179125895,1.1425173789999998,0.7083893,-1.3494568,-0.34875488
185,1778291848770,-0.2485910444444444,-0.2976875766666667,0.8609681011111111,0.8096568000000001,-1.2583736666666665,-0.1949988491111111
186,1778291848780,-0.26396614,-0.3057544,0.7018965,0.6567383,-0.9995117,-0.021728516
187,1778291848790,-0.1525674893333333,-0.3040192133333333,0.5659296111111112,0.1055111344444444,-0.6272091444444444,0.1090816926666666
188,1778291848800,-0.1017352779999999,-0.2845222177777777,0.5280190555555555,-0.4107937233333333,-0.3527187888888889,0.1915842711111111
189,1778291848810,-0.0597443177777777,-0.2573500422222222,0.7418680044444445,-0.8154703666666667,-0.1213785866666666,0.2357330333333333
190,1778291848820,-0.0093742427777777,-0.2090132533333333,1.139749226666667,-1.1539289666666666,0.2405768511111111,0.2723558155555555
191,1778291848830,0.0122521384444444,-0.1853397433333333,1.2865635222222225,-1.0441504444444445,0.2971530488888889,0.2509918088888889
192,1778291848840,0.022679755,-0.1310093733333333,1.4453769666666667,-0.3862932044444445,0.18446858,0.12268914
193,1778291848850,0.0301914538888888,-0.1062513888888889,1.3860707444444444,0.0663926877777777,0.0327284072222222,0.054748535
194,1778291848860,0.0524006032222222,-0.1120412271111111,1.1654700444444446,0.4010145277777778,-0.2132297094444444,-0.0424296066666666
195,1778291848870,0.0535661411111111,-0.1265625633333333,0.9465234555555556,0.6478000222222222,-0.5736423066666666,-0.1826917844444444
196,1778291848880,0.0186923186666666,-0.1560801722222222,0.856153888888889,0.6598714444444445,-0.76586236,-0.2432929133333333
197,1778291848890,-0.0627414653333333,-0.1934890066666666,0.8439785,0.6164296666666667,-0.9000854500000001,-0.2567901633333334
198,1778291848900,-0.166331062,-0.210255369,0.85412786,0.5337951719999999,-0.937619016,-0.208782962
199,1778291848910,-0.1907490233333333,-0.2055562188888889,0.85229034,0.3581068266666666,-0.8215518577777777,-0.0868191193333333
200,1778291848920,-0.16756359,-0.19775918,0.84625614,0.1145172099999999,-0.6405182,0.035812378
201,1778291848930,-0.0183632611111111,-0.1308203,0.8929939488888888,-0.23680115,-0.3784603422222222,0.0961201972222222
202,1778291848940,0.0684127422222222,-0.1224684955555555,0.9742922111111112,-0.4190758611111111,-0.1219177233333333,0.085761175
203,1778291848950,0.0863102366666666,-0.1366505822222222,1.0184395,-0.4346364333333333,-0.061731974,0.0810852053333333
204,1778291848960,0.1506067766666666,-0.13666389,1.0628578000000002,-0.3169250466666666,0.0048573833333333,0.1015065506666666
205,1778291848970,0.2580190377777777,-0.1453953877777777,1.091466977777778,-0.1139322877777777,0.2544911722222222,0.1049346911111111
206,1778291848980,0.2673331477777778,-0.1442564744444444,0.9840670444444446,0.0127224394444444,0.4016164155555555,-0.0535498722222222
207,1778291848990,0.182963918,-0.1188684499999999,0.8853053000000001,0.0567245484999999,0.4255523699999999,-0.285369875
208,1778291849000,0.1028662533111111,-0.1012624277777777,0.8829462333333333,0.0272793238888888,0.39060296,-0.3685845288888889
209,1778291849010,-0.0593647936444444,-0.0594608816666666,0.9497233222222222,-0.0394829643333333,0.2399800666666666,-0.4314371711111111
210,1778291849020,-0.1150375077777777,-0.0390415158888888,1.006480011111111,-0.0498352051111111,0.1676618799999999,-0.4330342555555556
211,1778291849030,-0.1455179233333333,-0.0063098695555555,1.0895677,0.04059177,0.0957014311111111,-0.3409389977777778
212,1778291849040,-0.1289757322222222,0.0161982691111111,1.117335922222222,0.1951768611111111,0.0883619522222222,-0.18854777
213,1778291849050,-0.0970717458888888,0.0250796133333333,1.109580522222222,0.2833557,0.107299805,-0.09681702
214,1778291849060,-0.01783427302,0.0176218005999999,1.0610756,0.39957276,0.154171752,0.069573975
215,1778291849070,0.0253234702,0.0216894626666666,1.018072766666667,0.42645264,0.1705017066666666,0.1451772066666666
216,1778291849080,0.0822163377777777,0.0254178334444444,0.9231893444444444,0.4144473644444444,0.15884399,0.2346089666666666
217,1778291849090,0.113184644,0.0065971060666666,0.8859564466666667,0.3499399866666667,0.1081949833333333,0.27638754
218,1778291849100,0.120913066,0.0009021506,0.8842071,0.3249054,0.08866882,0.2872162
219,1778291849110,0.120913066,0.0009021506,0.8842071,0.3249054,0.08866882,0.2872162
220,1778291849120,0.1203436037777778,0.0039673887111111,0.8849395666666666,0.2900441488888889,0.0749901652222222,0.2907053688888888
221,1778291849130,0.1118151711111111,0.0036827445888888,0.8920041755555554,0.2271915,0.0535040962222222,0.2954389788888888
222,1778291849140,0.076535034,-0.0001145835666666,0.9154469366666668,0.1420237253333333,0.0542144786666666,0.27816264
223,1778291849150,0.0425021795555555,0.0037904149333333,0.9269034,0.1072235112222222,0.1036936466666666,0.2447831922222222
224,1778291849160,0.04227163,0.0217841713333333,0.9404088822222224,0.0322452124444444,0.1498599577777777,0.2095133455555555
225,1778291849170,0.0456341277777777,0.0247125313333333,0.9431205222222222,0.0114017064666666,0.1371951611111111,0.1943630633333333
226,1778291849180,0.0580817344444444,0.0154660064444444,0.9463193111111112,-0.0246988931666666,0.0717976887777777,0.1770799377777777
227,1778291849190,0.074236105,0.023235045,0.95205508,-0.0639266979999999,-0.0045547484999999,0.1609802199999999
228,1778291849200,0.09642538,0.033648144,0.9678784733333332,-0.0758158383333333,-0.0588887533333333,0.1448211633333333
229,1778291849210,0.1192052,0.029581206,0.9856135,-0.0754021538888888,-0.1115519202222222,0.1245235844444444
230,1778291849220,0.1182696955555555,0.0236417033333333,1.0068188777777776,-0.0674709744444444,-0.1349300777777778,0.1032206195555555
231,1778291849230,0.0771046688888888,-0.0014698828888888,1.0924561666666666,-0.0350545237777777,-0.1510298022222222,0.0376485186666666
232,1778291849240,0.06429223,-0.010079199,1.122896,-0.0087754987777777,-0.1450551377777777,0.0208333328888888
233,1778291849250,0.07714528,-0.0108118081666666,1.1142312,0.0299987793333333,-0.1116180406666666,0.0011901853333333
234,1778291849260,0.09976092,-0.0072049340555555,1.0754804666666666,0.0560438377777777,-0.0469919837777777,-0.026506212
235,1778291849270,0.11200511,0.0037097054999999,1.037232,0.07136536,-0.0184021,-0.04888916
236,1778291849280,0.1060118566666666,0.0033030463666666,1.0142631666666668,0.0683492037777777,-0.0224253341111111,-0.0678253182222222
237,1778291849290,0.0775792511111111,0.0049706423222222,0.9885961333333332,0.0473395444444444,-0.0369279652222222,-0.1219685866666666
238,1778291849300,0.0518169733333333,-0.0064194411777777,0.9982908,0.0150197337777777,-0.0209570993333333,-0.1211429166666666
239,1778291849310,0.0392751776666666,-0.0236249393333333,1.022303,-0.0262959793333333,-0.0036773682999999,-0.1092478433333333
240,1778291849320,0.036103133,-0.042416632,1.052973,-0.05328369,0.0012969971,-0.09788513
241,1778291849330,0.0229777058888888,-0.0515560062222222,1.0893373333333334,-0.0544009743333333,0.0004696318,-0.0776451956666666
242,1778291849340,0.0093416135,-0.052496611,1.11380447,-0.0293029786399999,-0.0128662106,-0.048562622
243,1778291849350,0.0170259313333333,-0.0403831638888888,1.0629395444444445,0.0282219771111111,-0.077819825,-0.0283423531111111
244,1778291849360,0.02239511,-0.0367227133333333,1.0270222333333332,0.0674641913333333,-0.1565297466666666,-0.0169169109999999
245,1778291849370,0.02206847,-0.03948931,1.0153877,0.076690674,-0.19737244,-0.009460449
246,1778291849380,0.0473157238888888,-0.053888635,0.9794977555555556,0.0539754236666666,-0.1555904811111111,-0.0018886989544444
247,1778291849390,0.0634782186666666,-0.0608033946666666,0.9496145833333332,0.0202382403333333,-0.1242218,-0.0004119872933333
248,1778291849400,0.0682373233333333,-0.06930435,0.9310665666666668,-0.0633951826666666,-0.1148122133333333,-0.003967285
249,1778291849410,0.0614851923333333,-0.0889914533333333,0.9424554333333334,-0.1993865966666667,-0.1236928266666666,-0.0101826983333333
250,1778291849420,0.0460854316,-0.100258479,0.99051858,-0.26472473,-0.1478424,-0.012664795
251,1778291849430,-0.009128831,-0.1217768499999999,1.1394919,-0.2727779833333333,-0.2144707555555555,-0.0031873915555555
252,1778291849440,-0.0237860131111111,-0.1266579655555555,1.1855917666666669,-0.2391645677777777,-0.2350667333333333,0.0058085123999999
253,1778291849450,-0.0312436182222222,-0.1262504444444444,1.2621573666666666,-0.0800849091111111,-0.2515241777777778,0.0383589013333333
254,1778291849460,-0.0051426037777777,-0.1317419888888888,1.287241311111111,0.0796525760444444,-0.2441897888888888,0.0603756366666666
255,1778291849470,0.01047739,-0.13711134,1.2836078,0.14381409,-0.23945618,0.06510925
256,1778291849480,0.0409301564444444,-0.1813405666666666,1.2364902,0.2144165044444444,-0.24796719,0.0444539382222222
257,1778291849490,0.0522791068888888,-0.2104784744444444,1.2100231888888888,0.2302771688888889,-0.2571343311111111,0.0307261151111111
258,1778291849500,0.0491189883333333,-0.2634113866666667,1.2155147,0.1850569022222222,-0.2869737444444444,0.0314314102222222
259,1778291849510,0.0507990782857142,-0.3071502885714285,1.2701135428571428,0.2166987857142857,-0.3101414342857143,0.0486689985714285
260,1778291849520,0.05843447,-0.3235703,1.344377,0.32170105,-0.31774902,0.0688324
261,1778291849530,0.0040090151428571,-0.3471048828571428,1.3652616571428573,0.6053706642857143,-0.40845162,0.1306217742857142
262,1778291849540,-0.023569461,-0.3587153,1.368295,0.76053239125,-0.4806079825,0.17170143125
263,1778291849550,-0.0200035469888888,-0.3779145044444444,1.2297921777777776,1.029988627777778,-0.7059173444444444,0.2709977944444444
264,1778291849560,0.00453840504,-0.38270126,1.1493753444444446,1.1587626666666668,-0.8702019422222222,0.3133765444444444
265,1778291849570,0.0529697211111111,-0.3831347,1.0089073,1.1850416666666668,-1.0364990333333333,0.3176981622222222
266,1778291849580,0.0650238,-0.3604241866666666,0.9654374533333334,1.1691233333333333,-1.0905914333333333,0.3106536833333333
267,1778291849590,0.06404802,-0.35432276,0.95876676,1.162735,-1.0916595,0.30958557
268,1778291849600,0.0603592311111111,-0.3352317288888888,0.8418909244444445,0.9698028488888888,-0.7538503000000001,0.3472306988888889
269,1778291849610,0.0510579212222222,-0.3275707111111111,0.8119529877777778,0.8500773066666666,-0.49457804,0.3669382733333333
270,1778291849620,0.0485011708,-0.32149662,0.812991356,0.7573928750000001,-0.2037658674999999,0.38282013
271,1778291849630,0.0997885711111111,-0.3113278544444444,0.8057157166666666,0.7029469722222221,-0.0511949327777777,0.3764580666666666
272,1778291849640,0.15483704,-0.30136186,0.8029358,0.6801605,-0.03225708,0.3575287
273,1778291849650,0.2504670822222222,-0.2821626188888889,0.8613744333333333,0.6557803666666666,-0.2602165999999999,0.1477847648888889
274,1778291849660,0.2341962233333333,-0.26756022,0.9042607866666668,0.6675618333333333,-0.3956807333333333,0.0056304933333333
275,1778291849670,0.1480439516666666,-0.23298505,0.9175218733333332,0.7028367577777778,-0.4105970533333333,-0.0597144226666666
276,1778291849680,0.067125535,-0.1514154388888889,0.8958270777777779,0.7800038555555555,-0.2021077457777777,-0.0962880437777777
277,1778291849690,0.07051551,-0.11270505,0.8723703,0.7936096,-0.045578003,-0.082962036
278,1778291849700,0.1081542033333333,-0.1188880677777777,0.8435173888888889,0.6941307733333333,0.2723524331111111,-0.0991855182222222
279,1778291849710,0.2223184233333333,-0.13955181,0.7984214433333333,0.4918534777777778,0.7419026655555556,-0.1555311355555555
280,1778291849720,0.39458218,-0.1437960611111111,0.8223939022222222,0.1991407555555555,1.1082390333333334,-0.3800065666666666
281,1778291849730,0.42500782,-0.12649551,0.85601956,0.0745697,1.2109222,-0.5389099
282,1778291849740,0.39535505,-0.1152684,0.8838416,0.04473877,1.206665,-0.6512909
283,1778291849750,0.0939033327777777,0.0528065702222222,1.0349939666666668,0.4252726244444444,0.7902594611111111,-0.8597903688888889
284,1778291849760,-0.0261055073333333,0.1399893977777777,1.0861918333333334,0.6485019288888889,0.6240776866666666,-0.8674858777777777
285,1778291849770,-0.0294272189999999,0.2330021599999999,0.95901173,1.0865631,0.41356659,-0.71813965
286,1778291849780,-0.0025403653333333,0.3093648911111111,0.8216880711111111,1.2752939666666667,0.2992248566666666,-0.5870259800000001
287,1778291849790,0.0341094157777777,0.3326453966666667,0.6842699777777778,1.3182593666666669,0.1906873922222222,-0.4300706688888889
288,1778291849800,0.053390724,0.2879555866666667,0.5448460666666667,1.1897176333333332,0.06859843,-0.3139546733333333
289,1778291849810,0.055749796,0.2341003,0.4381932,0.9965515,-0.05781555,-0.22198486
290,1778291849820,0.1633246853333333,0.3115884722222222,0.3886634122222222,0.4712575277777778,-0.3079817033333333,-0.1458841938888889
291,1778291849830,0.2346571455555555,0.37669748,0.3754436233333333,0.1358150935555555,-0.4650488988888889,-0.126949735
292,1778291849840,0.22829854,0.40640485,0.41805813,-0.024520874,-0.542511,-0.14103699
293,1778291849850,0.2124094819999999,0.5111053480000001,0.631998808,-0.25375519,-0.609945705,-0.0713027985
294,1778291849860,0.2253967877777778,0.5511303511111111,0.68466438,-0.2233649273,-0.5702226444444444,-0.0363956033333333
295,1778291849870,0.2078777966666666,0.8266717,0.9390801666666666,0.2042304130222222,-0.2409905333333333,0.1214480933333333
296,1778291849880,0.1383216433333333,0.8994142722222223,0.9590116333333332,0.4144422733333333,-0.1032138444444444,0.1441735155555555
297,1778291849890,0.0272076211111111,0.9669364222222224,0.8835567722222222,0.5365312377777778,-0.0301225464444444,0.14518229
298,1778291849900,-0.0286005935555555,0.9793017555555557,0.7761172166666667,0.5880245622222222,0.0207807754444444,0.1403893366666666
299,1778291849910,-0.031990573,0.9606582,0.7093408,0.54808044,0.017822266,0.13328552
300,1778291849920,0.0226251391111111,0.8566630222222222,0.4988550711111111,0.1728634311111111,0.072565714,0.0946367065555555
301,1778291849930,0.07734852,0.7982384,0.36680666,-0.14968872,0.14299011,0.058181763
302,1778291849940,0.1020714936,0.69551517,0.401755038,-0.8705474760000002,0.312042236,-0.1570068368
303,1778291849950,0.0453906176666666,0.6057590333333334,0.6234457,-1.2822384111111111,0.4365844711111111,-0.3078036888888888
304,1778291849960,0.019141147,0.56687254,0.7572979,-1.4588928,0.50730896,-0.3844452
305,1778291849970,-0.0343076467777777,0.5454497444444444,0.926809211111111,-1.4197116222222224,0.5170135555555555,-0.40468174
306,1778291849980,-0.14169364,0.5064689,1.2744557,-1.2628784,0.5046387,-0.41532898
307,1778291849990,-0.0993900286666666,0.4960962433333333,1.3809452333333334,-0.8559570233333332,0.2970987949999999,-0.3121795666666667
308,1778291850000,-0.0192849378222222,0.48156055,1.358167188888889,-0.3935106077777778,0.0642801916666666,-0.1650577133333333
309,1778291850010,0.00410634016,0.47210536,1.27692046,-0.19005432,0.067144775,-0.0352447502
310,1778291850020,0.009621902,0.4754738,1.2565169,-0.13529968,0.092926025,0.006515503
311,1778291850030,0.0147200897777777,0.4702942111111111,1.2372499444444445,-0.1160057895555555,0.1245286727777777,0.0282948812222222
312,1778291850040,0.057335817,0.4176722111111111,0.9893554111111112,-0.1339942102222222,0.3552754733333333,0.1172468411111111
313,1778291850050,0.0501766818888888,0.4070966555555555,0.8805601488888889,-0.3420766233333333,0.5617574055555556,0.1484408944444444
314,1778291850060,0.039397538,0.4050625,0.83832496,-0.45381165,0.65005493,0.16525269
315,1778291850070,0.0623392953333333,0.4379968811111111,0.8303518511111112,-0.6443769666666667,0.7256215444444445,0.1873151955555555
316,1778291850080,0.1177128477777777,0.4716085622222222,0.8370635466666667,-0.7572445444444446,0.7177632777777778,0.1673126244444444
317,1778291850090,0.1313797411111111,0.4654803244444443,0.9749430777777778,-0.7229156333333333,0.6883985888888888,0.1043446844444444
318,1778291850100,0.1120045833333333,0.4486680033333333,1.1239131999999998,-0.59147305,0.6956210722222222,0.0678846572222222
319,1778291850110,0.0524139136666666,0.4578606233333333,1.2444364,-0.2673950203333333,0.7414856166666667,0.039896647
320,1778291850120,-0.0868424173,0.521795661,1.28527896,0.0900588973,0.707044986,0.0639404297
321,1778291850130,-0.2657969,0.60909474,1.2809216,0.3648529,0.61756897,0.14819336
322,1778291850140,-0.6587424022222222,0.9550862444444445,1.1281289444444442,0.6906399177777778,0.37610033,0.786704178888889
323,1778291850150,-0.6914735422222222,1.157288088888889,0.9718508666666666,0.8175828733333333,0.2239481611111111,1.5497318111111111
324,1778291850160,0.2605262266666666,1.3260800666666666,0.6573838222222222,0.3076748337777777,0.4947679166666666,2.1704186111111112
325,1778291850170,0.8013843555555555,1.2519409777777777,0.5535915677777778,-0.2708282495555555,0.6507127444444444,1.801723888888889
326,1778291850180,0.9500968,1.1660328,0.53325343,-0.50068665,0.65805054,1.4968262
327,1778291850190,0.5290169744444444,0.6929415333333333,0.6304150577777778,-1.0068630722222225,0.3533816877777778,0.3071543411111111
328,1778291850200,0.2226844733333333,0.4378069366666666,0.7331767566666667,-1.1852976666666666,0.1461893733333333,-0.2061920199999999
329,1778291850210,-0.1039455555555555,0.377471041111111,0.9664684166666668,-1.1847042666666665,-0.2031046533333333,-0.4325036
330,1778291850220,-0.42717919,0.314151395,1.3119175,-1.011749275,-0.47407531,-0.504287715
331,1778291850230,-0.4752517088888889,0.27705391,1.4805474777777778,-0.8233523866666667,-0.4294857355555555,-0.4306047188888888
332,1778291850240,-0.2805893955555555,0.2355909211111111,1.5473519333333334,-0.28810798,-0.0324859622222222,-0.2300906744444444
333,1778291850250,-0.1582079991111111,0.2621120722222222,1.5120180666666667,0.0053151466666666,0.2088572166666666,-0.1095987966666666
334,1778291850260,0.0703796684444444,0.34148542,1.355482788888889,0.3435957166666667,0.4169362355555555,-0.0207112631611111
335,1778291850270,0.1664160133333333,0.3804263555555555,1.2124378333333334,0.62660217,0.3549160355555555,0.0146263968044444
336,1778291850280,0.18241484,0.3912736,1.1565757,0.74354553,0.2564392,0.026229858
337,1778291850290,0.1780216155555555,0.4148926577777778,0.9858708555555556,0.9076605866666668,-0.2105695977777778,-0.0412462026666666
338,1778291850300,0.15666623,0.4190956,0.8483311,0.956604,-0.49990845,-0.09362793
339,1778291850310,0.0671658062222222,0.3611727,0.7617996444444445,0.7321336666666667,-0.6318783277777777,-0.1143358022222222
340,1778291850320,-0.0158818944,0.302460292,0.737675784,0.422378546,-0.5923111019999999,-0.078120425
341,1778291850330,-0.0309318404444444,0.2779223422222222,0.7821097555555556,0.1088290755555555,-0.3231336822222222,0.0171644411111111
342,1778291850340,-0.0219423075111111,0.2834410222222222,0.8330231955555555,-0.0648125527777777,-0.0964660655555555,0.0851660822222222
343,1778291850350,0.0016907547,0.29255188,0.88664913,-0.18164062,0.09825134,0.14607239
344,1778291850360,0.0609153860777777,0.3414719511111111,0.953574201111111,-0.1840074333333333,0.1900956866666666,0.17613559
345,1778291850370,0.0946900348888888,0.3989206088888888,0.9808003266666666,-0.1223992255555555,0.1651238311111111,0.1717546222222222
346,1778291850380,0.1050618275555555,0.4307706733333333,0.9799194422222222,-0.08363342,0.114227295,0.1625824
347,1778291850390,0.1552843111111111,0.4828355,0.9781289444444444,-0.0075785312777777,-0.0036027696666666,0.0984836144444444
348,1778291850400,0.1739953,0.5019535,0.977925,0.03515625,-0.073791504,0.045928955
349,1778291850410,0.14662021,0.5213559566666667,0.9588481666666668,0.0468699136666666,-0.1014912946666666,-0.0396474183333333
350,1778291850420,0.0882340627,0.535401053,0.925916657,0.0392532347,-0.118215946,-0.1273940979999999
351,1778291850430,0.0317906121111111,0.5419111733333334,0.9011699511111112,-0.0285339353333333,-0.0963507783333333,-0.1244506848888889
352,1778291850440,0.0069377452333333,0.57041114,0.9155278,-0.1638793933333333,-0.051783244,-0.064860026
353,1778291850450,0.0027888897,0.5953043,0.950103,-0.21679688,-0.036514282,-0.02331543
354,1778291850460,0.0231130299666666,0.6539198666666667,1.0489455666666665,-0.2247806133333333,0.0085805256666666,0.0729827866666666
355,1778291850470,0.0456344766666666,0.699816,1.1212002,-0.1790940988888889,0.0622728137777777,0.1452416288888888
356,1778291850480,0.0608749433333333,0.7383220800000001,1.1584059333333334,-0.0797271726666666,0.1298573806666666,0.19862874
357,1778291850490,0.06307121,0.75516224,1.1669474,-0.0127326116888888,0.1671379911111111,0.22176954
358,1778291850500,0.063315414,0.7595548,1.1674358,0.0005187988,0.17282104,0.22224426
359,1778291850510,0.072380254,0.7756802,1.1482595142857144,0.1283547568,0.1556985042857142,0.2100590314285714
360,1778291850520,0.0950566002222222,0.77223262,1.1415664666666665,0.32857598,0.0188293457777777,0.14826118
361,1778291850530,0.108343616,0.7657796,1.1364406,0.39733887,-0.042907715,0.11303711
362,1778291850540,0.12164412,0.7528431,1.0530959,0.5418599466666667,-0.1853654677777777,-0.0287611217777777
363,1778291850550,0.10895335,0.75223494,1.0233203,0.5560608,-0.20429993,-0.0680542
364,1778291850560,0.0939982163333333,0.7459297411111111,1.0029280733333334,0.5548214288888889,-0.167604236,-0.1576571988888888
365,1778291850570,0.0339196521111111,0.7160590499999999,0.9118950355555556,0.5330420533333334,-0.0406544999999999,-0.24697028
366,1778291850580,0.0506918772222222,0.713198788888889,0.8673137555555556,0.5188361166666667,0.1052246097777777,-0.2899271611111111
367,1778291850590,0.0778635483333333,0.7054430555555555,0.8328744311111111,0.505340578888889,0.1722208666666666,-0.3015238455555555
368,1778291850600,0.0983102222222222,0.6907592266666666,0.79467939,0.4645707866666667,0.2303398966666666,-0.3050181088888888
369,1778291850610,0.1150012211111111,0.6684548666666665,0.7493250555555555,0.3766886366666667,0.2599317755555555,-0.3165605377777777
370,1778291850620,0.1301322911111111,0.6535261888888889,0.7255833111111111,0.31158447,0.25697327,-0.32691956
371,1778291850630,0.1147839711111111,0.6451738777777778,0.7269942711111111,0.1830393486666666,0.128957115,-0.37982178
372,1778291850640,0.091788642,0.6331744,0.75022014,0.104034424,-0.0624338766666666,-0.4217224133333333
373,1778291850650,0.0810501082222222,0.6158188888888889,0.8253489055555555,0.1261664511111111,-0.3147803388888889,-0.4637417244444444
374,1778291850660,0.0871718549999999,0.59091175,0.879326185,0.23088837,-0.513748175,-0.4965591299999999
375,1778291850670,0.09492024,0.5717535,0.9019017,0.30625916,-0.6170807,-0.5128021
376,1778291850680,0.12624094,0.4943878266666666,0.8365756433333333,0.4024285188888889,-0.8748202822222222,-0.6276194222222222
377,1778291850690,0.14633608,0.4312580533333333,0.7864223200000001,0.37638855,-0.9467824333333332,-0.6832478833333333
378,1778291850700,0.2283115133333333,0.3268284222222222,0.6456009222222222,0.1526845322222222,-0.9953155888888888,-0.8231506322222222
379,1778291850710,0.2612590288888889,0.2286091088888888,0.5468662333333333,-0.2307569699999999,-1.0236630333333332,-0.9948425244444444
380,1778291850720,0.20535748,0.13123025,0.5133626,-0.7680664,-1.0037842,-1.1514282
381,1778291850730,0.0691451766666666,0.1215891611111111,0.7292314888888889,-1.4323204777777778,-0.8755272833333333,-1.1588287111111113
382,1778291850740,0.0196831286666666,0.13400911,0.8863768088888889,-1.6264292111111112,-0.7813127322222222,-1.1155073111111111
383,1778291850750,-0.0546259979999999,0.1793700899999999,1.1909873,-1.54262088,-0.57415466,-0.94753724
384,1778291850760,-0.1045837933333333,0.2210431388888888,1.3171792555555557,-1.2428809333333333,-0.4756452777777777,-0.8324432333333333
385,1778291850770,-0.12595266,0.23373477,1.3465749,-1.0871124,-0.4370575,-0.78178406
386,1778291850780,-0.18977325,0.2530962755555556,1.269736311111111,-0.3914896511111111,-0.2063106955555555,-0.5059407533333333
387,1778291850790,-0.194116984,0.2323183999999999,1.13734342,-0.073080446,-0.0423767091999999,-0.340771484
388,1778291850800,-0.1454354866666666,0.096574182,0.7853241666666667,0.015970866,0.2076161673333333,-0.10729472
389,1778291850810,-0.1224124999999999,0.040929638,0.6543065,0.0074462889999999,0.29266357,-0.02810669
390,1778291850820,-0.1495309444444444,-0.0217674064444444,0.5212140555555556,-0.2946099145555556,0.3977661122222222,0.1186625188888888
391,1778291850830,-0.0947265055555555,-0.0142695336666666,0.61879564,-0.7699008522222223,0.5204450688888889,0.3476935488888888
392,1778291850840,-0.0401659224666666,0.010421395,0.7484713133333334,-1.067586266666667,0.6053110666666667,0.5066528299999999
393,1778291850850,-0.0185938071777777,0.0395465148888888,0.9607198622222224,-1.0669318333333333,0.61750625,0.6249593222222223
394,1778291850860,-0.0352981103333333,0.0539999353333333,1.075996377777778,-0.9878641777777778,0.6008741622222222,0.6838480844444444
395,1778291850870,-0.035064416,0.06594472,1.15467152,-0.6093383840000001,0.567492676,0.782562256
396,1778291850880,0.0198319317777777,0.0515589422222222,1.0818121333333337,-0.32331848,0.5499165833333334,0.8051096566666667
397,1778291850890,0.072982428,0.0263128973333333,0.9875116222222222,-0.1455417183333333,0.5270707888888889,0.7675832133333333
398,1778291850900,0.21101043,-0.011259254,0.8002649222222221,-0.0901489249999999,0.3964012955555555,0.5547739688888889
399,1778291850910,0.22121977,-0.0219569976666666,0.7472098333333332,-0.10494995,0.30171204,0.41184998
400,1778291850920,0.16764965,-0.057466994,0.7453386533333334,-0.1891615111111111,0.0642123755555555,0.1506822344444444
401,1778291850930,0.0933746544444444,-0.0744153266666666,0.8215385777777778,-0.2268541088888889,-0.0839742044444444,0.0430857355555555
402,1778291850940,0.0457427692,-0.0674086926,0.8872333600000001,-0.22115631,-0.1350448644,0.0037948607699999
403,1778291850950,-0.0037062489999999,-0.0633116124444444,0.9277170444444444,-0.1240573477777777,-0.1041022406666666,0.0023074678666666
404,1778291850960,-0.0173333896666666,-0.0701721077777777,0.936516471111111,-0.0272284611111111,-0.0854051366666666,0.0169898137777777
405,1778291850970,-0.0019840402777777,-0.0602468977777777,0.9443803777777776,0.04822625,-0.01496887,0.0232120087777777
406,1778291850980,0.0137991018333333,-0.0494812328888888,0.950238142222222,0.0735524488888888,0.08469815,0.0164608422444444
407,1778291850990,0.0420274282222222,-0.05239646,0.9382262644444443,0.1109670011111111,0.2644856822222222,0.0015936957555555
408,1778291851000,0.0646434093333333,-0.064368794,0.8644524555555555,0.1085934126666666,0.3726738777777778,-0.018052843
409,1778291851010,0.072223375,-0.071338856,0.7857306666666667,0.0610656736666666,0.4226226766666666,-0.0385894779999999
410,1778291851020,0.0547060989999999,-0.0895616077777777,0.7338685822222222,-0.0144517686666666,0.4322102855555555,-0.052023994
411,1778291851030,0.010233187,-0.12600711,0.67822284,-0.18963623,0.41516113,-0.034500122
412,1778291851040,0.014137322,-0.13589032,0.6755381,-0.2306366,0.3959961,-0.034500122
413,1778291851050,0.0076833157777777,-0.1437006577777777,0.7159434333333333,-0.7912716322222222,0.4312591522222222,-0.0892401822222222
414,1778291851060,-0.0296849022222222,-0.1427786322222222,0.7833167888888889,-1.0090552355555555,0.4588436511111111,-0.1025611055555555
415,1778291851070,-0.0603543922222222,-0.1436192622222222,0.8778621622222222,-1.1716257666666667,0.4931691422222222,-0.0683559846666666
416,1778291851080,-0.0355685833333333,-0.15549706,0.9500210933333332,-1.2506307,0.4425048866666666,-0.0250956219999999
417,1778291851090,-0.0079631211111111,-0.1604734,1.0175299666666666,-1.249440511111111,0.3018256311111111,-0.01669142
418,1778291851100,-0.0436502615555555,-0.1586836222222222,1.0607011222222222,-1.2202674222222225,0.1796773277777777,-0.0125478110555555
419,1778291851110,-0.0739270923333333,-0.15866963,1.0970658666666668,-1.1691386,0.0966440833333333,-0.0044962565
420,1778291851120,-0.0794996888888888,-0.16867589,1.156169022222222,-0.9688110444444444,-0.0449846068888888,0.0293002657777777
421,1778291851130,-0.0766656911111111,-0.1737332844444444,1.1912457555555551,-0.8506842933333334,-0.1171298577777777,0.053741455
422,1778291851140,-0.0493854897777777,-0.17877704,1.2136985999999998,-0.6558600444444445,-0.0910881893333333,0.0932786727777777
423,1778291851150,-0.0234232516,-0.178856952,1.19750379,-0.46058196,-0.0130859376999999,0.1293991095
424,1778291851160,-0.025644409,-0.17603913,1.1571854,-0.363266,0.039123535,0.14393616
425,1778291851170,-0.0290069062444444,-0.1754425344444444,1.1187331333333337,-0.3092990433333333,0.1447652161111111,0.1634080677777777
426,1778291851180,-0.0035294481555555,-0.1689750477777777,1.1025981555555555,-0.29101223,0.1872575533333333,0.1737111366666666
427,1778291851190,-0.0134005653333333,-0.1643241366666666,1.0691215666666667,-0.2833709733333333,0.2393951466666667,0.14198812
428,1778291851200,-0.0253193222666666,-0.1730692999999999,1.0275096,-0.3020121266666666,0.2873331766666667,0.0933329266666666
429,1778291851210,-0.0048996108,-0.14711744,1.0378418,-0.34143066,0.31289673,0.08694458
430,1778291851220,0.0375937548444444,-0.1539782711111111,1.1241835111111111,-0.3200615777777778,0.2956695566666666,0.0371721054444444
431,1778291851230,0.0716807015555555,-0.1532731377777778,1.2019559666666666,-0.2160746266666666,0.3091684966666667,-0.044087728
432,1778291851240,0.0430587136,-0.125347916,1.16548338,-0.0772399904,0.35114441,-0.119940186
433,1778291851250,0.0422455344444444,-0.1156887122222222,1.0692304444444445,0.0191650395555555,0.3066270611111111,-0.1776699466666666
434,1778291851260,0.04488977,-0.11148559,1.0244185,0.04260254,0.26922607,-0.19802856
435,1778291851270,0.033215215,-0.1174651933333333,1.0101816,0.0434299053333333,0.2528923855555555,-0.2066684266666666
436,1778291851280,-0.0139976789999999,-0.1208549955555555,0.9659806622222222,0.0060831705777777,0.1455400277777777,-0.2743021644444444
437,1778291851290,-0.04002904375,-0.12303233875,0.976217535,-0.0576667774,0.1400566075,-0.29495239
438,1778291851300,-0.0772978631428571,-0.1384183385714285,1.0114486,-0.1081324971428571,0.1302817171428571,-0.2958701028571428
439,1778291851310,-0.1027838414285714,-0.1557814071428571,1.0500788857142858,-0.1037990022857142,0.1066240557142857,-0.2761688357142857
440,1778291851320,-0.1159625734285714,-0.1640100928571428,1.061235757142857,-0.0468880788571428,0.0388946531857142,-0.2336295028571428
441,1778291851330,-0.1148473993333333,-0.1814084866666666,0.9943182333333334,-0.014923096,-0.0162760418,-0.1854146333333333
442,1778291851340,-0.091844375,-0.186654955,0.9757902,-0.04189300475,-0.21202088125,-0.13829994125
443,1778291851350,-0.0707265322222222,-0.1823025177777777,0.9832817444444444,-0.0589023155555555,-0.3107672888888889,-0.12144131
444,1778291851360,-0.06628007,-0.17969906,0.9909829,-0.06552124,-0.3401184,-0.12239075
445,1778291851370,-0.0759085048999999,-0.153487547,1.01613325,-0.137907409,-0.581877132,-0.097296143
446,1778291851380,-0.1024008333333333,-0.1493546633333333,1.0189687,-0.18341573,-0.6687520333333334,-0.0634358733333333
447,1778291851390,-0.1349954355555555,-0.1540454988888888,1.0287848555555554,-0.2489318866666666,-0.75007121,0.0267588299999999
448,1778291851400,-0.1341008833333333,-0.179903,1.0720630111111111,-0.3179321333333333,-0.8054639944444444,0.1834733744444444
449,1778291851410,-0.0702256833333333,-0.1926340366666666,1.1079674666666668,-0.3384145133333333,-0.7912546733333333,0.3195292133333333
450,1778291851420,-0.0255089133333333,-0.1971356244444444,1.136291333333333,-0.3214314755555555,-0.7714301266666667,0.3853403688888889
451,1778291851430,-0.0027432636666666,-0.20390158,1.1623100666666666,-0.2947387666666666,-0.7596537333333333,0.4260559
452,1778291851440,-0.0069123395,-0.2037996999999999,1.22204385,-0.193626405,-0.78513335,0.46990966
453,1778291851450,-0.0246675966666666,-0.18270882,1.2825905666666666,-0.0150977233333333,-0.8788519888888888,0.5067816755555555
454,1778291851460,-0.0185658098888888,-0.1688112088888889,1.2927186777777775,0.13883972,-0.9725341933333334,0.5306294666666667
455,1778291851470,0.0638987066666666,-0.1173563111111111,1.2569914666666666,0.3505842333333333,-1.0642632333333333,0.5414055688888889
456,1778291851480,0.1153404755555555,-0.08979129,1.2202475000000002,0.4474589,-1.064858288888889,0.5212860077777778
457,1778291851490,0.2181287833333333,-0.0508237422222222,1.091669988888889,0.4990200555555555,-0.8884887888888888,0.3810221355555556
458,1778291851500,0.2432936011111111,-0.0538067155555555,1.0305470111111112,0.4583028111111111,-0.7033691444444444,0.2683376733333333
459,1778291851510,0.2352269566666666,-0.0698060611111111,0.9952266055555556,0.3562045611111111,-0.5003848555555556,0.1402062288888889
460,1778291851520,0.219073435,-0.081210505,0.985564989,0.270989993,-0.38193207,0.0678695662
461,1778291851530,0.19327644,-0.0942794,0.9874443000000002,0.18374634,-0.27566528,0.013427734
462,1778291851540,0.17838888,-0.0964217488888889,1.0071858333333334,0.1159261088888888,-0.2298583955555555,0.0001729326666666
463,1778291851550,0.1212383266666666,-0.1055469522222222,1.0918735333333334,-0.1323360844444444,-0.0569881848888888,-0.0487043591111111
464,1778291851560,0.09748325,-0.1149701066666666,1.183258588888889,-0.15596008,0.0872412802222222,-0.0867004395555555
465,1778291851570,0.078446834,-0.11236666,1.222091211111111,-0.0948842355555555,0.1961347833333333,-0.1347554511111111
466,1778291851580,0.060752064,-0.105383635,1.2338201,-0.03303528,0.2319335999999999,-0.16552734
467,1778291851590,0.0311674015555555,-0.1156073138888889,1.2392433444444444,0.0862223311111111,0.2251858199999999,-0.17316352
468,1778291851600,0.023289485,-0.13869788,1.2140505,0.3137207,0.24365234,-0.1618042
469,1778291851610,0.0308924363,-0.19602628,1.1510841099999998,0.413374331,0.264479068,-0.135166935
470,1778291851620,0.0359135415555555,-0.24164916,1.092090622222222,0.4786563466666667,0.3333163788888889,-0.0858103466666666
471,1778291851630,0.04220509,-0.24962196,1.0687156,0.4836273199999999,0.37734985,-0.063797
472,1778291851640,0.0771457983333333,-0.2141933633333333,1.00326716,0.4410824277777777,0.5028754244444444,-0.0010019938888888
473,1778291851650,0.0846842855555555,-0.19618751,0.9938032066666668,0.4231516511111111,0.5185631533333334,0.0110694039999999
474,1778291851660,0.0889819455555555,-0.17795041,1.0078629844444444,0.41828918,0.41783142,0.0017140705333333
475,1778291851670,0.1130418,-0.19117037,1.04016025,0.44953918,0.3206253049999999,-0.0158615111
476,1778291851680,0.139168238,-0.219603362,1.07198544,0.5004043699999999,0.2532424949999999,-0.049682616
477,1778291851690,0.1305799055555555,-0.2461918855555555,1.0751003222222222,0.5383097533333333,0.2745463066666667,-0.08545939
478,1778291851700,0.1013063273333333,-0.2648489455555555,1.0500573744444444,0.56884766,0.32461548,-0.11706543
479,1778291851710,-0.0030417348888888,-0.3525462833333333,0.95032025,0.5291341166666668,0.3802507133333333,-0.0889468733333333
480,1778291851720,-0.0645452468888889,-0.4243398444444444,0.8990815666666667,0.4865858333333333,0.3790656211111111,-0.0523698581111111
481,1778291851730,-0.0908220244444444,-0.4813004666666666,0.8566968777777778,0.4314236066666666,0.2954949288888888,0.0077531598888888
482,1778291851740,-0.1063058299999999,-0.5240784777777778,0.8130651388888889,0.2949591755555555,0.1013827856666666,0.1412760411111111
483,1778291851750,-0.16182871,-0.5399278,0.82844025,0.20878601,0.039657593,0.20838928
484,1778291851760,-0.2131075044444444,-0.6014033222222221,0.9165182944444444,0.0152045355555555,0.2600487673333333,0.3851047122222222
485,1778291851770,-0.1381685155555555,-0.6321410666666666,1.1463523666666668,-0.3364562977777778,0.7680647111111111,0.5583869055555556
486,1778291851780,-0.19087173,-0.72577785,1.4803777500000002,-0.42584991,1.29614255,0.6249084500000001
487,1778291851790,-0.3905511833333333,-0.8748018,1.6748852444444444,-0.2460886593333333,1.6966806666666667,0.7708486
488,1778291851800,-0.44554573,-0.8950314,1.685082,-0.009597778,1.893753,0.9391632
489,1778291851810,-0.4081223755555555,-0.7274866422222223,1.6455442666666666,0.6967959935555554,2.003596022222222,1.4085846222222222
490,1778291851820,-0.3218888866666666,-0.6265684666666667,1.5915263333333334,1.2248755666666666,1.9034610666666667,1.6635386555555556
491,1778291851830,0.0160492966666666,-0.4219933666666666,1.2263209333333334,2.144794088888889,1.160491922222222,1.7586466666666665
492,1778291851840,0.3662987222222222,-0.2347888333333333,0.7317391666666667,2.6965365555555554,0.2771470694444444,1.5958370555555554
493,1778291851850,0.4765035,-0.18299502,0.5179993,2.790985,-0.089782715,1.4739227
494,1778291851860,0.6372696722222222,0.072358354,-0.1177021467777777,2.566458822222222,-1.398101823888889,0.7040252666666666
495,1778291851870,0.6582171459999999,0.185044926,-0.356018968,2.22746582,-1.93013306,0.2474792492
496,1778291851880,0.4140940277777778,0.2332728033333333,-0.3038501977777778,1.3834753888888889,-2.232206533333333,-0.2356499586666667
497,1778291851890,0.17323641,0.2215586788888889,-0.1218916035555555,0.5613318555555556,-2.365480222222222,-0.52162
498,1778291851900,0.06307121,0.23471159,0.019390017,0.12516785,-2.373169,-0.6065521
499,1778291851910,0.0268286091666666,0.2587098266666666,0.2478275123333333,-0.1825781888888888,-2.315411055555556,-0.5977325311111111
500,1778291851920,0.028537512,0.29535788,0.5029894,-0.5374298,-2.2208405,-0.57832336
501,1778291851930,0.1675412835555555,0.3777964666666666,0.7379895955555555,-0.5804579088888889,-1.962926266666667,-0.5896843822222222
502,1778291851940,0.235497697,0.413617066,0.899911858,-0.5158126810000001,-1.63036346,-0.586573792
503,1778291851950,0.24062379,0.4005471,0.9784134,-0.42930603,-1.4096375,-0.5697937
504,1778291851960,0.1205191977777777,0.4387419177777778,1.0552375666666665,-0.2823062477777778,-0.9771423266666668,-0.4457499222222222
505,1778291851970,0.053525356,0.4542801666666667,1.084063888888889,-0.2173801,-0.6942562533333334,-0.3146650533333333
506,1778291851980,0.0098671426666666,0.4651815100000001,1.1055269333333333,-0.1481984455555555,-0.3293440033333333,-0.0597686799999999
507,1778291851990,0.0510314766666666,0.46382585,1.045271222222222,-0.0820363376666666,-0.07078552,0.1402079233333333
508,1778291852000,0.1269733711111111,0.4363968488888889,0.9204497444444444,-0.1008555116666666,0.1905636244444444,0.3069797077777778
509,1778291852010,0.2255718733333333,0.43150174,0.8293761000000001,-0.2402343733333333,0.4536895733333332,0.37917582
510,1778291852020,0.3401979,0.4321519,0.8070857,-0.4000244,0.67988586,0.3756256
511,1778291852030,0.34255798,0.4967873666666666,0.9579128333333332,-0.5010376,1.0825500466666669,0.1620432508333333
512,1778291852040,0.209628068,0.5637246360000001,1.12699514,-0.386706548,1.46690064,-0.0595367445
513,1778291852050,0.0863385777777777,0.5815841666666667,1.2050615,-0.1854909255555555,1.7674051999999998,-0.2116309311111111
514,1778291852060,0.0433301891111111,0.5985048666666667,1.205604211111111,-0.1002095513333333,1.8718024333333336,-0.2611050111111111
515,1778291852070,0.034028187,0.63191295,1.1670703,0.010101318,1.9475403,-0.29708862
516,1778291852080,0.1259829155555555,0.60239636,1.0297749722222225,0.1481221553333333,1.7755635444444444,-0.3812425399999999
517,1778291852090,0.1912281022222222,0.5453956400000001,0.9418052833333334,0.1631537555555555,1.5538109777777778,-0.5223931199999999
518,1778291852100,0.1540772955555555,0.5153358955555556,0.9093453444444444,0.1322038444444444,1.2066548777777777,-0.7181040288888889
519,1778291852110,0.0256891717777777,0.5229830888888889,0.9399069933333334,0.12463379,0.9021657333333332,-0.8339792666666667
520,1778291852120,-0.027596476,0.5213559,0.95827836,0.13742065,0.6425934,-0.8957672000000001
521,1778291852130,-0.1503978433333333,0.5228206333333333,1.0452042,0.2134060344444444,0.1178944931111111,-0.9311540333333332
522,1778291852140,-0.1846069766666666,0.5344536999999999,1.0686741,0.2512207066666667,-0.066518148,-0.9289652466666666
523,1778291852150,-0.2201446133333333,0.5498426388888888,1.0777583333333334,0.3265007888888889,-0.2522311744444444,-0.8823310111111111
524,1778291852160,-0.2348690244444444,0.5571917288888888,1.0787346333333334,0.3898264588888889,-0.3797047933333333,-0.8368208333333333
525,1778291852170,-0.23248266,0.5617474,1.0778677,0.40638733,-0.3981781,-0.8254547
526,1778291852180,-0.1374498988888889,0.5651099111111111,1.0673450777777775,0.5929378988888889,-0.4133216022222222,-0.7314809044444445
527,1778291852190,-0.11216376,0.57053405,1.0761583,0.6968604333333333,-0.3359680177777777,-0.7102881533333334
528,1778291852200,-0.0661990144444444,0.6017323611111112,1.0109138,0.8128543444444445,-0.0627882222222222,-0.6932457711111111
529,1778291852210,-0.0602465499999999,0.5959561933333333,0.8968033933333334,0.7890065666666666,0.1582590733333333,-0.68289184
530,1778291852220,-0.069330275,0.59432906,0.8324672599999999,0.6998749,0.27720642,-0.6811218
531,1778291852230,-0.0622124444444444,0.5723637488888889,0.7548433933333334,0.3924272444444444,0.2653723811111111,-0.6447211333333334
532,1778291852240,-0.0591620684444444,0.5513747377777778,0.6959984366666666,0.1210191544444444,0.2391577811111111,-0.6098599
533,1778291852250,-0.0845845648888889,0.4814658511111111,0.7934180966666666,-0.2092200422222222,-0.0022430422222222,-0.4967702111111111
534,1778291852260,-0.1015602066666666,0.4175223666666666,0.9322594166666668,-0.3171641,-0.1118553977777778,-0.3793589222222222
535,1778291852270,-0.1416264088888889,0.3606436777777778,1.0738806111111112,-0.2620120511111111,-0.1494988322222222,-0.2315758555555555
536,1778291852280,-0.2099082725,0.369430275,1.12008915,-0.1187896725,-0.19458008,-0.0832290675
537,1778291852290,-0.35927057,0.44264796,1.1640201,0.07296753,-0.29963684,0.10612488
538,1778291852300,-0.4857618714285714,0.5639269985714286,1.1560875285714285,0.3010079571428571,-0.5396248971428571,0.54478236
539,1778291852310,-0.5725763,0.62654513,1.1687780999999997,0.4303589,-0.67141724,0.857666
540,1778291852320,-0.2170258111111111,0.8045168111111111,1.0572847533333334,0.6005706844444444,-0.4620259444444444,1.3334842444444446
541,1778291852330,0.29109658125,0.988084875,0.87612352625,0.58395767125,0.277742375,1.5524139250000002
542,1778291852340,0.400236,1.0194768,0.8361287,0.53741455,0.5589752,1.5458221
543,1778291852350,0.4270011911111111,0.8196749977777777,0.6850292333333333,0.2796868222222222,1.1691894555555555,0.9905310888888889
544,1778291852360,0.2790616233333333,0.7386072666666667,0.6371801666666667,0.0949808783333333,1.2718099,0.6121266733333334
545,1778291852370,-0.0331692455555555,0.6437504777777777,0.5982943444444444,-0.1683756494444444,0.8905741444444444,0.3274620911111111
546,1778291852380,-0.2614989055555555,0.5788989888888889,0.5991356555555556,-0.4586029033333333,0.3265736833333333,0.26058452
547,1778291852390,-0.3526818,0.5397816,0.60476285,-0.72065735,-0.19895935,0.2872162
548,1778291852400,-0.2217446344444444,0.3924799177777778,1.0312248444444445,-1.0181105,-0.7890574233333333,0.1948903444444444
549,1778291852410,-0.1591440333333333,0.3977410866666667,1.1984723,-1.1467692,-0.9682617333333334,0.0846405033333333
550,1778291852420,-0.053303795,0.4234349188888889,1.3614072555555556,-0.9435424666666664,-0.6559685611111111,0.0477108433333333
551,1778291852430,0.0338522503333333,0.4523424388888888,1.415154011111111,-0.5875108488888888,-0.3198208277777777,0.0320858428888888
552,1778291852440,0.0606307419999999,0.4725449,1.4053919,-0.33717346,-0.1313324,0.021438599
553,1778291852450,0.0674394888,0.514522636,1.28431468,0.282611089,0.2184646609999999,0.0240432734
554,1778291852460,0.0848737033333333,0.5215182466666667,1.1930620333333333,0.6384514800000001,0.3923780644444444,0.029900444
555,1778291852470,0.1026496977777777,0.5351719733333333,1.0435365888888888,0.8925696488888888,0.4892527222222222,-0.0243208147777777
556,1778291852480,0.091260305,0.5395384233333334,0.9281382133333334,0.93174744,0.49150594,-0.081553142
557,1778291852490,0.0441296794444444,0.5330847722222223,0.8137292666666667,0.7385847333333334,0.3549194333333333,-0.1408487955555555
558,1778291852500,0.0096765152222222,0.52535601,0.7743816888888889,0.53423055,0.2235293955555555,-0.1562991666666666
559,1778291852510,-0.020030854,0.51586527,0.7453397,0.3067932,0.09718323,-0.13890076
560,1778291852520,-0.01499125362,0.5198918220000001,0.7688170999999999,0.035784908,-0.0195831292,-0.079031372
561,1778291852530,-0.0021874559555555,0.5279186555555556,0.8132951666666667,-0.1681450744444444,-0.0871242944444444,-0.0282355411111111
562,1778291852540,-0.0019429073944444,0.53264995,0.8971293,-0.2386355888888889,-0.0896640344444444,0.0198838975555555
563,1778291852550,0.00022709309,0.53514487,0.9433913,-0.2785797,-0.08818054,0.061904907
564,1778291852560,0.0021252386355555,0.5416937511111111,0.9558110777777776,-0.2663879288888889,-0.0975307866666666,0.0636223684444444
565,1778291852570,-0.0355691042222222,0.6165919111111111,1.0975410222222222,-0.0709092883333333,-0.2146504711111111,0.0672997366666666
566,1778291852580,-0.0836215855555555,0.6459328888888889,1.1497150666666665,0.1035563161111111,-0.2660217333333333,0.0644582122222222
567,1778291852590,-0.0748083322222222,0.6599672,1.1647646777777778,0.32856581,-0.3042551666666667,0.0674150255555555
568,1778291852600,-0.0555656323999999,0.6611764960000001,1.1279716199999998,0.5504150400000001,-0.311041252,0.057650756
569,1778291852610,-0.0421587759999999,0.6634235333333334,1.0676567444444445,0.7033623688888889,-0.2836032444444444,0.04954868
570,1778291852620,-0.0060110536666666,0.6573228111111111,0.9693831000000002,0.7851545688888888,-0.2172580255555555,0.0522054031111111
571,1778291852630,0.0069382635,0.6502183100000001,0.9053589533333332,0.80533854,-0.139139808,0.0599517813333333
572,1778291852640,-0.0063223126666666,0.6452149866666667,0.8400738233333334,0.7632649733333333,-0.06900533,0.07184855
573,1778291852650,-0.0201663493333333,0.6381503777777778,0.7838862555555556,0.6440700933333334,0.0052100291111111,0.0861748588888888
574,1778291852660,-0.0282555124,0.6347935729999999,0.75770013,0.538914486,0.0590469367,0.0962677
575,1778291852670,-0.0373728844444444,0.6341102411111111,0.7373940666666666,0.25802612,0.1769019244444444,0.1358846033333333
576,1778291852680,-0.03992172,0.6427878211111112,0.7444989333333333,0.1473541233333333,0.22838338,0.15725708
577,1778291852690,-0.045833052,0.6444146222222221,0.7882931222222221,0.0997772211111111,0.27288818,0.1971469444444444
578,1778291852700,-0.0475279534444444,0.6317639555555554,0.8424607133333333,0.1175333666666666,0.2988739,0.24531555
579,1778291852710,-0.040410124,0.6234934,0.86517173,0.16723633,0.30171204,0.27656555
580,1778291852720,-0.0436098213333333,0.6364560377777777,0.8467585188888889,0.2347073055555555,0.3308292,0.3183441144444444
581,1778291852730,-0.0405071835999999,0.64026096,0.8033268039999999,0.263327031,0.377824404,0.34772186
582,1778291852740,-0.0100645083333333,0.6323479444444444,0.7475755488888889,0.0801205122222222,0.4740566777777777,0.3215416777777777
583,1778291852750,0.009135053,0.6309377,0.7259357,-0.10600281,0.5509949,0.2925415
584,1778291852760,0.0143416016666666,0.6315069666666667,0.7322818333333333,-0.1351165766666666,0.5616455,0.2872212733333333
585,1778291852770,0.0756401433333333,0.5881462133333333,0.8208740733333334,-0.3318413533333333,0.5491519455555556,0.1303880499999999
586,1778291852780,0.0726303833333333,0.5681739466666667,0.8454021933333333,-0.3087615866666666,0.4403737366666667,0.0841064453333333
587,1778291852790,0.0587730388888888,0.5313620222222223,0.9044782,-0.1963178844444444,0.2232988166666666,0.0339219835555555
588,1778291852800,0.0544069399999999,0.4984957399999999,0.9127218333333336,-0.0768890393333333,0.0171101886666666,-0.0052032473333333
589,1778291852810,0.0343209186,0.43293366,0.8558970199999999,-0.0370254515,-0.1507644669999999,-0.0390319825
590,1778291852820,0.0069382636933333,0.4188918333333333,0.86175394,-0.1075998955555555,-0.2006802055555555,-0.0526106092222222
591,1778291852830,-0.0008710419599999,0.4219016,0.87505496,-0.14595032,-0.19949341,-0.056869507
592,1778291852840,-0.0029598143044444,0.4156111022222222,0.8864718422222223,-0.1859554711111111,-0.0678744855555555,-0.0653940838888888
593,1778291852850,0.0213645503333333,0.39345604,0.8795709011111111,-0.2572699633333333,0.1690843388888888,-0.0909627272222222
594,1778291852860,0.0748949161111111,0.3623791955555556,0.8758827811111112,-0.3027242033333333,0.2969156933333333,-0.1385447166666666
595,1778291852870,0.13916278,0.3436008233333333,0.8949999200000001,-0.3483479833333333,0.3395317911111111,-0.2671508788888889
596,1778291852880,0.15874118,0.34636673,0.9071482,-0.35473633,0.31396484,-0.32373047
597,1778291852890,0.1232073299999999,0.31605447,0.8810103940000001,-0.345156856,0.060107422,-0.495117206
598,1778291852900,0.0820267476666666,0.2873048933333333,0.8742010266666668,-0.35811869,-0.1544036866666666,-0.5852356166666667
599,1778291852910,0.0127951556666666,0.2578290955555555,0.8994470666666666,-0.4033321833333333,-0.3285132555555555,-0.6155395499999999
600,1778291852920,-0.07091682,0.22555943,0.9442452,-0.4436289466666667,-0.3580525722222222,-0.5952436555555556
601,1778291852930,-0.07091682,0.22555943,0.9442452,-0.4410858155555555,-0.3253190755555555,-0.5649465088888889
602,1778291852940,-0.17133309,0.1625780777777777,1.0544373,-0.2931365977777778,-0.0206519222222222,-0.3715396466666666
603,1778291852950,-0.1355920222222222,0.1254817155555555,1.02517784,-0.19755554,0.0920918749999999,-0.3051995222222222
604,1778291852960,-0.1014235,0.11097386,0.99317914,-0.1649475066666667,0.1763661666666666,-0.3061421766666666
605,1778291852970,0.0281097688,0.134342665,0.9001324150000001,-0.152661132,0.2674163799999999,-0.361535638
606,1778291852980,0.055626918,0.15270765,0.88616073,-0.12997437,0.2798767,-0.3982849
607,1778291852990,0.075802946,0.1505518233333333,0.8005772433333332,-0.1000857894444444,0.1686113155555555,-0.4762285
608,1778291853000,0.0705156855555555,0.1262004977777777,0.6801347888888889,-0.1468488922222222,0.0105929911111111,-0.5098436155555555
609,1778291853010,-0.0724485644444444,0.0703788066666666,0.7004189666666667,-0.5042978833333334,-0.3586968311111111,-0.5081888866666666
610,1778291853020,-0.1491368933333333,0.0402780857777777,0.8326438555555555,-0.7117919666666667,-0.52262878,-0.4572296133333333
611,1778291853030,-0.15767881,0.021160098,0.9285043,-0.7302551,-0.5723419,-0.4174652
612,1778291853040,-0.13807311,0.0303941793333333,1.0613931333333333,-0.5869123511111112,-0.5474887344444445,-0.3772803377777778
613,1778291853050,-0.08189972,0.03580449,1.1530371,-0.33929443,-0.49884033,-0.33010864
614,1778291853060,-0.0660763066666666,0.0635043161111111,1.0682125444444446,-0.2520633288888889,-0.22192722,-0.3241899266666667
615,1778291853070,-0.0635267831111111,0.0709206155555555,0.9986019355555557,-0.2457953577777777,0.0407816566666666,-0.3106350355555555
616,1778291853080,-0.073113084,0.08193083,0.95949936,-0.2689972,0.12487793,-0.30773926
617,1778291853090,-0.0602602033333333,0.0900256423333333,0.8716376822222222,-0.4184841566666666,0.3453335266666666,-0.2580244233333333
618,1778291853100,-0.033617554,0.0878290266666666,0.87135306,-0.4708557066666666,0.3164571133333333,-0.2507425933333333
619,1778291853110,-0.0160719332222222,0.0107333461111111,1.0243638888888889,-0.5508100666666667,0.4958886,-0.25500488
620,1778291853120,-0.0240977899999999,-0.060966196,1.130989933333333,-0.65177409,0.8133951933333333,-0.24932861
621,1778291853130,-0.0237732235555555,-0.0706202437777777,1.140589622222222,-0.6709510111111112,0.96436905,-0.2796919088888889
622,1778291853140,-0.0154678386,-0.0259313864,1.1609441,-0.4261169609,0.791145325,-0.366435246
623,1778291853150,-0.01222103,-0.007394524,1.1358309,-0.027175903,0.5499115,-0.4909668
624,1778291853160,-0.0532365642222222,-0.0940621633333333,0.9337101,0.3163859066666667,0.4177636033333333,-0.6393398888888888
625,1778291853170,-0.1195657166666666,-0.1126112077777777,0.7711142333333334,0.4468180355555555,0.3680538566666667,-0.7087029555555556
626,1778291853180,-0.1865187677777778,-0.0986052317777777,0.6065923888888888,0.4530249722222222,0.1534644222222222,-0.7313656377777777
627,1778291853190,-0.2226661433333333,-0.0890455471111111,0.4876547288888888,0.3708801333333333,-0.1927541099999999,-0.72088624
628,1778291853200,-0.24395396,-0.078536876,0.46406314,0.2657776,-0.43598938,-0.6928406
629,1778291853210,-0.234911609,-0.051519953,0.5142902140000001,0.095278936,-0.746778862,-0.573313913
630,1778291853220,-0.1902614866666666,-0.0176852616666666,0.6116363,-0.1411641466666666,-1.162679,-0.3924255366666667
631,1778291853230,-0.1566354666666666,-0.006296389,0.686887068888889,-0.2775166866666667,-1.3217620666666667,-0.3034769666666667
632,1778291853240,-0.1282026888888889,-0.0179299838888888,0.8301897466666666,-0.4400193977777778,-1.4367472666666667,-0.2070736322222222
633,1778291853250,-0.10276584,-0.058647566,0.89226115,-0.6322479266666667,-1.353307066666667,-0.1212615955555555
634,1778291853260,-0.1094106472222222,-0.0686935808888889,1.0532991755555556,-0.83754476,-1.1236775999999995,-0.0478142644444444
635,1778291853270,-0.1146851166666666,-0.084679276,1.1586911333333334,-0.8891499866666668,-1.0048421333333333,-0.008219401
636,1778291853280,-0.128698005,-0.0989775879999999,1.29343045,-0.74782563,-0.8828735200000001,0.0501861575
637,1778291853290,-0.1290301744444444,-0.08920887,1.3607835666666668,-0.5159539222222222,-0.7737969288888888,0.1061197916666666
638,1778291853300,-0.12192565,-0.079392366,1.3612177,-0.4378357,-0.73638916,0.123168945
639,1778291853310,-0.1058002642857142,-0.0521967474285714,1.3130159857142858,-0.3305446071428571,-0.6001935671428572,0.1467546699999999
640,1778291853320,-0.0278002353499999,-0.0303765513333333,1.1869600666666666,-0.19761912,-0.346239725,0.1735000583333333
641,1778291853330,0.0222051761999999,-0.0284376193333333,1.1247391666666666,-0.1526438366666666,-0.2366095611111111,0.1795654277777777
642,1778291853340,0.0552342588888888,-0.0199774508888888,1.1077634777777776,-0.1145307744444444,-0.2025180366666666,0.1999240455555555
643,1778291853350,0.0765212088888888,-0.0115712045,1.0800362,-0.0497233077777777,-0.1883188866666666,0.2333577455555555
644,1778291853360,0.0724535777777777,-0.0131978413888888,1.0482549555555556,-0.006754557,-0.1861877433333333,0.2595113133333333
645,1778291853370,0.0664876311111111,-0.0147843824444444,1.0254355444444443,0.0416564936666666,-0.1994391566666666,0.2989332488888889
646,1778291853380,0.0731445395555555,-0.0053206146222222,1.0059782555555554,0.0926784933333333,-0.2003360355555555,0.3463456866666667
647,1778291853390,0.0669622153333333,0.0008214409555555,0.97646135,0.09770372,-0.1185489255555555,0.3731536933333333
648,1778291853400,0.0507597964444444,-0.0189066227111111,0.9298191277777776,0.0375739187777777,0.0608384866666666,0.4111446888888889
649,1778291853410,0.10024881,-0.0279495588888888,0.9123284777777776,-0.0803120945555555,0.2215779666666666,0.4412078888888889
650,1778291853420,0.14287733,-0.020085294,0.9117865,-0.17204285,0.2985077,0.4486084000000001
651,1778291853430,0.1910385133333333,-0.0200315445555555,1.0013958333333337,-0.2537824788888889,0.4390767344444444,0.3414832222222222
652,1778291853440,0.1944010088888889,-0.0156925806,1.0547091222222222,-0.2991756777777777,0.5270233111111111,0.2412295833333333
653,1778291853450,0.14152237,-0.0040320254333333,1.0849449555555557,-0.34871419,0.5449473066666667,0.1290232333333333
654,1778291853460,0.086948654,-0.0139029704666666,1.1280615333333333,-0.3594241688888889,0.5361853666666666,0.0835113544444444
655,1778291853470,0.033662662,-0.035704944,1.1840322,-0.3552704,0.52542114,0.01184082
656,1778291853480,0.0351268393333333,-0.1032286693333333,1.2560017111111113,-0.2293345155555556,0.52139282,-0.0589463977777777
657,1778291853490,0.05099017,-0.13699001,1.2877562,-0.140625,0.53286743,-0.099487305
658,1778291853500,0.051072092,-0.1663570833333333,1.2661979333333333,0.0443827299999999,0.5570272,-0.16144816
659,1778291853510,0.0302458946666666,-0.1486766611111111,1.1840050666666668,0.2241787377777777,0.6146715,-0.2393256266666666
660,1778291853520,0.016577795,-0.13149779,1.1113033,0.2892151,0.63993835,-0.2832489
661,1778291853530,-0.1022249,-0.0948085944444444,0.9467674777777776,0.2992163788888889,0.5334659266666666,-0.3378041555555555
662,1778291853540,-0.1594696366666666,-0.0755685913333333,0.9021863566666666,0.2721659333333333,0.3945668533333333,-0.31750996
663,1778291853550,-0.2144092166666666,-0.0185402311111111,0.8878687655555555,0.16599867,0.0821482344444444,-0.2283816855555555
664,1778291853560,-0.2336082644444444,0.0450501533333333,0.9160025555555557,0.042838202895,-0.2031673844444444,-0.1327480733333333
665,1778291853570,-0.21930347,0.05996502,0.9397298,-1.5258789e-05,-0.28578186,-0.10055542
666,1778291853580,-0.11110503,0.0666777466666666,1.0304789666666665,-0.2205200166666666,-0.5323944066666666,0.0159250893333333
667,1778291853590,-0.0651000166666666,0.062732135,1.0591559666666666,-0.2989959666666666,-0.5856628399999999,0.0404307046666666
668,1778291853600,0.0025040727777777,0.0361829794444444,1.1547856333333335,-0.4025065055555555,-0.649692111111111,0.044572618
669,1778291853610,0.0284286327777777,0.0204005283333333,1.2523540777777775,-0.4235771988888889,-0.6648356222222223,0.0568813744444444
670,1778291853620,0.0539869744444444,0.0350449216666666,1.3359438555555556,-0.3845146988888889,-0.6346571277777778,0.0725640188888888
671,1778291853630,0.0883718733333333,0.0514645813333333,1.3738680666666667,-0.3199462866666666,-0.589564,0.043802897
672,1778291853640,0.12774608,0.05642641,1.4157652,-0.234375,-0.5334625,-0.009460449
673,1778291853650,0.121839794,0.0488125695,1.40103549,-0.075059508,-0.464703365,-0.0925018298
674,1778291853660,0.1281530833333333,-0.0110549738888888,1.3676979111111112,0.0526682533333333,-0.3575744633333333,-0.1361711288888888
675,1778291853670,0.1567486666666666,-0.0683280553333333,1.3262759,0.0907287594444444,-0.2198537224444444,-0.1394212533333333
676,1778291853680,0.1961500088888889,-0.1238510988888888,1.2562455666666663,0.0926767966666666,0.0891977962222222,-0.1749352388888888
677,1778291853690,0.19962104,-0.13442665,1.2408973,0.08628845,0.14884949,-0.18843079
678,1778291853700,0.1301055011111111,-0.1113639233333333,1.244829388888889,0.1170569544444444,0.2781016011111111,-0.3188629144444444
679,1778291853710,0.04732962112,-0.08798302,1.25373452,0.176824954,0.361897278,-0.417782594
680,1778291853720,-0.0762861654,-0.0805719,1.1811846666666668,0.3282724999999999,0.4100138333333333,-0.3755594866666666
681,1778291853730,-0.1353485144444444,-0.1082183177777777,1.0682406111111111,0.3756239122222222,0.3305935322222222,-0.2495642777777777
682,1778291853740,-0.15292075,-0.12893598,1.0068467,0.37231445,0.26123047,-0.17192078
683,1778291853750,-0.1057361988888888,-0.1802284333333333,0.9855184777777778,0.2498016466666666,0.103042604,0.0047353113333333
684,1778291853760,-0.0595956877777777,-0.2061930877777777,1.0184388333333334,0.1736907977777777,0.0176917182222222,0.11446635
685,1778291853770,0.0155475805555555,-0.21906013,1.0603084777777778,0.16570536,-0.0527954111111111,0.1790364566666666
686,1778291853780,0.0534558452,-0.23729671,1.06463908,0.18588257,-0.07247162,0.186286925
687,1778291853790,0.0548279444444444,-0.25743178,1.047549622222222,0.1855265311111111,-0.0582360163333333,0.1777326755555555
688,1778291853800,0.0116427547777777,-0.2398735466666667,1.0323502333333332,0.1308525906666666,-0.045683119,0.15807936
689,1778291853810,-0.0203562852222222,-0.2176910133333333,1.0348444555555556,0.1125590011111111,-0.0818481433333333,0.1607377777777777
690,1778291853820,-0.0485723426666666,-0.2080098311111111,1.0322821555555557,0.1100667326666666,-0.2016347255555555,0.1961958133333333
691,1778291853830,-0.0605856353333333,-0.2130138266666666,1.0513865333333332,0.109176636,-0.3501197044444444,0.2508850066666667
692,1778291853840,-0.0562739739999999,-0.22179994,1.0870184,0.109176636,-0.5063019,0.332489
693,1778291853850,0.0562107215555555,-0.1880111222222222,1.2571542222222225,0.290339154,-0.5913425111111111,0.4532199444444444
694,1778291853860,0.12579401,-0.16993718,1.3355919,0.4697875999999999,-0.5723419,0.5029297
695,1778291853870,0.139668776,-0.165544325,1.34642799,0.8130126900000001,-0.235766595,0.50708009
696,1778291853880,0.1642332299999999,-0.1527451522222222,1.3088537333333334,1.166878577777778,0.1741824666666666,0.5125122111111111
697,1778291853890,0.1118958744444444,-0.1461008744444444,1.0068460333333331,1.3321075333333334,0.6024780299999999,0.5224660166666667
698,1778291853900,0.0555050742666666,-0.1546835766666666,0.8384058833333333,1.245112088888889,0.7287631544444444,0.5585649166666666
699,1778291853910,-0.0042618833777777,-0.1631983566666666,0.6893681855555556,1.1114823777777778,0.6786346466666667,0.5919375777777778
700,1778291853920,-0.0333728306666666,-0.1265349166666666,0.6362862733333333,0.8841044,0.2882232804444444,0.6066182511111111
701,1778291853930,-0.0166951431111111,-0.0672020944444444,0.6631589555555555,0.7561543666666667,-0.0661570226666666,0.60005188
702,1778291853940,0.0977952002222222,-0.0237595703888888,0.7851881444444444,0.7130737222222222,-0.2624087866666666,0.5225202755555556
703,1778291853950,0.15125747,0.0179339591333333,0.8817944844444444,0.7181091333333334,-0.0795406755555555,0.3920237255555555
704,1778291853960,0.136057058,0.0399411625999999,0.914361681,0.7349838259999999,0.134671024,0.347825626
705,1778291853970,0.0204418322222222,0.0563991018888888,0.9330732666666668,0.7895982611111111,0.8267126933333333,0.3645612911111111
706,1778291853980,-0.045779478,0.059111085,0.9154464,0.81066895,1.1640472,0.3825531
707,1778291853990,-0.0982250146666666,0.0583656853333333,0.8446699288888888,0.8396674277777778,1.355914622222222,0.3801862955555555
708,1778291854000,-0.1397012988888888,0.0478577046666666,0.7982041499999999,0.947316488888889,1.345436911111111,0.2815907822222222
709,1778291854010,-0.15963243,0.035925813,0.7802389,0.9976196,1.1507263,0.24194336
710,1778291854020,-0.0621987866666666,0.0455115964444444,0.71419512,1.1099429777777778,0.3808322477777778,0.1289062527777777
711,1778291854030,0.0432351344444444,0.0584605681111111,0.6669156788888889,1.151485833333333,-0.1819898822222222,0.0256296793333333
712,1778291854040,0.1166897579999999,0.0380735549999999,0.658991138,1.0922638,-0.654208384,-0.0663467403999999
713,1778291854050,0.1587002088888888,0.0094452748888888,0.7308446333333333,1.0160251444444444,-1.0881144555555555,-0.0878838433333333
714,1778291854060,0.19327487,-0.005198254,0.7775543,1.0050812,-1.1742249,-0.04675293
715,1778291854070,0.3017458655555555,0.0200757892444444,0.9116774422222222,1.1170467999999998,-1.0463901444444443,0.0261637371111111
716,1778291854080,0.3561846,0.053132005,0.96718633,1.1739197,-0.9846039,0.027282715
717,1778291854090,0.3201851666666667,0.1562867,1.0271031,1.3825328,-0.93932598,-0.0962829593333333
718,1778291854100,0.1817636413333333,0.2740852733333333,1.064281,1.7112274444444442,-0.8518591977777779,-0.27738105
719,1778291854110,0.101143524,0.32989314,1.019049,1.9941711,-0.7284088,-0.42651367
720,1778291854120,0.0389459967,0.398241315,0.7736611320000001,2.11129455,-0.4820083569999999,-0.633285517
721,1778291854130,-0.02417919,0.48792037,0.43465304,2.1539612,-0.16168213,-0.88565063
722,1778291854140,-0.1202703266666666,0.60184054,0.0463043477777777,1.4964616333333334,0.2627088755555555,-1.0385741888888889
723,1778291854150,-0.1375304388888888,0.659479508888889,-0.113295945,0.9821149777777778,0.5066002733333334,-1.0721265888888891
724,1778291854160,-0.14218204,0.6863391,-0.12924086,0.7488861,0.61968994,-1.0704651
725,1778291854170,-0.1734486466666666,0.7100666844444444,-0.1008759986888889,0.5334625177777778,0.7110663533333333,-1.0298665444444444
726,1778291854180,-0.2968606088888889,0.7947538711111111,0.0365011530222222,-0.2773929177777778,1.0038384444444446,-0.8458726611111111
727,1778291854190,-0.4699770644444444,0.8261829722222223,0.4330269222222222,-0.7675899888888889,0.6392194888888889,-0.3171573222222222
728,1778291854200,-0.5168902777777779,0.8450569277777779,0.5358561888888889,-0.7890167166666666,0.4236806066666667,-0.0620218933333333
729,1778291854210,-0.4903286922222222,0.8551724222222222,0.5696851222222222,-0.7696075388888889,0.1541764977777777,0.1943596755555555
730,1778291854220,-0.34408542,0.8653959022222222,0.5331037666666667,-0.7712605666666668,-0.2238210066666666,0.4558817666666667
731,1778291854230,-0.26591977,0.85705703,0.5004276,-0.8160095,-0.45036316,0.5886841
732,1778291854240,-0.1674417433333333,0.8366648155555556,0.4834789177777778,-1.0151485777777778,-0.5629865866666667,0.6547275222222223
733,1778291854250,-0.1139115513333333,0.7965714666666668,0.4880209599999999,-1.1595459,-0.6335907,0.6952057
734,1778291854260,-0.1178975993333333,0.7408849333333333,0.5510693666666666,-1.738347366666667,-0.4231448755555556,0.6507059777777777
735,1778291854270,-0.1376256633333333,0.7280314,0.6329504133333334,-1.9263611,-0.2959086133333333,0.6256154333333332
736,1778291854280,-0.13900897,0.7281942,0.66003984,-1.9988691333333333,-0.1950615777777778,0.6021779388888889
737,1778291854290,-0.0088644045,0.6934769000000001,1.11148605,-2.15850835,0.362167365,0.36950684
738,1778291854300,0.05758054125,0.6766977000000001,1.221952475,-2.028678925,0.4512557975,0.2239646935
739,1778291854310,0.150199517,0.61263335,1.2806782,-1.6457767375,0.3393955175,-0.0201206224999999
740,1778291854320,0.23073823,0.526358965,1.2890371,-1.07492638125,0.08020019425,-0.35627746875
741,1778291854330,0.24208744,0.49316683,1.2700616,-0.79096985,-0.0599517819999999,-0.53038025
742,1778291854340,0.2610828955555556,0.3800200366666666,1.0986113000000002,-0.545137191111111,-0.1548241506666666,-0.8227996944444445
743,1778291854350,0.2421278866666666,0.3378253166666667,0.9921209133333334,-0.4159444155555555,-0.2265489377777778,-1.0449117
744,1778291854360,-0.0818992066666666,0.4309729,0.94302476,-0.47157118,-0.3029479988888889,-1.0092857955555554
745,1778291854370,-0.8185865933333334,0.6832463466666667,0.9374521666666666,-0.6372171999999999,-0.5268961566666667,-0.65165202
746,1778291854380,-1.1487955,0.83862984,0.9560821000000002,-0.6578064,-0.57873535,-0.5213318
747,1778291854390,-0.1491362222222222,1.4402996444444445,1.202471811111111,-0.719541761111111,-0.3872256833333333,2.8596598444444443
748,1778291854400,0.77730536,1.47501,1.2592015,-0.70628357,0.10090637,3.2545166
749,1778291854410,1.5353593777777776,1.197204661111111,1.0804031333333333,-0.790142491111111,0.9235280411111112,1.601871066666667
750,1778291854420,1.2308576,0.9535545122222222,1.0318086666666666,-0.7960578222222222,1.010757461111111,0.6635521555555556
751,1778291854430,0.9044588,0.7945785,1.0025755,-0.7515564,0.72621155,0.2952118
752,1778291854440,-0.601999571111111,0.3997745622222222,1.2698188333333331,-0.2459665944444444,-0.7737358666666667,-0.0128445055555555
753,1778291854450,-0.9540387666666668,0.35844776,1.4235340666666667,0.0363871233333333,-1.2448781000000002,-0.0796051006666666
754,1778291854460,-0.9322767,0.4429730466666666,1.6025497333333334,0.2906290666666666,-0.9155375,0.023203532
755,1778291854470,-0.4933939333333333,0.4571279977777778,1.6248813666666666,0.3492279111111111,0.1308508944444444,0.2502848288888889
756,1778291854480,-0.1198227111111111,0.4704155444444444,1.487720611111111,0.2031656899999999,0.8792012577777778,0.2734290199999999
757,1778291854490,0.2434164666666667,0.4537378499999999,1.333896222222222,0.09492323,1.2983873222222222,0.1756032311111111
758,1778291854500,0.33849,0.43752125,1.29642,0.06817627,1.3994751,0.1157073999999999
759,1778291854510,0.329337532,0.3688685319999999,1.29727418,0.265777585,1.09933472,0.077095033
760,1778291854520,0.2805802366666666,0.3041039044444444,1.3086095000000002,0.7552625888888889,0.5863783133333333,0.0003628202222222
761,1778291854530,0.17529737,0.3140016377777778,1.23085,1.3556620333333331,0.1179504411111111,-0.045515272
762,1778291854540,0.1079917535555555,0.3238724066666666,1.1327388733333337,1.6203240333333333,-0.1264750166666667,-0.0206604
763,1778291854550,0.0353026053333333,0.3383132011111111,0.9689221888888888,1.8871154999999995,-0.41522217,0.06137085
764,1778291854560,0.01718908,0.36271897,0.81098986,1.9840546,-0.6495819,0.14926147
765,1778291854570,-0.0004920348888888,0.3735252633333333,0.6731113355555556,1.8108859444444445,-0.8287167111111111,0.2376776811111111
766,1778291854580,-0.0111640271777777,0.3937002444444444,0.5486287222222221,1.467041,-0.8800303333333334,0.2946726533333333
767,1778291854590,-0.0035572732,0.43011844,0.5187728899999999,0.9106191200000002,-0.7566324999999999,0.28864035
768,1778291854600,0.0010810252,0.47461832,0.52861667,0.55766296,-0.6128235,0.24461365
769,1778291854610,0.037261931,0.5623571,0.59091175,0.0902709969999999,-0.271141055,0.15245819
770,1778291854620,0.0784057006666666,0.6189380333333334,0.6414518666666668,-0.1202138273333333,-0.0832061773333333,0.1066487616666666
771,1778291854630,0.1343494033333333,0.6730373666666667,0.7128251333333333,-0.3327891055555556,0.1582590711111111,0.0541008841111111
772,1778291854640,0.1765442988888889,0.70666302,0.7784216888888889,-0.4973093666666666,0.3624420133333333,0.0074055986666666
773,1778291854650,0.17521475,0.71330714,0.83100355,-0.5523529,0.44233704,-0.01852417
774,1778291854660,0.1450746266666666,0.67958691,0.8302299833333334,-0.618401408888889,0.4958292655555555,-0.0987091088888888
775,1778291854670,0.1051304411111111,0.667709301111111,0.8122509166666666,-0.6846788244444445,0.506591798888889,-0.16961331
776,1778291854680,0.0417412634,0.67171956,0.82372972,-0.78916018,0.449243164,-0.226364136
777,1778291854690,-0.0022546846666666,0.6932539888888889,0.8768044555555555,-0.8872019566666666,0.3354390466666667,-0.2630055733333333
778,1778291854700,-0.019542448,0.7089146,0.9178869,-0.91773987,0.23886108,-0.27046204
779,1778291854710,-0.0666324611111111,0.7378083133333333,1.026533666666667,-0.8844791,0.1880238822222222,-0.25158183
780,1778291854720,-0.13681269,0.7743221,1.1975769,-0.86128235,0.08972168,-0.23583984
781,1778291854730,-0.1768377566666666,0.7451974911111111,1.2435686333333331,-0.5060136566666666,-0.0739746077777777,-0.023671465
782,1778291854740,-0.2254048109999999,0.697882401,1.29695802,-0.019287108,-0.158380126,0.283908078
783,1778291854750,-0.1979888733333333,0.65225228,1.2572899666666666,0.3314717566666666,0.02474467,0.50843302
784,1778291854760,-0.1547499322222222,0.6240498944444445,1.191692888888889,0.4876522333333333,0.1736467155555555,0.5951961944444445
785,1778291854770,-0.0976135555555555,0.5936235977777777,1.1047545888888888,0.6038292555555556,0.3263905844444444,0.6598222499999999
786,1778291854780,-0.005346539,0.55328636,0.9909424,0.6041819333333334,0.49878948,0.6762135666666667
787,1778291854790,0.0553020026666666,0.52809423,0.9280295111111112,0.5208536966666667,0.6414201722222221,0.6485188555555556
788,1778291854800,0.07561546,0.5421499040000001,0.913298666,0.394250482,0.71056213,0.53850706
789,1778291854810,0.0562639502222222,0.5778145111111112,0.9142532411111112,0.4055650422222221,0.5775604222222221,0.4395497577777777
790,1778291854820,0.039518863,0.5922541,0.92618513,0.44049072,0.4556427,0.37297058
791,1778291854830,0.0170929887777777,0.6242800888888889,0.9590783433333334,0.6476203055555555,0.1285468177777777,0.2547810855555555
792,1778291854840,0.0137031832222222,0.6588141388888888,0.9842433244444444,0.8303137844444444,-0.1248728466666666,0.16967434
793,1778291854850,0.0835718086666666,0.675885,0.9384688933333334,1.018920906666667,-0.29555766,0.0921020503333333
794,1778291854860,0.1829300444444444,0.6666104666666667,0.8257415466666668,1.1491258444444443,-0.4295399933333333,-0.001525879
795,1778291854870,0.2402566999999999,0.6415535,0.7150757,1.116394,-0.5057678,-0.104278564
796,1778291854880,0.192238802,0.6245678619999999,0.670986804,0.895986922,-0.4928253179999999,-0.2125045792
797,1778291854890,0.13372672,0.61617196,0.6571125,0.6593933,-0.43066406,-0.30241394
798,1778291854900,0.0445228593333333,0.6013113622222223,0.7439422277777777,0.4543897844444444,-0.2048339782222222,-0.33603074
799,1778291854910,-0.0167359303333333,0.5961998488888889,0.8164951911111111,0.3522406666666666,0.0765753866666666,-0.3267415311111111
800,1778291854920,-0.035040773,0.59945416,0.84259623,0.3691101,0.20796204,-0.29655457
801,1778291854930,0.0171609078666666,0.5605946311111112,0.74302021,0.3573913544444445,0.2711181644444445,-0.2494472944444444
802,1778291854940,0.0742165735555555,0.5218840877777778,0.6248151388888888,0.3041297022222222,0.2627173511111111,-0.2329406766666666
803,1778291854950,0.069782125,0.4534465499999999,0.5336812,-0.03968811,0.1158294664999999,-0.2680587749999999
804,1778291854960,0.0145705964444444,0.4217396722222222,0.5460938933333334,-0.4152882933333333,-0.040766398,-0.2834167466666666
805,1778291854970,-0.012953638,0.42458785,0.58548176,-0.7004242,-0.17286682,-0.28271484
806,1778291854980,-0.0549316375555555,0.4144457299999999,0.7269264977777777,-0.889149988888889,-0.2863176155555555,-0.2554829922222222
807,1778291854990,-0.0629447033333333,0.41327985,0.8462976033333334,-0.9702860666666666,-0.36994426,-0.1971282966666666
808,1778291855000,-0.0528302475555555,0.4243164944444444,0.9558245788888888,-0.8047044622222222,-0.3828464111111111,-0.1154666477777777
809,1778291855010,-0.0360575068888888,0.4195705177777777,0.9800544088888888,-0.5940195711111111,-0.3658616777777778,-0.0566423221533333
810,1778291855020,0.0160085056666666,0.39802626,0.8924649333333333,-0.3490651433333333,-0.3019510866666667,0.00331624354
811,1778291855030,0.0869768024999999,0.370968223,0.769951482,-0.312672425,-0.255856321,-0.0102676391
812,1778291855040,0.13848478,0.34636673,0.67846704,-0.34622192,-0.23199463,-0.056869507
813,1778291855050,0.139257832,0.3081720533333333,0.58548121,-0.5491536433333333,-0.2422841333333333,-0.1507924433333333
814,1778291855060,0.079436261,0.2336258977777777,0.5597471244444444,-0.9196234944444446,-0.173755224,-0.18795607
815,1778291855070,0.0252011096666666,0.2018442666666666,0.6915647866666667,-1.3747355,-0.0933329246666666,-0.16996765
816,1778291855080,-0.0037601711111111,0.2127452555555555,0.8490222111111111,-1.4535657888888889,-0.0509592677777777,-0.1409115266666666
817,1778291855090,-0.02552153,0.2231173999999999,0.9665766,-1.4455719,-0.007751465,-0.11546326
818,1778291855100,0.0106529811111111,0.2352663555555555,1.0758059333333334,-1.1615007000000002,0.0793660505555555,-0.0397118466666666
819,1778291855110,0.0937413955555555,0.2402693155555555,1.0903268,-0.93122862,0.1090715219999999,-0.0171661378888888
820,1778291855120,0.255192582,0.209231114,0.91947438,-0.772537232,0.0025848396,-0.19002991
821,1778291855130,0.2968911966666667,0.1929639555555555,0.8364947833333334,-0.7259267155555555,-0.1487172433333333,-0.4135606422222222
822,1778291855140,0.28089237,0.19139124,0.82868445,-0.7204861077777777,-0.2224595799999999,-0.5276658555555556
823,1778291855150,0.1491011222222222,0.1021329527777777,0.7537998333333333,-0.80393472,-0.3349745,-0.6477372888888888
824,1778291855160,0.0813349238333333,0.0682630722222222,0.7468173222222222,-0.8470153555555555,-0.43676758,-0.6697540266666667
825,1778291855170,-0.0261727379999999,0.0591660438888888,0.920775,-0.7117241666666667,-0.7340884822222222,-0.6216481377777777
826,1778291855180,-0.0584427666666666,0.0515188483333333,1.0411225555555557,-0.5240003799999999,-0.8096025444444445,-0.5610402266666666
827,1778291855190,-0.06481485,0.03348534,1.0723755,-0.42132568,-0.7566376,-0.52345276
828,1778291855200,-0.0529380913333333,0.0212824576666666,0.9750381133333336,-0.4262949666666666,-0.1531626433333333,-0.3464406333333333
829,1778291855210,-0.0275700325555555,0.0317904383333333,0.9297385833333336,-0.4898579866666666,0.06894938,-0.2947743733333333
830,1778291855220,0.0328343046666666,0.0493495394444444,0.9437711555555556,-0.5529395111111112,0.3745049366666666,-0.2274898944444444
831,1778291855230,0.1052925544444444,0.0745143572222222,0.9682308444444444,-0.5052998866666667,0.4833374033333333,-0.2070770266666666
832,1778291855240,0.15654491,0.0974276,0.9675534,-0.41760254,0.49505615,-0.21879578
833,1778291855250,0.1434740944444444,0.0861469148888888,0.94081552,-0.40807258,0.4787224644444444,-0.2241804377777777
834,1778291855260,0.09772624,0.046664517,0.84723294,-0.3355713,0.39546204,-0.26512146
835,1778291855270,0.0028018517777777,0.0025980895555555,0.9148640088888887,-0.24821981,-0.2421654466666666,-0.1946445022222222
836,1778291855280,-0.0169809629999999,-0.033239894,0.9598167,-0.2229766859999999,-0.46677244,-0.149234008
837,1778291855290,-0.0167369678888888,-0.0448712744444444,0.9585367244444444,-0.29456075,-0.3081563233333333,-0.13108317
838,1778291855300,-0.0014828459999999,-0.0329399006666666,0.99037262,-0.3866984,-0.0546213799999999,-0.108530678
839,1778291855310,0.01926247,-0.025210442,1.0323496,-0.4239807,0.1030426,-0.092559814
840,1778291855320,0.023655529,-0.0112319473888888,1.1849946333333332,-0.1672600611111111,0.0569949672222222,-0.1183607335555555
841,1778291855330,-0.0027707429999999,0.0027330669444444,1.3022233777777776,0.2085418722222222,-0.0665181461111111,-0.1296641051111111
842,1778291855340,-0.0132377636666666,-0.0151101583333333,1.2655191888888888,0.5931650777777777,-0.2598029211111111,-0.1039767793333333
843,1778291855350,0.0276016599999999,-0.0238686233333333,1.1145972,0.8145599333333333,-0.4462839733333333,-0.0815429686666666
844,1778291855360,0.0560475746666666,0.0094724085555555,0.93521544,0.8809662,-0.5712738,-0.078704834
845,1778291855370,0.0137712786666666,-0.0302547076666666,0.7097068533333334,0.4807841,-0.5526326566666667,-0.1209665933333333
846,1778291855380,-0.0197173231428571,-0.0530857834285714,0.6536612428571429,0.3334198,-0.5270691,-0.12611389
847,1778291855390,-0.0687616766666666,-0.0650061731111111,0.6459673088888889,-0.29562208,-0.2855004233333333,-0.0585361056666666
848,1778291855400,-0.054768316,-0.0632837883333333,0.7323632600000001,-0.6629638666666666,-0.0963541666666666,-0.0179951988666666
849,1778291855410,0.011941052,-0.075975075,0.8396673,-0.8681946,-0.03704834,0.0075683594
850,1778291855420,0.0574979271111111,-0.0480443563333333,1.0044332555555555,-0.9941406000000002,0.1440531422222222,-0.0201212561777777
851,1778291855430,0.061361793,-0.04022036,1.0790873,-1.0322571,0.32728577,-0.0723114
852,1778291855440,0.0341775078,-0.0419970098888888,1.1722899555555557,-0.8995632555555555,0.3707122788888888,-0.0725589342222222
853,1778291855450,-0.0014418856,-0.0475832589999999,1.2873496666666666,-0.4752892222222222,0.2976871077777778,-0.0292324487555555
854,1778291855460,-0.006241949,-0.0608438369999999,1.2818984,-0.29774475,0.25004578,0.0059814453
855,1778291855470,0.0147470506666666,-0.0553116826666666,1.2210877333333334,-0.15464274,0.2171986933333333,0.0207163492
856,1778291855480,0.0572946844444444,-0.0425934308888888,1.0834942,0.13446045,0.1491377122222222,0.0491807723333333
857,1778291855490,0.0459264656,-0.0288602617499999,1.00621194,0.1276153575,0.110871889,0.0371459958
858,1778291855500,0.0009183963333333,-0.0197064591666666,0.9530723444444446,0.0337320965,0.05493164,0.031911214
859,1778291855510,-0.016369367,-0.03143528,0.9490049,-0.0138549805,0.03326416,0.04006958
860,1778291855520,-0.0275150746666666,-0.0320045693333333,0.9642989333333334,-0.0746951636666666,0.0507795552222222,0.0568813746666666
861,1778291855530,-0.0537384495555555,-0.0351633082222222,0.9986020666666666,-0.2394612655555555,0.1145731633333333,0.1067216664444444
862,1778291855540,-0.0485853037777777,-0.0692906955555555,1.0778804333333332,-0.3656311022222222,0.2740190266666666,0.2324150922222222
863,1778291855550,-0.01307496218,-0.0819142366666666,1.1364816666666666,-0.38652547,0.3983001666666667,0.2905883766666666
864,1778291855560,0.0253369524266666,-0.0818055277777777,1.1959498777777775,-0.3659854477777778,0.5358344111111111,0.3342573399999999
865,1778291855570,0.04610923,-0.08451751,1.2131965,-0.30680847,0.6702881,0.3740387
866,1778291855580,-0.0318687788,-0.078148021,1.24867108,-0.194157405,0.78341981,0.38074037
867,1778291855590,0.0474106064444444,-0.0672708798888888,1.1886014222222223,-0.0272979733333333,0.8841756111111112,0.3989495211111111
868,1778291855600,0.11416042,-0.0267162739999999,1.112522822222222,0.0834401433333333,0.9062499833333332,0.38273112
869,1778291855610,0.1507018311111111,-0.0137673017777777,1.0908962666666666,0.0772298172222222,0.8332180555555555,0.3103518999999999
870,1778291855620,0.12709642,-0.0032052268133333,1.0958454333333334,0.0436706546666666,0.7823232133333333,0.24673462
871,1778291855630,0.0874775,-0.00019598444,1.0973915,0.006378174,0.74113464,0.17962646
872,1778291855640,-0.0149190122222222,-0.0220791855555555,1.1361964666666666,-0.0291900636666666,0.6304643222222223,0.1094953766666666
873,1778291855650,-0.1060481466666666,-0.0422951361111111,1.1381220666666667,-0.0268181688888888,0.4621497255555555,0.0665859644444444
874,1778291855660,-0.1179593,-0.055596585,1.1175872999999998,-0.0024032589999999,0.305175785,0.069366455
875,1778291855670,-0.12774193,-0.058159159,1.1046316,0.0333709713333333,0.166071576,0.0695444733333333
876,1778291855680,-0.14572065,-0.056205537,1.0910454,0.07029724,0.050308228,0.07203674
877,1778291855690,-0.1328126411111111,-0.0495351538888888,1.0503698,0.0847422293333333,-0.1156395826666666,0.0549943711111111
878,1778291855700,-0.1398629,-0.067798175,1.010995,0.08042908,-0.22825623,0.039016724
879,1778291855710,-0.1330839755555555,-0.0531556812222222,0.9930979155555556,0.0321299235555555,-0.3470984611111111,0.0603112115555555
880,1778291855720,-0.0854794555555555,-0.0243435486666666,0.9727061777777778,-0.0575324177777777,-0.3591783355555555,0.0782979333333333
881,1778291855730,-0.0620947128999999,-0.0286157500999999,0.959914807,-0.1218200709999999,-0.321376039,0.086140442
882,1778291855740,0.0155201006666666,-0.0334687493333333,0.94501778,-0.25958252,-0.2792154966666667,0.0849914533333333
883,1778291855750,0.0950830433333333,-0.022159722,0.96234632,-0.3545684799999999,-0.2795715333333333,0.0443318683333333
884,1778291855760,0.1193674866666666,-0.0208179023333333,1.0055443066666667,-0.4129740433333333,-0.2928975466666667,-0.0172831216666666
885,1778291855770,0.1326956344444444,-0.0253604545555555,1.0684164111111112,-0.4593115933333334,-0.2894609244444444,-0.0900200733333333
886,1778291855780,0.12152279,-0.036316227,1.1509621,-0.46925354,-0.2421111999999999,-0.1463623
887,1778291855790,0.0970086637777777,-0.0527901531111111,1.203217377777778,-0.4426286466666667,-0.1805012966666666,-0.1714494477777778
888,1778291855800,0.057092134,-0.07817135,1.3034972,-0.34675598,-0.06262207,-0.20600891
889,1778291855810,0.01343022262,-0.0967316949999999,1.33806887,-0.142062377,-0.03273468001,-0.198341369
890,1778291855820,-0.0120981504,-0.1242168033333333,1.3069144333333331,0.0913679344444444,0.0029008651666666,-0.1673109244444444
891,1778291855830,-0.031379286,-0.13186331,1.2632285,0.14433289,0.010894775,-0.15222168
892,1778291855840,-0.0302132303333333,-0.1257891744444444,1.2279622,0.2028045677777777,-0.0326673723333333,-0.1066487633333333
893,1778291855850,-0.03467369,-0.11282793,1.1535255,0.28282166,-0.1355896,-0.02810669
894,1778291855860,-0.0257807673333333,-0.1064278455555555,1.0284591,0.2501610644444444,-0.2013990577777777,0.0097622344444444
895,1778291855870,-0.024669152,-0.105627835,1.0128258,0.24607849,-0.20962524,0.0144958499999999
896,1778291855880,-0.024669152,-0.105627835,1.0128258,0.24607849,-0.20962524,0.0144958499999999
897,1778291855890,-0.024669152,-0.105627835,1.0128258,0.24607849,-0.20962524,0.0144958499999999
898,1778291855900,-0.0881636171111111,-0.2066540105555555,1.0950868666666669,0.0440216058888888,-0.2361924888888888,0.2140045138888889
899,1778291855910,-0.0978715866666666,-0.2425037822222222,1.168967833333333,0.0961032451111111,-0.3100518044444444,0.2934265111111111
900,1778291855920,-0.09698243,-0.240896916,1.17957776,0.196961976,-0.366691582,0.3171463
901,1778291855930,-0.0687476777777777,-0.2487538444444444,1.1918416777777778,0.3488074388888889,-0.3820749888888889,0.3620825911111111
902,1778291855940,-0.0136720755555555,-0.2561162244444444,1.1989736444444443,0.4523739277777777,-0.3100484111111111,0.3888871955555555
903,1778291855950,0.08845276,-0.2493777599999999,1.1983095,0.5518036,-0.17500305,0.3905487
904,1778291855960,0.1630258722222222,-0.2322529711111111,1.218023722222222,0.6681552444444444,-0.0422566711111111,0.2781660244444445
905,1778291855970,0.24745628,-0.1960922833333333,1.2423209333333334,0.9044121444444444,0.2243635422222222,0.0393049431111111
906,1778291855980,0.0854566505555555,-0.2028577166666666,1.1424342444444444,1.0383402333333334,0.4000735822222221,-0.0954606816666666
907,1778291855990,-0.0830792582222222,-0.2444283722222222,1.0043381555555555,1.1424323222222224,0.5619947622222221,-0.1661224366666666
908,1778291856000,-0.13547036,-0.26341087,0.9496146,1.1589966,0.59573364,-0.14422607
909,1778291856010,-0.1071319366666666,-0.2528760888888889,0.8784855511111112,1.0476226666666666,0.6043616444444445,-0.0520799427777777
910,1778291856020,-0.078884977,-0.218638835,0.8724074680000001,0.973547368,0.5727111880000001,-0.019372559
911,1778291856030,-0.0479346144444444,-0.14573465,0.9017932,0.912991,0.465057371111111,0.0475260427777777
912,1778291856040,-0.0368305576666666,-0.11421019,0.9034472933333334,0.9157664,0.3888905833333333,0.11446635
913,1778291856050,-0.012343909,-0.11136271,0.87627596,0.9384918,0.38746643,0.16844177
914,1778291856060,0.0145714601111111,-0.0659008888888888,0.7936624933333333,0.8530375177777778,0.4887864822222222,0.2228308777777777
915,1778291856070,0.0320355057777777,-0.0234491742222222,0.7417594555555556,0.7632598911111111,0.5600382444444444,0.2610609244444444
916,1778291856080,0.0380147593333333,0.0314103946666666,0.7367558,0.5816870866666667,0.5250040666666667,0.2646077466666667
917,1778291856090,-0.000220871,0.0928727733333333,0.8013088199999999,0.47782559,0.4100714777777777,0.2681020122222222
918,1778291856100,-0.0138340128222222,0.1307015688888889,0.8761268333333333,0.5245768222222222,0.2029978444444444,0.3052046011111111
919,1778291856110,0.0153445113333333,0.1275692722222222,0.8539715888888888,0.6103905666666667,0.1118520111111111,0.3051961288888888
920,1778291856120,0.034895775,0.1260238666666666,0.8183660288888889,0.6529999,0.0716095,0.2999878
921,1778291856130,0.0092428954444444,0.1791733288888889,0.7292038511111111,0.5882602222222223,0.0825059677777777,0.3099958666666667
922,1778291856140,0.0074502091999999,0.242275652,0.655965224,0.43111266,0.2144653319999999,0.2769867
923,1778291856150,0.0181783355199999,0.2777859866666666,0.6240968888888889,0.2532925022222222,0.3404184955555556,0.1618686266666666
924,1778291856160,-0.0323688847666666,0.2829116522222222,0.6540344555555556,0.1527998211111111,0.3099433022222222,0.0506608766666666
925,1778291856170,-0.07250335,0.27558988,0.6890844,0.11077881,0.24632263,-0.0073394775
926,1778291856180,-0.025604313,0.2665198088888889,0.8040484333333333,0.1572994677777777,-0.0769297299999999,-0.0944502066111111
927,1778291856190,0.0172146578,0.2750892088888889,0.8549750022222222,0.1928066688888888,-0.2521718377777777,-0.1362948911111111
928,1778291856200,0.0856733677777777,0.2585466888888889,0.9170467988888888,0.2545911977777778,-0.4242774111111111,-0.1688435888888889
929,1778291856210,0.1056050188888889,0.2560248088888889,0.9362999388888888,0.2800411644444444,-0.4136267755555555,-0.1780141222222222
930,1778291856220,0.115165433,0.255016805,0.94978589,0.3132934539999999,-0.35700073,-0.1912002549999999
931,1778291856230,0.10009949,0.2603502922222221,0.9391740266666666,0.5553537777777778,0.2185635022222222,-0.3244900111111111
932,1778291856240,0.0342718718333333,0.2994668066666666,0.8404803066666666,0.6064910666666666,0.45759582,-0.4250996833333333
933,1778291856250,-0.0170342276666666,0.3366725666666667,0.7697451399999999,0.6244201500000001,0.4849395666666666,-0.5099690666666666
934,1778291856260,-0.0343354716666666,0.3373230911111111,0.7130147222222223,0.6695149611111112,0.2662031355555555,-0.5916408777777777
935,1778291856270,-0.018811395,0.32403538,0.6677283,0.6881561,0.07800293,-0.6369171
936,1778291856280,-0.1198507083333333,0.3643597877777778,0.6865481833333333,0.5352359311111111,-0.4238552566666666,-0.62696838
937,1778291856290,-0.2279677577777777,0.3901751233333333,0.7740154944444444,0.4492475766666666,-0.6385633722222221,-0.5613335466666667
938,1778291856300,-0.2968733933333333,0.4127100533333333,0.9293587333333334,0.4733225533333333,-0.5728759800000001,-0.31981913
939,1778291856310,-0.397124198,0.4681026,1.077086,0.6088958800000001,-0.249468996,0.030374146
940,1778291856320,-0.41894317,0.4827952,1.0712774,0.6817627,-0.06794739,0.18760681
941,1778291856330,-0.3196651422222222,0.54033825,0.8210368788888889,0.5539940711111111,0.2732442211111111,0.5515747055555555
942,1778291856340,-0.2270185977777778,0.5612050555555556,0.6786835777777778,0.4053887255555555,0.3666924377777778,0.6960364388888889
943,1778291856350,-0.0578866119444444,0.5753467444444444,0.5914751722222222,0.0439080177777777,0.1492614807777778,0.7104848166666666
944,1778291856360,0.0360267238125,0.598462825,0.61228258125,-0.1970806124999999,-0.060150146625,0.6671218875
945,1778291856370,0.083083406,0.6281317,0.6719995,-0.2929535,-0.1590271,0.62916565
946,1778291856380,0.0925203842222222,0.6342194855555555,0.6818296555555555,-0.3072764155555555,-0.1675482855555555,0.6089257144444445
947,1778291856390,-0.008805301,0.7369808,0.9487607,-0.4500885,-0.082855225,0.14926147
948,1778291856400,-0.12207769925,0.7363706999999999,0.977437015,-0.376853945,0.08999252325,0.0758934015
949,1778291856410,-0.204355005,0.754491865,0.98018275,-0.284973145,0.251380915,0.028358459
950,1778291856420,-0.1280537111111111,0.7926794300000001,0.956461977777778,-0.17726135,0.2341274611111111,0.0260450572222222
951,1778291856430,-0.0029065833333333,0.8056142533333334,0.9320023,-0.0704972993333333,0.1155293757777777,-0.0016513401111111
952,1778291856440,0.04623055,0.80311936,0.9209387,-0.010131836,0.017288208,-0.031829834
953,1778291856450,0.103486626,0.751073815,0.86241319,0.1334716804,-0.2890914912,-0.1389495834
954,1778291856460,0.1238818666666666,0.70065578,0.82087458,0.19422404,-0.4880116766666666,-0.1873728399999999
955,1778291856470,0.1258344533333333,0.6261381466666667,0.7876018466666667,0.0340779613333333,-0.5497996033333333,-0.18772888
956,1778291856480,0.0765621677777777,0.5719712555555555,0.7787613055555556,-0.1843024335555555,-0.5069444477777778,-0.20168898
957,1778291856490,0.04342455,0.54686034,0.77914083,-0.30148315,-0.4674072299999999,-0.20973206
958,1778291856500,-0.0302396736,0.5212341166666666,0.8585409333333334,-0.6416524133333333,-0.2650197333333333,-0.2340596533333333
959,1778291856510,-0.0867803222222222,0.504828438888889,0.962455222222222,-0.7789611866666667,-0.0950469955555555,-0.2480299266666666
960,1778291856520,-0.105280666,0.492313514,1.05582826,-0.7617858999999999,0.146609496,-0.2347656279999999
961,1778291856530,-0.12802605,0.48743197,1.2102677,-0.5704651,0.55311584,-0.17510986
962,1778291856540,-0.1294363166666666,0.5129216855555555,1.2267552555555554,-0.4644012555555556,0.6488071000000001,-0.14818149
963,1778291856550,-0.1236063838888888,0.5558084055555556,1.1236819655555557,-0.0124884833333333,0.7473449722222223,0.0015462255555555
964,1778291856560,-0.102807318,0.6220297,0.9097929366666668,0.6521199333333334,0.7457529666666667,0.2291564966666666
965,1778291856570,-0.0652082039999999,0.681714911111111,0.7238614388888889,0.7616034444444444,0.4000159333333333,0.2329440655555555
966,1778291856580,-0.0539000411111111,0.7175510366666666,0.6336959900000001,0.7766943922222223,0.0994313535555555,0.1868421772222222
967,1778291856590,-0.08275365,0.73002493,0.61135167,0.74354553,-0.023208618,0.121032715
968,1778291856600,-0.2002267922222222,0.7268795077777779,0.60652503,0.3153144044444444,-0.3934987422222222,-0.0726148822222222
969,1778291856610,-0.182975896,0.70557029,0.6292289,0.0866027805,-0.418151856,-0.1067367545
970,1778291856620,-0.1927425711111111,0.7129267555555556,0.7066827333333333,-0.2369723799999999,-0.3097618955555555,-0.08344523
971,1778291856630,-0.2489163066666667,0.7595148866666667,0.8251862466666666,-0.4637552833333333,-0.177134198,0.0439809173333333
972,1778291856640,-0.2900803,0.80482876,0.91019994,-0.60720825,-0.052490234,0.24247742
973,1778291856650,-0.2792603688888889,0.8100349688888889,0.950875888888889,-0.6108211888888889,-0.0622558587777777,0.4351128466666666
974,1778291856660,-0.2156297155555555,0.8047741444444444,1.0273055555555557,-0.6045532,-0.10948181,0.9599304
975,1778291856670,0.0772264199999999,0.7146486999999999,1.0247233,-0.533439625,-0.28871154,1.30773925
976,1778291856680,0.277964,0.6354116333333333,1.0216927999999998,-0.4953562433333334,-0.4306589666666667,1.3306427
977,1778291856690,0.3754097555555555,0.5495179222222223,1.0648638555555554,-0.4117346911111111,-0.5919901555555556,1.0772315
978,1778291856700,0.3711796711111111,0.5211800111111111,1.0932826555555557,-0.3642086488888889,-0.63495382,0.9475029822222224
979,1778291856710,0.3664349,0.5133019,1.1058111,-0.34196472,-0.6415863,0.8906860399999998
980,1778291856720,0.1901028277777777,0.42759744,1.230308188888889,0.0313534204444444,-0.3721906866666666,0.3083428288888888
981,1778291856730,0.1175628366666666,0.4097139422222222,1.2401381666666669,0.2208591033333333,-0.1692589618888889,0.0765906436666666
982,1778291856740,0.034719837,0.4296585444444444,1.1473960333333333,0.3931952666666667,0.2894592302222222,-0.1050415075555555
983,1778291856750,-0.0073120858888888,0.4584568466666666,1.050261011111111,0.45687528,0.5938890333333333,-0.1931084555555555
984,1778291856760,-0.0130749615,0.47242203,1.0078219,0.4607238799999999,0.6894684,-0.2129363999999999
985,1778291856770,-0.0280167871111111,0.4940211177777778,0.9116905444444444,0.4243859199999999,0.7155066711111111,-0.2071363644444444
986,1778291856780,-0.0519752788888888,0.5292871055555556,0.7371768111111111,0.2354770244444444,0.6960923866666666,-0.1596154077777777
987,1778291856790,-0.0287360886666666,0.5466965233333334,0.6919718066666667,0.0353190106666666,0.4977213466666666,-0.1058705633333333
988,1778291856800,-0.0066216474444444,0.56349655,0.7209738766666667,-0.1329294862222222,0.2856750477777778,-0.0829128683333333
989,1778291856810,0.002056281,0.57212055,0.74570525,-0.21199036,0.17654419,-0.078186035
990,1778291856820,-0.0326678744444444,0.5890135888888888,0.8892239099999999,-0.2983381499999999,-0.1224399155555555,-0.0924411355555555
991,1778291856830,-0.0591349333333333,0.5968503888888889,0.9473234355555556,-0.2930145255555555,-0.2236429866666666,-0.0930345322222222
992,1778291856840,-0.0758661986666666,0.6066807088888889,0.9899925555555554,-0.2592942977777778,-0.2741326244444444,-0.0851593
993,1778291856850,-0.0863062611111111,0.637675651111111,1.0528510111111111,-0.1644151477777777,-0.2796342722222222,-0.0409528931111111
994,1778291856860,-0.08678067,0.64960754,1.0796969,-0.120910645,-0.2559662,-0.011062622
995,1778291856870,-0.092101485,0.685764614,1.08643336,0.033659362,-0.1343048126,0.1248168948
996,1778291856880,-0.0978304544444444,0.7081411644444444,1.065378988888889,0.1413252066666666,-0.0654500324444444,0.2330101833333333
997,1778291856890,-0.0740898966666666,0.714838901111111,0.9828339277777778,0.2253061933333333,-0.0376383464444444,0.3965250644444444
998,1778291856900,-0.0384732225,0.7161742,0.89734156875,0.23728943,-0.020805359,0.52849579
999,1778291856910,-0.02881749,0.71635735,0.8743239,0.21092224,-0.016281128,0.56578064
1000,1778291856920,0.0072019091666666,0.7249806583333335,0.8430636133333334,-0.0136744166666666,0.020746867,0.6060841833333334
