id,timestamp,acc_x,acc_y,acc_z,gyro_x,gyro_y,gyro_z
0,1778289862990,0.046138780375,0.12418239375,0.9523152125,0.051193237,-0.10643005,-0.0016784668
1,1778289863000,0.04487285375,0.11902652375,0.9505153875,0.038604736,-0.0944480875,-0.0018787384
2,1778289863010,0.0414994445555555,0.1206951322222222,0.9600422555555556,-0.0349867075555555,-0.0189598932666666,0.0073174369111111
3,1778289863020,0.0465971143333333,0.11662785,0.9698311,-0.0770060233333333,0.0327707926,0.011820475
4,1778289863030,0.04915943,0.11365853,0.9732883,-0.09049988,0.050704956,0.012710571
5,1778289863040,0.047911628,0.110011042,1.0340591555555556,-0.1239946133333333,0.1098310666666666,0.0050082735555555
6,1778289863050,0.047084484,0.109631516,1.0383302,-0.12458801,0.11515808,0.004180908
7,1778289863060,0.033282962,0.1155701528888888,1.0522143333333334,-0.06836107,0.0816599526666666,-0.0029161240888888
8,1778289863070,0.0332015611111111,0.1025124744444444,1.0396315888888887,-0.0258670381666666,0.0580427384444444,-0.0022650824222222
9,1778289863080,0.04252966,0.1021872193333333,1.0101821,0.0025380451,0.0357920333333333,-0.0016784667866666
10,1778289863090,0.051315259,0.1278948846666666,0.969099,-0.0280049653333333,0.0343780516666666,-0.0252939861333333
11,1778289863100,0.0510710563333333,0.13505402,0.9509569333333332,-0.08457947,0.0550876188888888,-0.0465393067777777
12,1778289863110,0.0211177898,0.1183441159999999,0.97433756,-0.212362668,0.117489624,-0.0684722887999999
13,1778289863120,0.0085655913888888,0.1118143055555555,1.0113752,-0.2367350255555555,0.122434828,-0.0680152055555555
14,1778289863130,0.0180834531666666,0.1069872833333333,1.058830733333333,-0.1932983433333333,0.115331012,-0.0547637946666666
15,1778289863140,0.0320756033333333,0.1034891159999999,1.0940966,-0.1013234488888888,0.1423238122222222,-0.039023506
16,1778289863150,0.037271043,0.1049767744285714,1.0996751428571427,-0.0515311121428571,0.1620309028571428,-0.0319649837142857
17,1778289863160,0.0412692423333333,0.1153669116666666,1.0674945333333332,0.0366312663333333,0.1712544733333333,-0.022979736
18,1778289863170,0.0412687233333333,0.11898692,1.0481729666666666,0.064503988,0.1643320666666666,-0.021377563
19,1778289863180,0.0253293214285714,0.1216070142857142,1.0071076142857145,0.0696825285714285,0.1032802,-0.0130070276428571
20,1778289863190,0.0218932244444444,0.1269583411111111,0.9964196277777776,0.0534379743333333,0.0440148233333333,-0.0071784125777777
21,1778289863200,0.022435552,0.12817849,0.99696195,0.046859741125,0.0288658132875,-0.00693511965
22,1778289863210,0.0216358873333333,0.1282747522222222,1.0097209555555555,0.0132497148888888,-0.0312127007111111,-0.0072970920222222
23,1778289863220,0.0228833444444444,0.1249528666666666,1.0161888111111113,0.0030704075555555,-0.0441148547777777,-0.0064697266
24,1778289863230,0.0337169287777777,0.1150542722222222,1.0714678666666666,-0.0255143907777777,-0.0390777591111111,-0.0031585693333333
25,1778289863240,0.0448887323333333,0.1155696366666666,1.1187875333333333,-0.0343882239999999,-0.019780477,-0.0061187741333333
26,1778289863250,0.04915943,0.1167087299999999,1.1355867,-0.035629272,-0.0116119385,-0.008071899
27,1778289863260,0.050584207,0.1167496966666666,1.2597309,0.0224253339999999,-0.014638265,-0.033274332
28,1778289863270,0.0506925691111111,0.1172244488888888,1.294210688888889,0.0533803306666666,-0.0151723227777777,-0.0390150274444444
29,1778289863280,0.0450923233333333,0.1326131988888889,1.334412411111111,0.2557762937777778,-0.0096028645555555,-0.0490858292222222
30,1778289863290,0.0465566744444444,0.1432160588888889,1.3075659666666666,0.4653981666666666,0.0036519369999999,-0.0565388996666666
31,1778289863300,0.0474753637999999,0.148228477,1.25217259,0.539559955,0.0207656860999999,-0.0602142342
32,1778289863310,0.0332955786666666,0.1552694533333333,1.1290778,0.58365375,0.0661519343333333,-0.0643514
33,1778289863320,0.0261908833333333,0.1566390944444444,1.0955471444444445,0.5693325222222222,0.0734931077777777,-0.0622185591111111
34,1778289863330,-0.0044661642222222,0.1476226044444444,1.0940288444444444,0.4176957844444444,0.0428382022222222,-0.0340559218888888
35,1778289863340,-0.009252055,0.1383762533333333,1.1632329444444445,0.3020596066666667,0.0472734235555555,-0.0066494412133333
36,1778289863350,-0.0043163237555555,0.1380909166666666,1.2586996777777777,0.22974142,0.0287492537777777,0.0143076576533333
37,1778289863360,0.0056633280222222,0.1304836411111111,1.385203122222222,0.2070753288888888,0.0373942055555555,0.0326572002222222
38,1778289863370,0.0150055982222222,0.1222134066666666,1.486690388888889,0.2463141511111111,0.0635528584444444,0.0417090522222222
39,1778289863380,0.017555124,0.1253325666666666,1.6269959,0.478892,0.1510162366666666,0.0560251866666666
40,1778289863390,0.0126332187666666,0.1294814233333333,1.6720651000000002,0.685908,0.2062327066666666,0.06330363
41,1778289863400,0.00272822786,0.1204308849999999,1.6693395,1.1036773800000002,0.252148436,0.075878908
42,1778289863410,-0.0113256195266666,0.1156920026666666,1.6038915666666669,1.4120704,0.2315063477777778,0.1012488477777777
43,1778289863420,-0.0157053706666666,0.1202475157777777,1.5641105222222222,1.5724487555555555,0.2087826222222222,0.119834052
44,1778289863430,0.0035755927777777,0.1609778811111111,1.3176797999999998,1.8673434777777775,0.1449771466666666,0.1449161066666666
45,1778289863440,0.0038875433666666,0.1707268133333333,1.248666133333333,1.9056345666666663,0.13432312,0.1467488566666666
46,1778289863450,0.0041720144777777,0.1939800055555555,1.0874540222222222,1.8651580999999997,0.16664124,0.1662902833333333
47,1778289863460,0.0104359124333333,0.21225737,1.0380455999999998,1.7598724666666667,0.1991272,0.1783548999999999
48,1778289863470,0.0126458357777777,0.2201214611111111,1.0366894555555557,1.708916588888889,0.2192467588888888,0.18089464
49,1778289863480,0.0083614842666666,0.22445973,1.1612943666666666,1.6453654333333334,0.4075673433333333,0.1906127933333333
50,1778289863490,0.0033989301999999,0.2221660959999999,1.2028734399999998,1.6759399599999998,0.4714813249999999,0.193594361
51,1778289863500,-0.0139294125333333,0.2354841166666667,1.1868387666666669,1.8578796333333336,0.5181732166666666,0.2104899066666666
52,1778289863510,-0.0125461149777777,0.2483238622222222,1.133241522222222,1.9853532444444444,0.4940880666666667,0.2178921144444444
53,1778289863520,-0.0031901912,0.25618744,1.0859218,2.0336456,0.47254944,0.21884155
54,1778289863530,-0.0010474970888888,0.26285852,0.9891656,2.116322822222222,0.4009958911111111,0.2142808711111111
55,1778289863540,-9.816499999999988e-05,0.2702884644444444,0.9552145,2.1517096444444443,0.3582678888888889,0.2122141566666666
56,1778289863550,0.0151953619999999,0.2968091,0.8595170944444445,2.211966611111111,0.2006717255555555,0.1849280511111111
57,1778289863560,0.02219135,0.30792734,0.80793965,2.2238007,0.14125061,0.1714325
58,1778289863570,0.015602072,0.31803173,0.7818009050000001,2.20605774,0.122079467,0.163288877
59,1778289863580,-0.0142819772222222,0.3495121422222222,0.7220046222222223,2.0432315333333335,0.1121910949999999,0.1364542655555555
60,1778289863590,-0.023203935,0.36369422,0.7025078,1.9516144,0.09970093,0.12402344
61,1778289863600,-0.0235831144444444,0.3842088088888888,0.738884828888889,1.8379974666666663,0.1501261433333333,0.1073404933333333
62,1778289863610,-0.027068147,0.4000182333333333,0.7696630533333333,1.7605896,0.17285665,0.0918986
63,1778289863620,-0.044761706,0.4120324066666667,0.7818928777777778,1.7512393222222222,0.1318478044444444,0.0855000788888888
64,1778289863630,-0.0349859884444444,0.4181198266666667,0.802082061111111,1.7687564222222223,0.0701243066666666,0.0876363122222222
65,1778289863640,-0.0286405166666666,0.42199734,0.8128477277777777,1.7862735111111112,0.0431332044444444,0.0857442233333333
66,1778289863650,0.000972491,0.4413598999999999,0.8160741833333334,1.9018554888888888,-0.033937242,0.0654381644444444
67,1778289863660,0.0067891153333333,0.4451561922222222,0.7993026388888889,1.9294281333333332,-0.045766194,0.0557301833333333
68,1778289863670,-0.0053139784,0.454996226,0.74577896,1.94181522,-0.049429322,0.0412567136
69,1778289863680,0.0018934786666666,0.4855198233333333,0.6749688333333334,1.9274699,-0.0913340233333333,0.0343678786666666
70,1778289863690,0.009621902,0.49768227,0.6540607,1.9180603,-0.11122131,0.03401184
71,1778289863700,0.0023013480777777,0.5262918077777778,0.6324765066666668,1.838701022222222,-0.0849490686666666,0.0154842798888888
72,1778289863710,-0.0055902228333333,0.5469007666666666,0.62583275,1.799112933333333,-0.0572509763333333,0.005065918
73,1778289863720,-0.0465794878888888,0.5661001888888889,0.6134392433333333,1.7366231333333333,-0.021026611,0.0214131673333333
74,1778289863730,-0.0438400275555555,0.5715777111111112,0.6188896422222222,1.7092743222222222,-0.0341627326666666,0.0459204781111111
75,1778289863740,-0.0351621,0.5730958,0.6255061,1.7071381,-0.04623413,0.055862427
76,1778289863750,0.0188162344444444,0.59266108,0.6221569422222222,1.7811295888888887,-0.0642869706666666,0.0422380236666666
77,1778289863760,0.0220701984444444,0.5957256266666666,0.6108759111111112,1.793202677777778,-0.0629255477777777,0.0373857286666666
78,1778289863770,0.020808052,0.6152775866666667,0.5082374199999999,1.8243255333333337,-0.0927530933333333,0.020517985
79,1778289863780,0.0199672544444444,0.6257992222222222,0.4662054911111111,1.8274620666666668,-0.1106279177777777,0.015250312
80,1778289863790,0.0085237678,0.635184314,0.435287962,1.7785247599999998,-0.098120118,0.0074859616
81,1778289863800,-0.0287353963333333,0.67494933,0.35799253,1.4946814444444445,0.0575154624444444,0.005786472
82,1778289863810,-0.0300098138888888,0.6857830777777778,0.3461695111111111,1.4437882888888889,0.0864495184444444,0.0106319851111111
83,1778289863820,0.0010131047777777,0.7303631488888889,0.3304409777777778,1.2385542,0.1049228233333333,0.0151282419999999
84,1778289863830,-0.002459138,0.7381194,0.38205974,1.1324411666666667,0.1680653866666666,0.00507100437
85,1778289863840,-0.006120625,0.7396655,0.40829626,1.0903625,0.1993103,-7.6293945e-05
86,1778289863850,-0.009252574,0.7377804888888888,0.4410811333333333,1.0918951666666663,0.2067684611111111,-0.0057576497533333
87,1778289863860,-0.011001571,0.73710215,0.4689441,1.0978088,0.2062378,-0.011795044
88,1778289863870,-0.0068105457222222,0.7403834011111111,0.4813915411111111,1.1201782333333332,0.2287292533333333,-0.0326300717777777
89,1778289863880,-0.0163705767777777,0.7341191466666666,0.4889030677777778,1.1320716333333334,0.2545318666666667,-0.0423973915555555
90,1778289863890,-0.0455351182999999,0.747962468,0.47101921,1.17045896,0.21443176,-0.015734863398
91,1778289863900,-0.0532227375555555,0.7608839777777777,0.4588837388888889,1.1967603777777778,0.1481747066666666,0.01111178915
92,1778289863910,-0.055052962,0.7683414,0.4514937,1.2059326,0.10823059,0.024429321
93,1778289863920,-0.0363552848888888,0.7874727555555556,0.4815945933333332,1.2326321,0.0669233524444444,0.0505286311111111
94,1778289863930,-0.0223090426666666,0.7949035666666666,0.4977019333333333,1.2558288333333334,0.0247853593333333,0.06011454
95,1778289863940,-0.002892585,0.8271592555555556,0.5272192444444443,1.3431752666666668,-0.125600177,0.05497233
96,1778289863950,-3.1627115555555556e-05,0.8310505655555556,0.50704371,1.4274020666666667,-0.2010616733333333,0.019870334
97,1778289863960,0.0005243534155555,0.82931504,0.4947730711111111,1.4439748,-0.2023637577777778,0.0086822505555555
98,1778289863970,0.0094196961666666,0.8333823333333333,0.4220441866666666,1.484561511111111,-0.1773240866666666,-0.0275963684444444
99,1778289863980,0.0103144152222222,0.8364738444444444,0.3993602755555556,1.4924367333333337,-0.1629435266666666,-0.0426313622222222
100,1778289863990,-0.0099839728888888,0.8454098333333334,0.3132216822222222,1.4204084777777777,-0.0154012055555555,-0.0617455388888888
101,1778289864000,-0.0247766501111111,0.8723372844444444,0.2497942666666666,1.3039940666666665,0.0964541966666666,-0.05830892
102,1778289864010,-0.0218479438888888,0.888363408888889,0.2283987755555555,1.2297820666666666,0.1042633055555555,-0.0487230088888888
103,1778289864020,-0.0173589330999999,0.902866852,0.238212403,1.09004208,0.0574218752,-0.0336395263999999
104,1778289864030,-0.0166553942222222,0.9051364888888888,0.2421878622222222,1.0689391777777777,0.054558648,-0.0321011013333333
105,1778289864040,-0.0221598945555555,0.9122545333333332,0.2354892999999999,0.9356028444444444,0.1137407122222222,-0.031743368
106,1778289864050,-0.032966863,0.9171356266666666,0.2302962366666666,0.8554738399999999,0.1559906033333333,-0.024052938
107,1778289864060,-0.037848327,0.9192914399999998,0.22805901,0.82884216,0.17001343,-0.020324707
108,1778289864070,-0.0381314166666666,0.9187626166666668,0.21931436,0.7158033666666666,0.1942155588888889,-0.00451321085
109,1778289864080,-0.038944907,0.9166068,0.22147019,0.6871643,0.19184875,0.00045776367
110,1778289864090,-0.0203288061111111,0.9270188444444444,0.2342423711111111,0.6157837,0.2188364633333333,0.0150146486666666
111,1778289864100,-0.0043292858,0.92945982,0.2416052666666666,0.5875549333333334,0.2282511366666667,0.0189208986666666
112,1778289864110,0.0020841061111111,0.92308793,0.3186183199999999,0.59891764,0.1600748699999999,0.0125223793333333
113,1778289864120,-0.0071368403333333,0.9231141833333332,0.3378445066666666,0.6366102433333333,0.1208936922222222,0.0108116994444444
114,1778289864130,-0.013686246,0.9238053000000002,0.33837336,0.65838623,0.11355591,0.012710571
115,1778289864140,-0.032803026,0.9328366866666666,0.3046526333333333,0.6834259,0.12142266,0.0147722032222222
116,1778289864150,-0.0399483345555555,0.9382060444444444,0.2775353966666667,0.6715918611111111,0.1230807833333333,0.0169677733333333
117,1778289864160,-0.0335627651111111,0.955561011111111,0.2434354822222222,0.6422339511111111,0.0760972777777777,0.0199347608888888
118,1778289864170,-0.0262142146666666,0.9635880666666669,0.22325946,0.6234181666666667,0.0476888026666666,0.02017212
119,1778289864180,-0.014418078,0.968957155,0.195172505,0.5723724349999999,0.002761841,0.0188369755
120,1778289864190,-0.0006959694577777,0.9708555622222222,0.1472214711111111,0.4744635711111111,-0.077492608,0.0125291608888888
121,1778289864200,0.00278940797,0.9731876666666668,0.13165696,0.4311421733333333,-0.112289428,0.0072021482666666
122,1778289864210,-0.0086819032,0.97575,0.1284843933333333,0.3475138333333333,-0.18028768,0.0095113118
123,1778289864220,-0.0212783102222222,0.9701637666666666,0.1382462766666666,0.2987467422222222,-0.2172156466666666,0.0144839815555555
124,1778289864230,-0.0285456343333333,0.9616896,0.1484015144444444,0.24986267,-0.2470397999999999,0.024429321
125,1778289864240,-0.0458199176666666,0.9632619333333334,0.1623679166666666,0.2146487777777778,-0.20810106,0.0236562091111111
126,1778289864250,-0.0593246959999999,0.962408,0.1698930966666666,0.1945241333333333,-0.1625349231111111,0.0148942737777777
127,1778289864260,-0.0685172973333333,0.9413381333333332,0.16794051,0.1871897366666667,-0.0421600341333333,0.0237172446666666
128,1778289864270,-0.0588364615555555,0.9373242666666668,0.15800217,0.1821628133333333,0.0356682681333333,0.0311194517777777
129,1778289864280,-0.0500506899999999,0.93905944,0.15057205,0.1774292,0.06668091,0.03135681
130,1778289864290,-0.0426744884444444,0.9449847777777778,0.1000649188888888,0.1371171777777777,0.1822696266666666,0.0106947156666666
131,1778289864300,-0.0437864483333333,0.9510186333333333,0.075157958,0.1048075383333333,0.2241719566666667,0.0015207926
132,1778289864310,-0.0458199183333333,0.9603740333333334,0.0446507513333333,0.0145551894444444,0.2447068977777778,-0.0148111978888888
133,1778289864320,-0.0487078366666666,0.9617972666666668,0.0369627693333333,-0.046286689,0.2521599688888889,-0.0220303005555555
134,1778289864330,-0.05066042,0.960414,0.035253868,-0.07611084,0.25256348,-0.022445679
135,1778289864340,-0.06156158,0.9590044,0.0393761088888888,-0.1672498888888889,0.2056952622222222,-0.0117916532666666
136,1778289864350,-0.0696598685,0.958230732,0.051044925,-0.292842098,0.1295364412,0.00328369143
137,1778289864360,-0.04265997,0.957350817777778,0.08340106,-0.3620808933333333,0.0559794106666666,0.0056050617777777
138,1778289864370,-0.0296710762222222,0.954313577777778,0.0999429097777777,-0.3997158488888889,0.0285169813333333,0.0022888182222222
139,1778289864380,-0.0241665756666666,0.9429246866666668,0.1428429308888888,-0.4531572166666666,0.0301666262222222,-0.0345848935555555
140,1778289864390,-0.0290480391111111,0.9396836844444444,0.1684147466666666,-0.4780731211111111,0.0275132924444444,-0.0581342922222222
141,1778289864400,-0.0319900533333333,0.9402799266666668,0.1733907466666666,-0.4880167633333333,0.035268148,-0.0664774586666666
142,1778289864410,-0.0315557427777777,0.9446862777777776,0.1751668822222222,-0.5257738111111112,0.0616472031111111,-0.0949520533333333
143,1778289864420,-0.0304439533333333,0.9471538866666666,0.1693227766666666,-0.5501556666666666,0.059041341,-0.1059010826666666
144,1778289864430,-0.0289633892,0.950115744,0.152279286,-0.6098099,0.0501708984999999,-0.12258911
145,1778289864440,-0.0285190197777777,0.9501380666666668,0.1503546344444444,-0.635376,0.051239014,-0.12898254
146,1778289864450,-0.0323699228888888,0.9489991444444444,0.1510872444444444,-0.6476864488888889,0.0492265491111111,-0.1285078222222222
147,1778289864460,-0.0683277077777777,0.9305999666666666,0.13602339,-0.8012610511111111,-0.0141075988888888,-0.1040005146666666
148,1778289864470,-0.0694116766666666,0.9209998333333334,0.11880338,-0.87097678,-0.059555054,-0.0806783053333333
149,1778289864480,-0.0714181766666666,0.9055017088888888,0.1223558183333333,-0.963831591111111,-0.0979020835555555,-0.0504472527777777
150,1778289864490,-0.0798247693333333,0.8947638533333334,0.1195764326666666,-1.03236392,-0.1110382066666666,-0.022984823
151,1778289864500,-0.0842586163333333,0.8881473777777777,0.1162274141111111,-1.0572205,-0.1144103999999999,-0.012329102
152,1778289864510,-0.091710447,0.87016312,0.1212602349999999,-1.1757874,-0.1962371839999999,0.0541473389999999
153,1778289864520,-0.0887605566666666,0.8652868611111111,0.1319149755555555,-1.204939122222222,-0.2223680288888888,0.0781012626666666
154,1778289864530,-0.055568331,0.8602968422222221,0.1480220022222222,-1.2787357222222222,-0.2137841133333333,0.1239132377777777
155,1778289864540,-0.037236872,0.8569483511111111,0.1549232833333333,-1.3549652333333333,-0.1536610933333333,0.1364593533333333
156,1778289864550,-0.02942722,0.8546166,0.15801479,-1.3842621,-0.12614441,0.13787842
157,1778289864560,-0.0165057266666666,0.8421961055555555,0.1535000588888888,-1.5433434333333331,-0.0786794011111111,0.1688283277777777
158,1778289864570,-0.0064858061366666,0.8342777377777778,0.1539748111111111,-1.6151919666666668,-0.0706905766666666,0.1784752733333333
159,1778289864580,-0.0022958175466666,0.8121774666666667,0.2066505477777777,-1.7911851666666665,-0.1270819777777777,0.1923845055555555
160,1778289864590,0.0015547407777777,0.7950393777777778,0.2589331166666666,-1.8676486333333335,-0.1675618533333333,0.1938086611111111
161,1778289864600,0.009012173,0.7892091,0.2851698,-1.8833313000000005,-0.17407227,0.19114685
162,1778289864610,0.0345657461,0.758457756,0.404293794,-1.86943362,-0.103288269,0.0864746108
163,1778289864620,0.0328491713333333,0.7450343333333334,0.4343694166666667,-1.836817466666667,-0.0533447273333333,0.0347137453333333
164,1778289864630,-0.0025804614444444,0.7168317622222222,0.4023439544444444,-1.7684580444444444,0.1404164595555555,-0.0504506433333333
165,1778289864640,-0.0194346052222222,0.7124660066666667,0.3411803922222222,-1.7811787555555556,0.2488386322222222,-0.0838233111111111
166,1778289864650,-0.0337938339999999,0.7094424211111111,0.2713390666666667,-1.8982493,0.2854817677777778,-0.0938229044444444
167,1778289864660,-0.0240578666666666,0.7100936433333334,0.2852501666666666,-2.0243072333333334,0.2131652833333333,-0.0998586
168,1778289864670,-0.0205864882222222,0.7034365666666667,0.3294244444444444,-2.1089951888888887,0.1591864699999999,-0.1081424277777777
169,1778289864680,-0.0230952281111111,0.6665295911111111,0.4611612377777777,-2.174090955555555,0.0779859766666666,-0.12110901
170,1778289864690,-0.0125875935555555,0.65179101,0.51907032,-2.1699456666666666,0.0580410444444444,-0.1322953977777777
171,1778289864700,-0.0187294753333333,0.6370928911111111,0.5681799777777777,-2.131123855555556,0.0827840177777777,-0.1535356355555555
172,1778289864710,-0.045108305,0.61367005,0.5856030499999999,-2.0694885,0.1005096419999999,-0.158004765
173,1778289864720,-0.064558896,0.5963896,0.5825523188888888,-2.026375666666667,0.0846727130777777,-0.1472083211111111
174,1778289864730,-0.0977500903333333,0.5792109433333333,0.5682211488888889,-1.9345228555555556,-0.1495124005111111,-0.0539957687777777
175,1778289864740,-0.096665435,0.57712287,0.5680314,-1.9222107,-0.19058228,-0.036834717
176,1778289864750,-0.0336168609444444,0.5625878466666667,0.5973050888888889,-1.9428134555555556,-0.3574727422222222,0.0131191678888888
177,1778289864760,0.0099884662,0.5511305333333333,0.62676807,-1.9740041333333336,-0.4992692777777777,0.0499996612222222
178,1778289864770,0.019018268,0.544297,0.63783133,-1.9818726,-0.52827454,0.053726196
179,1778289864780,0.0174052838888888,0.5025498944444444,0.7640778033333333,-1.9712829444444449,-0.5963371988888889,0.0523613828888888
180,1778289864790,0.00281315452,0.488749724,0.81033186,-1.9450195,-0.571743754,0.052548218
181,1778289864800,-0.0504022195555555,0.4689781488888889,0.7923203311111111,-1.818296622222222,-0.4566633433333333,0.0737915046666666
182,1778289864810,-0.0644220186666666,0.4615618533333333,0.7698261666666667,-1.789352411111111,-0.4273105111111111,0.08822632
183,1778289864820,-0.067134,0.45912156,0.7592499,-1.7853241,-0.4206848,0.09579468
184,1778289864830,-0.0514338155555555,0.4533996355555555,0.7869099844444444,-1.9178992666666668,-0.4948340488888889,0.212748211111111
185,1778289864840,-0.0345264424444444,0.4528030399999999,0.8279250055555556,-1.9692688333333337,-0.5148366277777777,0.2621663422222222
186,1778289864850,0.0683990863333333,0.4607894733333333,0.9911451666666664,-1.9306793555555557,-0.40376112,0.2745903866666667
187,1778289864860,0.1221939649999999,0.44887124,1.0898866,-1.83939365,-0.235595705,0.2353515649999999
188,1778289864870,0.1396648366666666,0.4093746733333333,1.1365221333333335,-1.6562601666666668,0.0375671366666666,0.1499532073333333
189,1778289864880,0.1093470466666666,0.38313783,1.1137301666666666,-1.5287814888888889,0.21031698,0.0929022904444444
190,1778289864890,0.0735517171111111,0.3734564766666666,1.0848771888888888,-1.4718458888888888,0.2902086111111111,0.0682813868888888
191,1778289864900,-0.0215769543333333,0.3829344,1.0277133666666665,-1.415329,0.3844960533333333,0.072545372
192,1778289864910,-0.0601924555555555,0.3797077577777777,1.0090293666666663,-1.398754533333333,0.3953806566666666,0.0823720333333333
193,1778289864920,-0.0780220255555555,0.3628270077777777,1.0520785333333331,-1.3857337,0.3063032344444444,0.1501295333333333
194,1778289864930,-0.0587011415555555,0.3598843,1.1135673,-1.3164944444444444,0.2441694477777777,0.2266523611111111
195,1778289864940,-0.0372375113,0.3649025019999999,1.12566564,-1.2686768,0.24085999,0.24867249
196,1778289864950,-0.0101063332222222,0.3528755266666666,1.012757531111111,-1.1532745666666666,0.1254526766666666,0.2793782566666667
197,1778289864960,-0.0080592117777777,0.3494585877777777,0.988934721111111,-1.1374156111111111,0.0780504003333333,0.2877231177777777
198,1778289864970,0.0206450762222222,0.3370930688888889,0.8833397311111111,-1.2249434,-0.0604417586666666,0.3177286766666667
199,1778289864980,0.0389089595555555,0.3109111644444444,0.8707575000000001,-1.4157392777777775,-0.1582115999999999,0.3121643133333334
200,1778289864990,0.03646866,0.29621336,0.9115423,-1.5056915,-0.19325256,0.3003235
201,1778289865000,0.0514645803333333,0.3004021355555555,1.0885508555555556,-1.588673888888889,-0.16425069,0.2476637111111111
202,1778289865010,0.0431670428888888,0.3036154866666666,1.1321829888888888,-1.5808071555555556,-0.12223816,0.2248246955555556
203,1778289865020,-0.0166683555555555,0.28640983,1.2110817333333332,-1.4140218333333334,-0.0723470055555555,0.2057579911111111
204,1778289865030,-0.0196038881,0.262837695,1.23272195,-1.2175415,-0.041455078,0.200827028
205,1778289865040,-0.0020920562,0.25277016,1.2171023,-1.0769348,-0.017486572,0.19699097
206,1778289865050,0.0280352795333333,0.2532319422222222,1.0798871888888888,-0.9161919333333332,-0.0030381944222222,0.1515435077777777
207,1778289865060,0.0327262903333333,0.2539507166666667,1.0290556666666666,-0.8864237333333334,-0.0185445145333333,0.13751729
208,1778289865070,0.0635991944444444,0.24946278,0.9956738666666668,-0.9407552,-0.0838826493333333,0.10485331
209,1778289865080,0.0861071577777777,0.2474968955555555,1.0109948666666666,-0.9782782666666664,-0.1167890766666666,0.0826042988888888
210,1778289865090,0.08784302,0.2487446999999999,1.0236858,-0.9927826,-0.13572693,0.07077026
211,1778289865100,0.0926830088888888,0.2495714888888889,1.094950688888889,-0.9467366666666668,-0.1394551588888889,0.0005120163333333
212,1778289865110,0.094138791,0.244521844,1.09719616,-0.90435946,-0.120176696,-0.0365158081
213,1778289865120,0.0460001744444444,0.2391302277777777,1.0458678666666668,-0.8094906222222222,-0.0540568022222222,-0.0767754442222222
214,1778289865130,0.0141915888444444,0.2317816744444444,1.0338277555555555,-0.7561119866666667,-0.0669589555555555,-0.0829298211111111
215,1778289865140,0.0030871868777777,0.2183729844444444,1.0200113444444443,-0.6827901233333332,-0.1266682966666666,-0.0696767166666666
216,1778289865150,0.0273984182888888,0.2175041944444444,0.9850843166666668,-0.6845601333333333,-0.1332397466666667,-0.059209188
217,1778289865160,0.0346930491111111,0.2159584388888888,0.9696817455555554,-0.7059224355555556,-0.1189202188888888,-0.0576104055555555
218,1778289865170,0.0287131031111111,0.2026714122222222,0.9346598044444444,-0.84452312,0.01465861,-0.061681111
219,1778289865180,0.0251065746666666,0.1915801477777777,0.9377243666666668,-0.9660830888888888,0.1278771277777778,-0.0576002322222222
220,1778289865190,0.0265982345555555,0.1783060922222222,0.9549034333333332,-1.1010759,0.2590840633333333,-0.0513271744444444
221,1778289865200,0.0363955563999999,0.169498226,0.988639436,-1.15607302,0.3250122039999999,-0.0504608147999999
222,1778289865210,0.0406583035555555,0.16150655,1.0071847422222222,-1.1846957666666666,0.3769734644444444,-0.0549401175555555
223,1778289865220,0.05157294,0.1356910555555555,1.1069372,-1.1648169333333334,0.4005788177777777,-0.0752343044444444
224,1778289865230,0.0450919753333333,0.12915582,1.1293634666666668,-1.0972323888888889,0.3083801288888889,-0.0810987688888889
225,1778289865240,0.0407803176666666,0.1227697333333333,1.1189908333333334,-0.9077351933333334,0.0254923533333333,-0.0822855666666666
226,1778289865250,0.0565895533333333,0.1190140555555555,1.0809314333333333,-0.76593864,-0.1869150822222222,-0.0898556177777777
227,1778289865260,0.06966002,0.11744134,1.0561461,-0.71315,-0.2662201,-0.09648132
228,1778289865270,0.0692136166666666,0.0997882266666666,0.9614924,-0.7623867355555556,-0.2919006355555555,-0.1067877866666666
229,1778289865280,0.0611595899999999,0.0953270744444444,0.9483400122222222,-0.8187289666666666,-0.2608269611111111,-0.1058417411111111
230,1778289865290,0.0114934330555555,0.0791920611111111,0.9594176111111112,-0.9777984555555556,0.0483991833333333,-0.10453627
231,1778289865300,-0.023814528,0.056467715,0.9575460888888888,-1.1107177888888888,0.3461354555555556,-0.09051514
232,1778289865310,-0.03357711,0.048006855,0.9526648,-1.1594849,0.45762634,-0.07891846
233,1778289865320,-0.0079373693,0.033912307,0.92312279,-1.28759,0.57668305,-0.074905395
234,1778289865330,-0.0075832498666666,0.0321025626666666,0.92264654,-1.3288676,0.5277659133333333,-0.07766215
235,1778289865340,-0.0043693815666666,0.0237103154444444,0.9989683333333332,-1.2800971333333335,0.2039879677777777,-0.0638224287777777
236,1778289865350,0.0016238709888888,0.0185849938888888,1.0195778,-1.255360933333333,0.1159244106666666,-0.0601535376666666
237,1778289865360,0.0220689881666666,-0.005279655,1.0165277,-1.173043133333333,0.0229458278333333,-0.0609164766666666
238,1778289865370,0.0154250466111111,-0.0296446344444444,0.99555185,-1.127770333333333,0.0414733894222222,-0.0550604922222222
239,1778289865380,0.0008357853333333,-0.0468096906666666,0.9782910466666668,-1.1340434,0.1062181277777777,-0.0455966526666666
240,1778289865390,-0.0329799980888888,-0.0744027126666666,0.9427544277777778,-1.2197892777777777,0.33157857,-0.0199025475555555
241,1778289865400,-0.072869747,-0.0850467066666666,0.9341306166666666,-1.2828827,0.41147359,0.0040028886666666
242,1778289865410,-0.09211929625,-0.0878733587499999,0.9613903875,-1.31661605,0.379333495,0.044658661
243,1778289865420,-0.0790118,-0.1051394316666666,1.0099787999999998,-1.2812805333333332,0.24742635,0.069346111
244,1778289865430,-0.06328379,-0.1168945216666666,1.0376115777777777,-1.242811433333333,0.1623280844444444,0.0785217288888888
245,1778289865440,-0.0083158583333333,-0.1333147,1.0711825333333334,-1.104922788888889,0.0180969255555555,0.0824822288888888
246,1778289865450,0.0140830542222222,-0.1424672122222222,1.0759284666666666,-1.0180443444444445,-0.0170050726666666,0.0770975744444444
247,1778289865460,0.032612744,-0.162346666,1.0443332399999998,-0.950909424,0.0143768307999999,0.054360962
248,1778289865470,0.0363737787777777,-0.1830479088888889,1.0083508166666666,-0.9322950733333334,0.0338982482222222,0.0172627762222222
249,1778289865480,0.0265026611444444,-0.1920509222222222,0.9985481555555556,-0.9446072244444444,0.0340169277777777,-0.0052286784
250,1778289865490,-0.0118954259,-0.2034131733333333,1.0349943333333331,-0.95052592,0.020696004,-0.0375417063333333
251,1778289865500,-0.0270814553333333,-0.2072506055555555,1.0478480666666663,-0.9437764466666666,0.0055999759999999,-0.0487263986666666
252,1778289865510,-0.0432975269999999,-0.2154947466666666,1.1049582,-0.8823445466666667,-0.0934702546666666,-0.043395996
253,1778289865520,-0.0377658916666666,-0.2192775533333333,1.1463663666666666,-0.8045772844444444,-0.1588677277777777,-0.0383097331111111
254,1778289865530,-0.019299801,-0.22009052,1.1757339,-0.74243164,-0.1884613,-0.036834717
255,1778289865540,0.008914804,-0.220018044,1.20128662,-0.5477111779999999,-0.199856568,-0.0308685304
256,1778289865550,0.0201578816666666,-0.2207826933333333,1.2142952,-0.4541066533333333,-0.19981893,-0.0318603513333333
257,1778289865560,0.0111147716666666,-0.2324831722222222,1.1668934111111111,-0.3287607866666666,-0.1245422366666666,-0.0407307953333333
258,1778289865570,-0.0069870011111111,-0.2467466588888889,1.1440059222222223,-0.3057352688888889,-0.0682017011111111,-0.0431620277777777
259,1778289865580,-0.01832299,-0.25596657,1.1381485,-0.31472778,-0.049972534,-0.04269409
260,1778289865590,-0.0518261316666666,-0.23100499,1.1992584777777775,-0.3280487066666667,-0.0805053723333333,-0.0093129476
261,1778289865600,-0.0584970336666666,-0.2246458633333333,1.214973177777778,-0.3097008644444445,-0.1019863566666666,-0.0020938449333333
262,1778289865610,-0.053833503,-0.21520957,1.2321106,-0.2566681,-0.13040161,-0.0011444092
263,1778289865620,-0.01820011,-0.20142068,1.2589574,-0.079315186,-0.22573853,0.008972168
264,1778289865630,0.0212556701333333,-0.1889737644444444,1.2779260111111113,0.0981733557777777,-0.1766730455555555,0.0032416449444444
265,1778289865640,0.042936146,-0.18092008,1.2749425,0.21842957,-0.13677979,-0.0032653809
266,1778289865650,0.0438310375555555,-0.1819233333333333,1.2612889222222223,0.2280171755555555,-0.1200900651111111,-0.0094214545777777
267,1778289865660,0.0351538002222222,-0.18788928,1.108238611111111,0.2635396288888889,0.1445719437777778,-0.0903947604444444
268,1778289865670,0.0183677513333333,-0.1768114966666666,1.0712509444444445,0.2049509622222222,0.2226901611111111,-0.1076168488888889
269,1778289865680,-0.0008321559999999,-0.16086693,1.0630610333333332,0.13624064,0.2303805866666666,-0.1151309555555555
270,1778289865690,-0.0194214702222222,-0.1507372677777777,1.084442688888889,0.0986005977777777,0.1786549877777777,-0.1099768722222222
271,1778289865700,-0.0272038157777777,-0.1490833233333333,1.103940222222222,0.0988345666666666,0.1324954566666666,-0.0996822762222222
272,1778289865710,-0.0392300696666666,-0.1518492277777777,1.1334438666666666,0.1489630811111111,0.0193379723222222,-0.0625220408888888
273,1778289865720,-0.0401249613333333,-0.1527709099999999,1.1358708666666666,0.1680196133333333,-0.0073547362,-0.0499725346666666
274,1778289865730,-0.0367735236,-0.149484806,1.0940721999999998,0.211614988,-0.0706359852,0.0077056888
275,1778289865740,-0.0352445353333333,-0.14455512,1.0765658333333332,0.2152370844444444,-0.10423618,0.0449049205555555
276,1778289865750,-0.034675248,-0.14248069,1.0727426,0.21417236,-0.1101532,0.052124023
277,1778289865760,-0.0294811402222222,-0.1405830611111111,1.0633056333333333,0.2164916999999999,-0.1412251833333333,0.0945587166666666
278,1778289865770,-0.0215624357222222,-0.1433354822222222,1.067658088888889,0.2234157977777777,-0.1576741566666666,0.1068691688888889
279,1778289865780,0.0047409571666666,-0.1351991866666667,1.1059738666666667,0.2860870333333333,-0.1769154866666666,0.1068064373333333
280,1778289865790,0.0147475696666666,-0.1352805866666666,1.1122785666666666,0.33083089,-0.17194621,0.095977784
281,1778289865800,0.01865274,-0.14064994,1.1083745,0.37130737,-0.15063477,0.0814209
282,1778289865810,0.0039023844375,-0.1491004125,1.0630102375,0.41770553125,-0.09884262025,0.05864524875
283,1778289865820,0.0032226823777777,-0.1506017722222222,1.0441870777777778,0.4293518,-0.08566284,0.05052185
284,1778289865830,-0.00605840795,-0.151922355,1.0245864375,0.418441775,-0.087249755,0.0459976195
285,1778289865840,-0.0088177443333333,-0.1535717855555555,1.017273288888889,0.4023742733333333,-0.0796152766666666,0.0439554853333333
286,1778289865850,-0.0139294129999999,-0.15749061,1.0369059333333333,0.39846802,-0.07499695,0.04147339
287,1778289865860,-0.0161395088888888,-0.1575583588888889,1.0698941,0.3238983099999999,-0.0552334267777777,0.0549655476666666
288,1778289865870,-0.01600384,-0.15565987,1.0977571,0.2962036,-0.05848694,0.06384277
289,1778289865880,0.0066126608333333,-0.14699559,1.1583649666666669,0.3739674866666667,-0.10288493,0.0760955833333333
290,1778289865890,0.0188155436666666,-0.1420332466666666,1.1785404666666668,0.4151560466666666,-0.11939494,0.0755666133333333
291,1778289865900,0.0357368285,-0.136195965,1.1878757,0.510534668,-0.138491822,0.049676516
292,1778289865910,0.0550583197777777,-0.1448540966666666,1.2041391222222222,0.58666992,-0.12151591,0.0132344569333333
293,1778289865920,0.0585836202222222,-0.1489761644444444,1.215487722222222,0.6051364444444444,-0.1021626784444444,0.0003306071333333
294,1778289865930,0.0886428655555555,-0.1409617155555555,1.328391288888889,0.706334431111111,0.08301629,-0.0524512408888888
295,1778289865940,0.09394395,-0.1338164066666666,1.3546272999999998,0.7349192266666666,0.138768514,-0.06932068
296,1778289865950,0.09418763,-0.12869178,1.3675623,0.7537384,0.17854309,-0.08317566
297,1778289865960,0.0463124696666666,-0.1136414199999999,1.3791145,0.8225046666666667,0.2973751455555555,-0.1276770711111111
298,1778289865970,0.016821997,-0.10513943,1.3842801,0.8639984,0.36495972,-0.15135193
299,1778289865980,-0.0832010966666666,-0.088990936,1.3427910333333335,0.9511006688888888,0.4684634777777778,-0.0430484353333333
300,1778289865990,-0.0870241733333333,-0.086129804,1.335333433333333,0.9616343266666666,0.4782308,-0.013219198
301,1778289866000,-0.0534669376666666,-0.0761107455555555,1.3192799888888889,1.0534820555555555,0.4397684755555555,0.1127234562222222
302,1778289866010,-0.031176561,-0.0673512433333333,1.3221271666666663,1.1237284333333333,0.4375762933333333,0.1561635366666666
303,1778289866020,-0.0197057686666666,-0.0626325813333333,1.3297337333333334,1.1846262666666665,0.4395294166666667,0.1801300066666666
304,1778289866030,-0.0139154136666666,-0.048192641,1.303944777777778,1.334664211111111,0.4347941177777777,0.2041592077777777
305,1778289866040,-0.0173594854444444,-0.0431219327777777,1.2853967777777775,1.3771514777777778,0.4288770977777777,0.2046373166666666
306,1778289866050,-0.0499526991999999,-0.0443699428,1.2554679,1.47459718,0.3553771979999999,0.204989624
307,1778289866060,-0.0629851499999999,-0.0345663666666666,1.2408572666666666,1.5536244555555556,0.2335154177777778,0.2117394377777778
308,1778289866070,-0.06579167,-0.029237457,1.2358949,1.5707855,0.2035675,0.21351624
309,1778289866080,-0.0751474166666666,-0.0285872861111111,1.2086410111111112,1.6446482111111111,0.0240122435555555,0.2191975911111111
310,1778289866090,-0.0789575305555555,-0.028425175,1.1919766444444444,1.726915111111111,-0.1666700611111111,0.2294379311111111
311,1778289866100,-0.0963807911111111,-0.019651847,1.2018475555555554,1.8240949777777775,-0.2394663533333333,0.2694990333333333
312,1778289866110,-0.0764494846666666,-0.0103230572222222,1.2007086666666666,1.8820953444444448,-0.26219517,0.2926364433333333
313,1778289866120,-0.0325514586,0.0214531396,1.20255586,1.99114684,-0.200918578,0.302566528
314,1778289866130,-0.0385935517777777,0.0444402488888888,1.155286811111111,2.0654348,-0.13537089,0.3029937733333333
315,1778289866140,-0.0385932066666666,0.0538499226666666,1.123803788888889,2.102300011111111,-0.0957166888888889,0.3026377355555555
316,1778289866150,-0.0084511808222222,0.0836120813333333,1.0267634666666667,2.118515033333333,-0.1098022453333333,0.27209982
317,1778289866160,-0.0008171202888888,0.1005609322222222,0.9866710333333332,2.1167975777777777,-0.1495157866666666,0.2512698722222222
318,1778289866170,0.0052979741288888,0.1225125677777777,0.9676892333333332,2.115371711111111,-0.2242041644444444,0.2326253222222222
319,1778289866180,0.0201036132222222,0.1444773411111111,0.9603669444444444,2.1131269666666666,-0.2942114888888889,0.20166863
320,1778289866190,0.0336078746666666,0.16099171,0.9548213277777776,2.1056162444444446,-0.3119625511111111,0.18302578
321,1778289866200,0.0321575203333333,0.1813846399999999,0.94949277,2.027323366666667,-0.2443796833333333,0.1382920988888888
322,1778289866210,0.0254375354,0.188388644,0.953372838,1.98070674,-0.205819698,0.11689453
323,1778289866220,0.0148704493333333,0.20062377,1.0306821666666666,1.9620360888888888,-0.1329464355555555,0.1017235655555555
324,1778289866230,0.0171073334444444,0.2146841822222222,1.071155011111111,2.011277911111111,-0.0498572454666666,0.08870273
325,1778289866240,0.0233435791111111,0.2273206811111111,1.078341088888889,2.0851965999999997,-0.0026889377111111,0.0808902284444444
326,1778289866250,0.0160499846666666,0.2398761433333333,1.0244588666666667,2.2575328,0.0251363116666666,0.060287476
327,1778289866260,0.0089722503333333,0.2397947433333333,0.9935856,2.3130476333333334,0.0206976993111111,0.0553165015555555
328,1778289866270,0.023106877,0.276213149,0.8690388600000001,2.39871522,-0.10967407183,0.0571868888
329,1778289866280,0.0291876833333333,0.29544083,0.8199791833333333,2.42158,-0.15773519,0.05958557
330,1778289866290,0.027072296,0.30219245,0.81257635,2.421936,-0.16021729,0.05958557
331,1778289866300,-0.0240710028222222,0.3274108544444444,0.6537368477777777,2.2366468000000004,-0.1019829644444444,0.0194549558222222
332,1778289866310,-0.0273118319999999,0.3338786866666666,0.6433235766666666,2.1856282,-0.0684254959999999,0.030644734
333,1778289866320,-0.0005063796666666,0.3648336811111111,0.6422790355555555,2.067082711111111,0.0627797442222222,0.04395718
334,1778289866330,0.032089255,0.3927643922222222,0.649221111111111,1.9974263333333333,0.14356486,0.033833822
335,1778289866340,0.05147858,0.40591642,0.6530855,1.9580078,0.1673584,0.012176514
336,1778289866350,0.0269875241,0.414885517,0.6849348319999999,1.94628905,0.1367263799999999,0.0007247924999999
337,1778289866360,0.0052570147777777,0.4240313444444444,0.7121746111111111,1.9448683,0.0815921356888888,-0.0149892174444444
338,1778289866370,-0.0054688988333333,0.4440706533333333,0.67635111,1.9826914333333336,-0.0243988031333333,-0.0242207843333333
339,1778289866380,-0.0433384836666666,0.4507009433333333,0.6475522733333334,1.9839375666666668,-0.033457438,-0.0132191976666666
340,1778289866390,-0.0746590068888888,0.4640973666666667,0.6036229422222222,1.9816233666666667,-0.0366550025555555,0.0161387124444444
341,1778289866400,-0.0622528828888888,0.4880962944444444,0.5317616222222222,1.9462908,-0.0599127897777777,0.0420023598888888
342,1778289866410,-0.0360170666666666,0.5139935366666667,0.4623542466666667,1.8820241666666664,-0.0904490166666666,0.0542551676666666
343,1778289866420,-0.009903436,0.53368115,0.42159674,1.8088837,-0.11601257,0.048934937
344,1778289866430,0.0123554188,0.5728758899999999,0.43563079,1.60584414,-0.160867314,0.0047149658
345,1778289866440,0.0187066628888888,0.5858406977777778,0.4505590655555556,1.511793377777778,-0.1723039466666666,-0.0194329154444444
346,1778289866450,0.0210258113333333,0.59156314,0.5092272,1.4325459444444446,-0.15815226,-0.0535786933333333
347,1778289866460,0.0159820637777777,0.5979632111111112,0.547517111111111,1.4208865333333334,-0.1383276993333333,-0.0652974433333333
348,1778289866470,0.0042261088888888,0.6136234577777777,0.5159248888888889,1.4324798666666667,-0.0341644286666666,-0.084594726
349,1778289866480,-0.0033941254444444,0.6210122822222223,0.4923327777777778,1.4224802444444444,-0.0047539604444444,-0.0878482373333333
350,1778289866490,-0.0187693976666666,0.6411060599999999,0.4460434666666667,1.3576829666666663,0.0567949079999999,-0.0768364777777777
351,1778289866500,-0.0246271549999999,0.6502991933333333,0.4238339766666666,1.3073171,0.10414632,-0.06825765
352,1778289866510,-0.025523085,0.6516825,0.41659293,1.2970123,0.10983276,-0.06719971
353,1778289866520,0.0107207287777777,0.7110026666666667,0.3840667722222222,1.1372290555555555,0.0807122102222222,-0.0636461055555555
354,1778289866530,0.0313690203,0.7240707100000001,0.4281994,0.935209656,0.0445251461,-0.0600555406
355,1778289866540,0.009210296375,0.72194111875,0.5539527375,0.91991806,0.037464142125,-0.053413391
356,1778289866550,0.0049851594,0.7240458399999999,0.633987865,0.97077943,0.0128860474999999,-0.042961121
357,1778289866560,0.016821997,0.72953653,0.65906453,1.0184479,-0.00630188,-0.04109192
358,1778289866570,0.0164969126666666,0.7507292666666667,0.6279476166666665,1.1422662,-0.0188327366666666,-0.0550571015555555
359,1778289866580,0.018408539,0.7544312,0.6194057,1.1537476,-0.016937256,-0.058135986
360,1778289866590,0.0175675687777777,0.7785649222222222,0.5517748555555555,1.170077888888889,-0.0184868712222222,-0.0756530762222222
361,1778289866600,0.0310173883333333,0.7977100666666667,0.5448460866666667,1.1638590333333334,0.0006357826666666,-0.1059010833333333
362,1778289866610,0.02046914,0.8017099277777778,0.5441134733333334,1.182330688888889,0.0697055364444444,-0.13074578
363,1778289866620,0.0126052215555555,0.8017372300000001,0.5369816444444445,1.195351533333333,0.0905388697777777,-0.1334652355555555
364,1778289866630,0.003124279875,0.80237351,0.519845425,1.2215175625,0.1040420535,-0.1298370375
365,1778289866640,0.014155098,0.8155665885714286,0.5101021714285715,1.2466408714285713,0.0851767428571428,-0.1263122557142857
366,1778289866650,0.020666247,0.82557278,0.51311837,1.2695007333333332,0.0640258813333333,-0.12809245
367,1778289866660,0.0209361147142857,0.8319537028571428,0.5263151,1.3149806571428573,0.0467507494285714,-0.1406162799999999
368,1778289866670,0.011330545,0.84692888,0.5544858500000001,1.384506225,0.0742759675,-0.16506195
369,1778289866680,0.004252551,0.8508338,0.5548522,1.3923645,0.08639526,-0.16732788
370,1778289866690,0.0093923901333333,0.8522976111111111,0.5302161944444445,1.4734446333333333,0.0969306088888888,-0.1695709233333333
371,1778289866700,-0.0064581541111111,0.8642828888888889,0.4720490866666667,1.5262298555555556,0.1272311733333333,-0.1631791877777778
372,1778289866710,-0.0388640256666666,0.8681607733333334,0.40821486,1.537414533333333,0.1359252933333333,-0.13661194
373,1778289866720,-0.0623339409999999,0.8698287,0.36046102,1.5164591333333333,0.1240336106666666,-0.0870717366666666
374,1778289866730,-0.07042841,0.87169987,0.34557346,1.5074005,0.1210174559999999,-0.06665039
375,1778289866740,-0.0427147566666666,0.891861211111111,0.2928980477777778,1.4497698,0.1138509111111111,-0.0195482042666666
376,1778289866750,-0.0279511138999999,0.905074481,0.268780827,1.40551759,0.102685544,-0.00104217532
377,1778289866760,-0.0337252224444444,0.9081317533333334,0.2433544266666666,1.3422343,0.0884026404444444,0.0160217284444444
378,1778289866770,-0.0321801603333333,0.912999737777778,0.2015392299999999,1.2464158888888888,0.0680491133333333,0.0374484588888888
379,1778289866780,-0.0255365654444444,0.9178271166666668,0.1800212088888889,1.1864657555555556,0.0518968377777777,0.0471513528888888
380,1778289866790,-0.0226344744444444,0.9174337444444444,0.1377174338888888,1.0433129111111112,0.0377468544444444,0.0617726637777777
381,1778289866800,-0.0285732872,0.911579626,0.1195029079999999,0.97605896,0.0364379888,0.0665069572
382,1778289866810,-0.0354068173333333,0.9223286811111112,0.1257174444444444,0.821612888888889,-0.072991264,0.0920766162222222
383,1778289866820,-0.0524092446666666,0.9325110833333334,0.12095869,0.7571105833333334,-0.10873413,0.1105346666666666
384,1778289866830,-0.0567072493333333,0.936348,0.1260297455555555,0.7242668833333333,-0.1241794155555555,0.1204732255555555
385,1778289866840,-0.0294681793333333,0.9310873466666668,0.1903123,0.65075685,-0.1593322733333333,0.13361613
386,1778289866850,-0.0151369466666666,0.9326058055555556,0.2142434866666666,0.6413472666666666,-0.1605733233333333,0.1311340333333333
387,1778289866860,-0.009537045,0.93859852,0.1989623955555555,0.6230570333333333,-0.10258145,0.1135559088888888
388,1778289866870,0.0002265746666666,0.9411753466666668,0.1827461533333333,0.5964253666666666,-0.0604502366666666,0.09935506
389,1778289866880,0.0084512844,0.94804112,0.185739424,0.55825502,-0.0213195802,0.077911376
390,1778289866890,0.0146661683333333,0.9561432666666668,0.2112198933333333,0.5192006333333333,0.008799235,0.0492858886666666
391,1778289866900,0.0215408321111111,0.9608211444444444,0.234744941111111,0.5049370488888889,0.0131818984444444,0.0304633245555555
392,1778289866910,-0.0039774126666666,0.9742315555555556,0.25661466,0.5014445,0.0499928786666666,-0.00682746
393,1778289866920,-0.0399621593333333,0.9750179,0.2300935066666666,0.4985453288888888,0.0634240038888888,-0.0062340628583333
394,1778289866930,-0.0527343313333333,0.9726588466666666,0.2064198333333333,0.4792480533333333,0.0473276783333333,0.0190989173516666
395,1778289866940,-0.0519612831111111,0.9705840755555556,0.1981893522222222,0.4709015,0.03845215,0.028686523
396,1778289866950,-0.0468902288888888,0.9714516511111112,0.1913285144444444,0.4597761444444443,0.0321790919999999,0.0350782601111111
397,1778289866960,-0.0147352293999999,0.969847969,0.202433568,0.418603516,-0.0294097904,0.062557983
398,1778289866970,-0.0085880586666666,0.9647674533333332,0.2129007955555555,0.4181789844444444,-0.0568966344444444,0.0677405461111111
399,1778289866980,-0.0017540089655555,0.9690379666666666,0.1957219166666667,0.4347466388888888,-0.0672454811111111,0.07354397
400,1778289866990,-0.0013195248899999,0.9762783533333336,0.1920611166666667,0.4377034433333333,-0.0712738033333333,0.0709431966666666
401,1778289867000,-0.002336259,0.978597,0.19242716,0.4373474,-0.07234192,0.06970215
402,1778289867010,-0.0035567546,0.9908812133333332,0.16379114,0.4068705266666666,-0.0159403482888888,0.043599448
403,1778289867020,-0.0070412680222222,0.9931449,0.1364293611111111,0.3792334699999999,0.0046590169777777,0.0313517261111111
404,1778289867030,-0.0241315949,0.978597107,0.128179578,0.309040835,0.0232223509,0.0368942259
405,1778289867040,-0.0240443872222222,0.9582998155555555,0.1232774977777777,0.26525879,0.0643785235555555,0.0569135874444444
406,1778289867050,-0.022471327,0.9540694,0.12140614,0.25946045,0.07467651,0.0611724849999999
407,1778289867060,-0.0061332413333333,0.95118109,0.0956720355555555,0.2107493066666667,0.0951504144444444,0.0709381116666666
408,1778289867070,0.0056768079999999,0.94914744,0.081259402,0.1942952466666666,0.0890553766666666,0.0700531033333333
409,1778289867080,0.0377301155555555,0.9601707944444444,0.0446780582222222,0.1258833166666666,0.0279761418888888,0.0422431108888888
410,1778289867090,0.03203516,0.97343137,0.0322041833333333,0.056523642,0.0080922445333333,0.01217651378
411,1778289867100,0.0275607,0.97798723,0.028055327,0.0215454104444444,0.0056677924333333,-0.0012003580711111
412,1778289867110,-0.0243554737777777,0.9849286166666668,0.0962010511111111,-0.0878923222222222,0.0495181616666666,-0.0136345758888888
413,1778289867120,-0.030646678,0.98457605,0.10542096,-0.1000824,0.060287476,-0.013397217
414,1778289867130,-0.0541447608888888,0.9678451277777778,0.1617030588888889,-0.1056433811111111,0.076802572,0.0198669434777777
415,1778289867140,-0.052747984,0.9630049555555557,0.1662860511111111,-0.09037781,0.0585208459999999,0.0435384115555555
416,1778289867150,-0.037907902,0.964233782,0.140625832,-0.06535492,0.0186920162,0.0733749384
417,1778289867160,-0.031786292,0.9662307533333334,0.1277927433333333,-0.05960083,0.008621216,0.08088684
418,1778289867170,-0.0277865846666666,0.969688831111111,0.1169736788888888,-0.0642174611111111,-0.0011427135555555,0.0827212855555555
419,1778289867180,0.001609354,0.9869351333333332,0.0793062966666666,-0.1359507233333333,-0.094177246,0.09739685
420,1778289867190,0.0116432731111111,0.992331411111111,0.0897601822222222,-0.1877950033333333,-0.092758178,0.08745829
421,1778289867200,0.015276416,0.99336214,0.08292734,-0.2304653566666666,-0.0616828066666666,0.0712398933333333
422,1778289867210,0.0155878487777777,0.9897827488888888,0.07754416,-0.2725999611111111,-0.0354037813333333,0.0499318444444444
423,1778289867220,0.014991255,0.9875049,0.0785742,-0.29981995,-0.029190063,0.0345459
424,1778289867230,0.0136086484444444,0.9821357255555556,0.0796590295555555,-0.3221333844444444,-0.0199601911111111,0.0234171559999999
425,1778289867240,0.0082401605555555,0.9663667777777776,0.0848121826666666,-0.3911421088888889,0.0124698215555555,-0.011445787
426,1778289867250,0.0069246106666666,0.9574854222222222,0.1010681766666666,-0.4225599499999999,-0.0068223738888888,-0.0261196563333333
427,1778289867260,0.0047819166666666,0.95236044,0.1121321326666666,-0.4390157033333333,-0.0142822263333333,-0.0256449383333333
428,1778289867270,0.0069653975555555,0.9480489488888888,0.1095967762222222,-0.4488423633333334,-0.0084211560444444,-0.0211469864444444
429,1778289867280,0.0120902008333333,0.9450125722222222,0.0742767197777777,-0.4868384455555555,0.0215284562,-0.0119696723333333
430,1778289867290,0.0169981075555555,0.9418802888888888,0.0572473305555555,-0.514772211111111,0.0372704395555555,-0.0066494411666666
431,1778289867300,0.0388277326666666,0.9404427466666668,0.0174379481333333,-0.5911695777777778,0.0682254355555555,-0.0064765082444444
432,1778289867310,0.054840904,0.9418663111111112,-0.0051244571666666,-0.6676330577777778,0.0963965511111111,-0.0123901365555555
433,1778289867320,0.063315414,0.94308645,-0.0125818895,-0.70196533,0.10823059,-0.017120361
434,1778289867330,0.0534682868999999,0.918010249,-0.0254552681,-0.922203061,0.252577201,-0.0684112553
435,1778289867340,0.0505434185555555,0.9071699877777776,-0.0332176344444444,-1.0078650666666666,0.3086208711111111,-0.0889044866666666
436,1778289867350,0.0451740667777777,0.8909532266666668,-0.0363507933333333,-1.1988440222222223,0.4088168666666666,-0.1388583744444444
437,1778289867360,0.0321575203333333,0.8846353866666666,-0.0333671286666666,-1.3199886666666667,0.4474605955555556,-0.1698744044444444
438,1778289867370,0.0238458100111111,0.8810967733333332,-0.031454984,-1.3986986222222224,0.46089172,-0.1891699888888889
439,1778289867380,-0.0088180901444444,0.8454644466666666,-0.0087850804555555,-1.6171925888888887,0.4168039955555556,-0.2271626788888888
440,1778289867390,-0.0163840576111111,0.8332072777777778,0.0105230160555555,-1.6732991666666668,0.38662211,-0.23071289
441,1778289867400,-0.0146618479999999,0.8216146222222223,0.0635383614444444,-1.8272281444444447,0.3120507088888888,-0.2319471533333333
442,1778289867410,-0.0098209976666666,0.8209368,0.0827239266666666,-1.8764733333333332,0.30625406,-0.2361568833333333
443,1778289867420,-0.0188113954888888,0.8050862722222222,0.1386399788888889,-2.0145399222222222,0.3087395555555556,-0.2442033566666667
444,1778289867430,-0.0239360256666666,0.80771665,0.1733503099999999,-2.1068623666666664,0.2825826,-0.2566274033333333
445,1778289867440,-0.0248713583333333,0.8069845666666667,0.18762762,-2.1689453333333333,0.2426316977777778,-0.2630801755555556
446,1778289867450,-0.0295737406,0.76673126,0.211659464,-2.29687196,0.0866027824,-0.26767273
447,1778289867460,-0.0499687743333333,0.7451566833333333,0.2418489466666666,-2.339799644444444,0.0131191674444444,-0.2652689644444444
448,1778289867470,-0.1010444928888888,0.6934293888888888,0.3341560577777777,-2.390404666666667,-0.1392720537777777,-0.22124566
449,1778289867480,-0.1102920566666666,0.6685625333333333,0.4116310866666667,-2.399163177777778,-0.2438439244444444,-0.1717071544444444
450,1778289867490,-0.1100483733333333,0.6612001666666667,0.4556021099999999,-2.3941294333333336,-0.2772267633333333,-0.1461995466666666
451,1778289867500,-0.0988755277777777,0.6508285666666667,0.4915599266666667,-2.383122766666667,-0.3294219899999999,-0.0631103533333333
452,1778289867510,-0.0915264566666666,0.6480220444444444,0.49264476,-2.384960622222222,-0.3480580555555555,-0.0321587463888888
453,1778289867520,-0.0281705857,0.63511121,0.503954521,-2.4299285599999996,-0.4369781439999999,0.016650391
454,1778289867530,-0.0100790269022222,0.6297719888888889,0.5081698322222222,-2.447399533333334,-0.4666086822222222,0.0270402702222222
455,1778289867540,0.0093516027866666,0.6271955155555555,0.5141212999999999,-2.4810096222222224,-0.4808129266666666,0.0111745204444444
456,1778289867550,4.9600722222222375e-05,0.6364974655555555,0.6236499577777779,-2.5869394666666667,-0.4860229533333333,-0.07535807
457,1778289867560,-0.0163430975555555,0.6138671333333333,0.6922030322222222,-2.5846337111111115,-0.4477861166666666,-0.0983157666666666
458,1778289867570,-0.0035163135333333,0.5576794,0.7823144166666666,-2.4841410666666666,-0.2669270833333333,-0.1179707866666666
459,1778289867580,-0.0016859157222222,0.5229424733333333,0.7850664933333333,-2.4118805222222224,-0.1095631926666666,-0.1250745988888889
460,1778289867590,-0.046670117,0.49853667,0.760446212,-2.3761246,0.0211975103,-0.1110259989999999
461,1778289867600,-0.0629723562222222,0.4908215977777778,0.7448647888888889,-2.4069739222222224,0.0716010202222222,-0.0177832711111111
462,1778289867610,-0.0348779703333333,0.4978859933333333,0.7386269666666667,-2.4241333,0.0890502913333333,0.0041809081666666
463,1778289867620,0.0008186015714285,0.5029293785714286,0.6857546571428571,-2.5206647714285713,0.1606488885714285,0.0059313092857142
464,1778289867630,-0.004350154375,0.49899387375,0.6591417475,-2.60411835,0.16867828125,0.0018501281749999
465,1778289867640,-0.0719335433333333,0.4652629266666666,0.7105607800000001,-2.7153015333333332,0.10805257,0.0080820719333333
466,1778289867650,-0.1132607885714285,0.4029188885714286,0.8526889628571429,-2.6751295,0.0912628142857142,0.0396510535
467,1778289867660,-0.1100881514285714,0.3878920857142857,0.9036969128571428,-2.628561857142857,0.0939265639999999,0.0555550697142857
468,1778289867670,-0.0333723136,0.390948,1.01550991,-2.370513933333333,0.0173187253333333,0.0441385893333333
469,1778289867680,0.0101717478,0.39603244,1.06029445,-2.230144525,-0.0457801825,0.022829056
470,1778289867690,0.017847338275,0.392432854,1.07077686,-1.91001892,-0.2123199409999999,-0.0326309201
471,1778289867700,-0.0184583122777777,0.3430997977777778,1.0221675555555556,-1.6706373222222224,-0.3447502933333333,-0.0597924137777777
472,1778289867710,-0.0236648617777777,0.3349372333333333,0.9975177644444444,-1.5992635000000002,-0.42121378,-0.0639902766666666
473,1778289867720,-0.0277188363333333,0.35629245,0.94172337,-1.4327291,-0.7180684333333333,-0.057957968
474,1778289867730,-0.0033944716666666,0.3751251066666666,0.8824987233333333,-1.3457929888888889,-0.9015299444444445,-0.0589650453333333
475,1778289867740,0.025242071,0.3717892266666667,0.8519915266666667,-1.2996317555555557,-1.0256907044444443,-0.0773722333333333
476,1778289867750,0.0369161073333333,0.3588542533333333,0.8589474466666667,-1.2770284,-1.0866445,-0.1016337066666666
477,1778289867760,0.0308554522222222,0.3444955388888889,0.8690081666666667,-1.2632378555555557,-1.1012624333333332,-0.1070166668888888
478,1778289867770,-0.0255227375555555,0.2712239722222222,0.9539528944444444,-1.205654611111111,-1.088421322222222,-0.056898329
479,1778289867780,-0.037197119,0.25561815,0.9910632333333332,-1.1784295,-1.0329132244444443,-0.0293172198888888
480,1778289867790,-0.01018232445,0.252892573,1.0810641100000002,-1.09833678,-0.636721806,0.0479675308
481,1778289867800,0.0554241898333333,0.27400388,1.1082121,-1.1039123666666668,-0.2198791533333333,0.0744934066666666
482,1778289867810,0.0868530766666666,0.28569174,1.0771629333333332,-1.1203070888888886,-0.0242224811111111,0.0799390977777777
483,1778289867820,0.0722365088888888,0.28910816,0.8794618555555556,-1.1824544222222224,0.060353597,0.0646192764444444
484,1778289867830,0.0571320543333333,0.2891351166666667,0.8404803,-1.1941698,-0.0180053718888888,0.0602383082222222
485,1778289867840,0.0334594176666666,0.28319647,0.8002931,-1.3833669333333334,-0.20461019,0.064727781
486,1778289867850,0.0243615227777777,0.27594245,0.7951268155555555,-1.4759911666666667,-0.2276272222222222,0.0721876344444444
487,1778289867860,0.0133105235555555,0.25381418,0.8142439466666667,-1.572755622222222,-0.145067,0.0924886088888888
488,1778289867870,-0.0268643846666666,0.1601503899999999,0.9490048333333334,-1.957550033333333,0.3079630533333333,0.1938018799999999
489,1778289867880,-0.0307692099999999,0.1424293533333333,0.9987655333333334,-2.0173237777777775,0.4458567344444444,0.2274780266666666
490,1778289867890,-0.0056801264,0.117270552,1.12814272,-1.9770813,0.665626535,0.29261017
491,1778289867900,0.0114122046666666,0.1067435966666666,1.1864721,-1.903579744444444,0.7599334766666668,0.3189731155555556
492,1778289867910,0.0524816595555555,0.0806693666666666,1.2522730888888889,-1.6917673666666666,0.6598612666666667,0.2800903266666666
493,1778289867920,0.0809958424444444,0.0997747422222222,1.2693296666666667,-1.4708964444444446,0.41035462,0.2173665322222222
494,1778289867930,0.08650069,0.10706972,1.2703058,-1.43219,0.35484314,0.20446777
495,1778289867940,0.0816873122222222,0.0997465744444444,1.1748788,-1.184702522222222,-0.1026916544444444,0.0795237235555555
496,1778289867950,0.062515402,0.0817948122222222,1.1522092888888888,-1.1328531444444443,-0.1718207477777777,0.0590498182222222
497,1778289867960,0.05371529,0.0589493193333333,1.1207401666666668,-1.0083974,-0.05748664,0.0421193435555555
498,1778289867970,0.0749894513333333,0.057810226,1.1005231333333334,-0.9706369888888888,0.0864495177777777,0.0257822672222222
499,1778289867980,0.08750176,0.0612594486,1.10188142,-0.965069566,0.20282898,0.0107849123999999
500,1778289867990,0.1128728622222222,0.0620397892222222,1.1288473222222222,-0.9685109622222224,0.3611738411111111,-0.0427500415555555
501,1778289868000,0.1010220244444444,0.0713141377777777,1.1393826333333334,-0.9663781111111112,0.3718278655555556,-0.0708024788888888
502,1778289868010,0.0145180566666666,0.0930628805555555,1.1255944333333334,-0.9482676133333332,0.41839768,-0.1305813255555555
503,1778289868020,-0.0157186775,0.0804262033333333,1.1103270666666667,-0.96046448,0.4414825333333333,-0.1341247566666666
504,1778289868030,-0.02649834,0.07351127,1.1043475,-0.9688110399999998,0.4464569,-0.13056946
505,1778289868040,-0.031419728,0.0185977826666666,1.0697723,-1.0328979333333337,0.4070383733333333,-0.1048380533333333
506,1778289868050,-0.0290877883333333,0.0042660316444444,1.0675763444444444,-1.0584021555555556,0.3739522333333333,-0.0989142515555555
507,1778289868060,-0.0145799278888888,-0.0179031955777777,1.087236122222222,-1.0717197111111112,0.3008626333333333,-0.1137068015555555
508,1778289868070,-0.0082546781,-0.0149002612,1.1030051,-1.064415,0.2496414199999999,-0.134567265
509,1778289868080,-0.0158139053333333,0.0018920966444444,1.1084698222222222,-1.0505981666666666,0.2407311333333333,-0.1412794388888888
510,1778289868090,-0.016248044,-0.001984731,1.1128074,-1.0142568,0.2166459777777777,-0.1518164722222222
511,1778289868100,-0.0187700907777777,-0.0094015493333333,1.1146652777777777,-1.0057356333333332,0.2075313955555555,-0.1600443488888888
512,1778289868110,-0.0575753549999999,-0.0349738886666666,1.1205773,-0.9879811666666666,0.1767629,-0.1532999666666666
513,1778289868120,-0.0672693266666666,-0.041414241,1.1205230444444445,-0.9849056777777776,0.1630316833333333,-0.14909702
514,1778289868130,-0.0707674922222222,-0.0493460816666666,1.1012970777777775,-0.9929504333333332,0.0266757533333333,-0.13394843
515,1778289868140,-0.0674188166666666,-0.0696707366666666,1.0957103222222222,-1.0032450333333331,-0.1769104,-0.1048380526666666
516,1778289868150,-0.056517244,-0.081661734,1.10930122,-1.002098085,-0.277130125,-0.084236145
517,1778289868160,-0.0137123427777777,-0.0816968194444444,1.1483860333333336,-0.91577996,-0.4673088733333333,-0.0410359701111111
518,1778289868170,0.0114531643333333,-0.081100225,1.1477081666666666,-0.8228607,-0.5584513266666666,-0.0210266113333333
519,1778289868180,0.0295537276666666,-0.0894798583333333,1.1253359,-0.7431437,-0.6046193466666667,-0.00557963054
520,1778289868190,0.0184087117777777,-0.10857054,1.119721988888889,-0.7031978777777778,-0.5637207055555555,0.0130615230977777
521,1778289868200,0.0100294263555555,-0.1092753233333333,1.1125632111111112,-0.6982269,-0.54904175,0.016967773
522,1778289868210,-0.0379686144666666,-0.1014795,1.0697727666666663,-0.7021382666666667,-0.3029632566666667,0.0711263
523,1778289868220,-0.0578591328888888,-0.1041239077777777,1.0621255555555555,-0.7139146611111111,-0.2583431655555556,0.0859205433333333
524,1778289868230,-0.037444693,-0.10526231,1.0611001100000002,-0.71809692,-0.314311216,0.144532773
525,1778289868240,-0.0181873216666666,-0.1046522355555555,1.0638329777777775,-0.7092352944444444,-0.3462829577777777,0.1704305
526,1778289868250,-0.012709435,-0.104164176,1.0657852,-0.70355225,-0.35409546,0.1751709
527,1778289868260,0.0587464244444444,-0.12934247,1.1136755333333337,-0.5585547544444445,-0.3049740266666667,0.1748708066666666
528,1778289868270,0.07328142,-0.1360678122222222,1.1149772444444446,-0.5205027266666666,-0.2804158533333333,0.16753133
529,1778289868280,0.0915444355555555,-0.1464536,1.114041877777778,-0.4732191333333333,-0.2047848155555555,0.1265750466666666
530,1778289868290,0.0897546488888888,-0.1465075244444444,1.1229901,-0.4237467466666667,-0.1195661755555555,0.0856204555555555
531,1778289868300,0.08833143,-0.14406723,1.1287521,-0.38824463,-0.06808472,0.0622406
532,1778289868310,0.0518446246666666,-0.1420332466666666,1.1122796333333334,-0.2849070166666666,0.0503489186666666,0.0087992351333333
533,1778289868320,0.041716687,-0.14540957,1.1066666,-0.2614746,0.08053589,-0.0016784668
534,1778289868330,0.0357367425555555,-0.1660048766666666,1.0593048333333333,-0.2187974666666666,0.1236165422222222,-0.0157657204
535,1778289868340,0.0346382608888888,-0.1740590722222222,1.0307232888888889,-0.2122328,0.1246846555555555,-0.027182685
536,1778289868350,0.03512632,-0.17579493,1.0186836,-0.21673584,0.1156921399999999,-0.033096313
537,1778289868360,0.0449841315555555,-0.1753609611111111,1.0280657111111111,-0.2416415722222222,0.0865037722222222,-0.0631629066666666
538,1778289868370,0.0436687546666666,-0.17583537,1.0261268,-0.2434149833333333,0.0720689573333333,-0.0710940871111111
539,1778289868380,0.030814664,-0.1746148766666666,1.0156318000000002,-0.2703467466666667,0.030822754,-0.0837605793333333
540,1778289868390,0.0154796593333333,-0.17559065,1.010100633333333,-0.2952643466666667,-0.0030992295555555,-0.078911678
541,1778289868400,-0.0017941045777777,-0.1786553711111111,1.0194564444444447,-0.3177524222222222,-0.0577816404444444,-0.0622795957777777
542,1778289868410,-0.0054279392,-0.1836452,1.0519968000000002,-0.3245035866666667,-0.1071421333333333,-0.0450032553333333
543,1778289868420,-0.0049673586666666,-0.1869942166666666,1.0875342666666663,-0.3145022933333333,-0.1319393622222222,-0.0322791211111111
544,1778289868430,0.010354822,-0.186337964,1.1515727999999998,-0.196493532,-0.1264556859999999,-0.0071136476
545,1778289868440,0.019964553625,-0.1889274425,1.1536162875,-0.1203231824999999,-0.11841583,-0.0024795532
546,1778289868450,0.0202793775555555,-0.1946676733333333,1.1313700666666666,-0.039182875,-0.1138916,0.0016360813777777
547,1778289868460,0.01767593,-0.19775918,1.117161,-0.01065216069,-0.114207458,0.00519561781
548,1778289868470,0.017757331,-0.1981523588888888,1.112957711111111,0.0024227566222222,-0.1129336904444444,0.0089806450666666
549,1778289868480,0.0221509083333333,-0.1969052566666666,1.0980422666666665,0.04443868,-0.074467978,0.0420074453333333
550,1778289868490,0.0244424053333333,-0.1941801422222222,1.1081299555555555,0.0500623915555555,-0.0611487511111111,0.0485755066666666
551,1778289868500,0.0435320497777777,-0.1800789422222222,1.1146377777777776,0.1059960284444444,-0.0060577395333333,0.0564439577777777
552,1778289868510,0.0512879533333333,-0.1744790299999999,1.0948834888888888,0.1332143166666666,0.0203399655333333,0.0540771486666666
553,1778289868520,0.052942242,-0.17323157,1.0892162,0.14013672,0.026733398,0.052124023
554,1778289868530,0.0431535618888888,-0.1654894966666666,1.0694067444444444,0.1604987266666666,0.0198143856666666,0.0350172252222222
555,1778289868540,0.0425566208888888,-0.1627923888888889,1.0622333222222222,0.1780768511111111,0.0002746583333333,0.0297512474444444
556,1778289868550,0.0374039933333333,-0.1650152666666666,1.0639145666666667,0.1932271333333333,-0.0082499183333333,0.0240681963333333
557,1778289868560,0.0277560628,-0.164005994,1.06527312,0.214385988,-0.0224853512,0.024633789
558,1778289868570,0.0233307891111111,-0.1625200033333333,1.0664499888888888,0.2280205633333333,-0.032567342,0.0268469916666666
559,1778289868580,0.0323602473333333,-0.16102921,1.0790877,0.2848409033333333,-0.0421498633333333,0.0327707936666666
560,1778289868590,0.03707891,-0.1597682733333333,1.0750607,0.3096923866666666,-0.0370025646666666,0.0336558033333333
561,1778289868600,0.0453766206666666,-0.1594426733333333,1.0606605666666666,0.3491702644444444,-0.0162370469999999,0.0321723088888888
562,1778289868610,0.0488075576666666,-0.1598225466666666,1.0526746111111112,0.3744998555555556,0.0045962863333333,0.0276760524444444
563,1778289868620,0.048916783,-0.15993108,1.0478479,0.3851471,0.015548706,0.021759033
564,1778289868630,0.0430587144,-0.155756612,1.03542496,0.3942123409999999,0.0391967774,0.0197418213
565,1778289868640,0.0428962243333333,-0.1551709366666666,1.0341398666666666,0.39634196,0.051589966,0.0178578696666666
566,1778289868650,0.030205281,-0.1479316144444444,1.0460987333333334,0.40557522,0.0870988628888888,0.0196244978888888
567,1778289868660,0.0281305075555555,-0.14421621,1.0539766444444445,0.4203084266666667,0.0839080833333333,0.025487264
568,1778289868670,0.0383396714444444,-0.1374362466666666,1.0642940444444444,0.4421488411111111,0.0595296231111111,0.0277370875555555
569,1778289868680,0.0427736911111111,-0.1347787033333333,1.0637518666666668,0.4514380577777778,0.0518917506666666,0.0261433918888888
570,1778289868690,0.0444010196666666,-0.13289404,1.0624235000000002,0.4554595999999999,0.050704956,0.024963379
571,1778289868700,0.0456208216666666,-0.1212065266666666,1.0761987666666668,0.4748128266666667,0.0645565444444444,0.0213521325555555
572,1778289868710,0.04276835375,-0.118425738125,1.0854168125,0.4912719749999999,0.076667785,0.0176353455
573,1778289868720,0.0393565793333333,-0.1077022616666666,1.1049566333333332,0.5419209999999999,0.1085764566666666,0.0187479656666666
574,1778289868730,0.038909134,-0.10245475,1.1117902,0.5635834,0.121536255,0.019638062
575,1778289868740,0.04156347875,-0.0992820584999999,1.1133464,0.589416525,0.12513351625,0.01470947301375
576,1778289868750,0.0639519317777777,-0.0889098797777777,1.1166854666666666,0.7071583888888889,0.1700236022222222,-0.0123918317716666
577,1778289868760,0.0686028466666666,-0.0885440083333333,1.1152479,0.7130737166666666,0.17925517,-0.0164133703333333
578,1778289868770,0.0542852695555555,-0.0816562088888888,1.1199666,0.7038370766666667,0.18066915,-0.0334523516666666
579,1778289868780,0.037119868,-0.0761783233333333,1.1447788,0.7022399800000001,0.1444549533333333,-0.041269938
580,1778289868790,0.0269371458888888,-0.0738462133333333,1.1655913333333334,0.7092861444444445,0.1239793533333333,-0.0408579508888888
581,1778289868800,-0.008370298,-0.0749846155555555,1.2191217333333333,0.7755686388888888,0.0759141722222222,-0.0197330055555555
582,1778289868810,-0.0227155299999999,-0.0704838833333333,1.2183626666666667,0.8185373966666667,0.0283304853333333,-0.0018564859999999
583,1778289868820,-0.0239769853333333,-0.0618600496666666,1.1944448333333333,0.8611450233333333,-0.0579528823333333,0.0224761953333333
584,1778289868830,-0.0141006138,-0.0575724487999999,1.18891316,0.8828399599999999,-0.119311524,0.0428558339999999
585,1778289868840,0.0008767453333333,-0.0523418413333333,1.2024179333333336,0.9026370555555556,-0.1290927444444444,0.0519460037777777
586,1778289868850,0.0462988162222222,-0.0392990288888888,1.2395688666666669,0.9574364566666668,-0.11109924,0.0417039658888888
587,1778289868860,0.0498647302222222,-0.0385261521111111,1.2420770777777776,0.9710455988888888,-0.1096784777777777,0.0363752577777777
588,1778289868870,0.0462315886666666,-0.0327765816666666,1.2623337,1.0315297444444445,-0.1443074544444444,0.0043555365555555
589,1778289868880,0.0411745346666666,-0.0295364448888888,1.2741976777777777,1.0630137,-0.17247518,-0.0100250246666666
590,1778289868890,0.039276216,-0.028506404,1.2770175,1.0701141,-0.18099976,-0.011795044
591,1778289868900,0.0187143365,-0.0131303353999999,1.26824329,1.18585661,-0.229571536,-0.0250030519999999
592,1778289868910,0.009623458,-0.003855916,1.2566382,1.2384338,-0.24171448,-0.028305054
593,1778289868920,0.0233985386666666,0.0180017058444444,1.2097251666666666,1.2482537555555555,-0.1684553366666666,-0.0251753062222222
594,1778289868930,0.0356957833333333,0.0305023671111111,1.1980107111111111,1.2524584,-0.1167941644444444,-0.0297868512222222
595,1778289868940,0.0367527833333333,0.0456063053333333,1.2022142,1.2801514,-0.0288391123199999,-0.0370025643333333
596,1778289868950,0.0344343255555555,0.0533349024444444,1.2075833555555555,1.3176693777777777,0.0311754012311111,-0.0395490866666666
597,1778289868960,0.0395869544444444,0.05751141,1.2079628666666666,1.3445384,0.0649074967777777,-0.0389590795555555
598,1778289868970,0.0573356465555555,0.0744059916666666,1.2025527222222223,1.402952388888889,0.1212446455555555,-0.0397898364444444
599,1778289868980,0.047166921,0.0916522783333333,1.1994885,1.4497019666666668,0.1309560166666666,-0.0428721113333333
600,1778289868990,0.01994686,0.0989172342,1.18825417,1.51199344,0.139283756,-0.0430145250999999
601,1778289869000,0.0075485116666666,0.101821692,1.1751646999999998,1.5693139111111112,0.1597730855555555,-0.0358869755555555
602,1778289869010,0.0070737593333333,0.1047910122222222,1.169117488888889,1.612038511111111,0.17598809,-0.0281931557777777
603,1778289869020,0.036876182,0.1335084366666666,1.1274917333333334,1.6899889,0.1868269211111111,-0.0203162297777777
604,1778289869030,0.0529159706666666,0.1443961133333333,1.106678811111111,1.7290513888888888,0.1915605344444444,-0.0231577555555555
605,1778289869040,0.0764126713333333,0.1681235366666666,1.0247839533333334,1.783203111111111,0.2178988955555555,-0.0711042622222222
606,1778289869050,0.0838293155555555,0.1785772522222222,0.9842435455555556,1.816341822222222,0.2392035555555555,-0.1090986466666666
607,1778289869060,0.0737145145555555,0.1804754055555555,0.961926727777778,1.8082818333333333,0.2568884911111111,-0.1220584433333333
608,1778289869070,-0.0119363873333333,0.1917569511111111,0.9024984777777778,1.7289835666666666,0.3125254333333333,-0.1509348566666666
609,1778289869080,-0.0346069824444444,0.20471888,0.910579122222222,1.7126515666666666,0.2889709533333333,-0.1412251799999999
610,1778289869090,-0.0206175636,0.224264994,0.90646538,1.7492218000000002,0.2315368649999999,-0.126838685
611,1778289869100,-0.0330745328888888,0.2262222088888889,0.9234736777777778,1.7936045333333333,0.17587789,-0.11494446
612,1778289869110,-0.05053754,0.22079824,0.9398527,1.8184662,0.15031433,-0.10713196
613,1778289869120,-0.0038009576666666,0.2519976266666666,0.9466053533333332,1.923806088888889,0.0494571264444444,-0.0725691066666666
614,1778289869130,0.011452646,0.25948185,0.9403411,1.9537506,0.019805908,-0.06718445
615,1778289869140,-0.030851302,0.2822206977777777,0.8524664500000001,2.0306870999999997,-0.0266486273333333,-0.0367092564444444
616,1778289869150,-0.0306881556666666,0.29605056,0.8022042100000001,2.0384419666666664,-0.02742513,-0.0212046306666666
617,1778289869160,-0.0310951599999999,0.3101650766666666,0.7577857333333333,1.9769507444444443,0.0263722735555555,0.0033603248888888
618,1778289869170,-0.0270816269999999,0.3260151022222222,0.7385321133333334,1.8871137666666664,0.07088555,0.0355580644444444
619,1778289869180,-0.0206043421,0.336909222,0.738224265,1.84216764,0.072598263,0.052659605
620,1778289869190,-0.0053334037444444,0.3710299955555556,0.741840531111111,1.7553761333333333,0.0080888529999999,0.06425815
621,1778289869200,-0.0026623811333333,0.3820400333333333,0.74102704,1.7284494666666663,-0.0197855626666666,0.064910888
622,1778289869210,-0.0201526957333333,0.3951377933333333,0.7586801466666667,1.6477864333333332,-0.1495717377777777,0.0750817192222222
623,1778289869220,-0.0211421231111111,0.4130759166666666,0.7726466777777777,1.6154107,-0.1862572588888889,0.0805901433333333
624,1778289869230,-0.0168847331111111,0.4230555722222222,0.7676845133333333,1.592095277777778,-0.1734737855555555,0.0854424377777777
625,1778289869240,0.0004434710111111,0.4510408988888888,0.7570535288888889,1.5304260111111112,-0.1094496022222222,0.0875735813333333
626,1778289869250,-0.0023777371666666,0.4557856499999999,0.7562401666666667,1.5079447666666668,-0.0583190933333333,0.0817718519999999
627,1778289869260,0.0129982272,0.46709312,0.7567690333333333,1.4775848333333337,0.0633087133333333,0.0799967433333333
628,1778289869270,0.041309164,0.4850718533333333,0.7546946066666667,1.4679938333333336,0.1258646644444444,0.0717739522222222
629,1778289869280,0.05074597,0.4910919,0.75351506,1.4701233,0.13485718,0.06491089
630,1778289869290,0.077739559,0.510482369,0.726009708,1.51102902,0.007870482,0.01877746624
631,1778289869300,0.0925611666666666,0.5247312166666667,0.6946969,1.5400746666666665,-0.0909830733333333,-0.0203196205333333
632,1778289869310,0.08076529,0.5412058466666667,0.6129377,1.5283559,-0.1967976933333333,-0.0852966303333333
633,1778289869320,0.0619191577777777,0.5506701444444444,0.5608042833333333,1.4706522666666666,-0.3209076,-0.14371745
634,1778289869330,0.052211188,0.55283946,0.54789627,1.4456177,-0.3599701,-0.15881348
635,1778289869340,0.0083886182222222,0.5909800288888889,0.5353950955555555,1.3001014222222222,-0.3727467844444445,-0.1770290811111111
636,1778289869350,-0.0147700366666666,0.6129041888888889,0.5342019066666667,1.2312096888888888,-0.3484819177777777,-0.1726481144444444
637,1778289869360,-0.0236508623333333,0.6324018733333333,0.5631903033333333,1.1301269333333337,-0.25183614,-0.1337687133333333
638,1778289869370,0.0010799883333333,0.64875412,0.58474858,1.0791778666666667,-0.1534729,-0.10429382
639,1778289869380,0.0146252608,0.6545626649999999,0.589849516,1.06548923,-0.1092987057,-0.09562988
640,1778289869390,0.0166597146666666,0.6401302999999999,0.6229438,1.0461477,0.0736083993333333,-0.0698598226666666
641,1778289869400,0.0133106964444444,0.6351812555555555,0.6301706766666667,1.0502302666666667,0.1232672799999999,-0.0565439857777777
642,1778289869410,0.0078741156666666,0.6479406333333334,0.5833663333333333,1.0568034,0.1362813299999999,-0.0160624187333333
643,1778289869420,0.0025045913555555,0.6576484111111112,0.5530494055555555,1.0476905333333333,0.1191151933333333,0.0045318602222222
644,1778289869430,-0.0150679880666666,0.6754375333333333,0.5221901766666667,0.9690958666666668,0.0933176666666666,0.0423533123333333
645,1778289869440,-0.014742385,0.6892669,0.5300404466666666,0.8874850888888889,0.07331509,0.075912476
646,1778289869450,-0.0071767638399999,0.6967107,0.5461889333333334,0.8387807333333333,0.0675710039999999,0.0940246573333333
647,1778289869460,-0.0038007845822222,0.7238562666666666,0.6082876666666667,0.7856258888888888,0.1163889566666666,0.1072828511111111
648,1778289869470,-0.0024174870266666,0.7316655511111111,0.6288421688888889,0.7782881111111111,0.1262156166666666,0.1068081337777777
649,1778289869480,0.012063308488,0.741982784,0.684543746,0.8408752399999999,0.157125856,0.0793914772
650,1778289869490,0.0183819225555555,0.7469728822222222,0.6959030333333334,0.9206237666666666,0.1826205766666666,0.0514695901111111
651,1778289869500,0.0211341733333333,0.7514203833333333,0.6920526666666666,0.9524637755555554,0.1829766144444444,0.0409376354444444
652,1778289869510,0.0235877821111111,0.7825924666666667,0.6689083666666666,1.0436655466666669,0.1291859933333333,0.0061442056666666
653,1778289869520,0.0193843132222222,0.7922192111111112,0.657545748888889,1.0713025888888887,0.0980580644444444,-0.0068783231666666
654,1778289869530,0.0009315310666666,0.7988087111111111,0.6020493344444444,1.0866241,-0.012145996,-0.014633179
655,1778289869540,-0.0021330158,0.799378,0.5759630033333333,1.0734863,-0.1124623646666666,-0.0176544193333333
656,1778289869550,-0.0017265296,0.7992152,0.56961787,1.0647888,-0.13891602,-0.018188477
657,1778289869560,0.0129714392666666,0.8065910755555555,0.5399373155555556,1.0244327222222225,-0.1524675177777777,-0.0235154894444444
658,1778289869570,0.033892519,0.8148618355555556,0.5127252044444445,0.9841868055555554,-0.1437700033333333,-0.0340542264444444
659,1778289869580,0.0239241004,0.826988066,0.50306375,0.901269522,-0.0737304682,-0.0623992928
660,1778289869590,-0.0010621871111111,0.8324063811111111,0.5171179088888889,0.8517422311111111,-0.002383762,-0.0690850177777777
661,1778289869600,-0.0068922918888888,0.8354033533333333,0.5347438811111112,0.8412119777777778,0.0275692408888888,-0.0632290341111111
662,1778289869610,-0.0130212130555555,0.8386977866666666,0.6239885222222222,0.8798522888888889,0.100709703,-0.0410885293333333
663,1778289869620,-0.0038142652222222,0.8400264666666666,0.6314590888888889,0.9239976666666668,0.0893503827777777,-0.0403798428888888
664,1778289869630,0.010883531,0.8262515333333333,0.5871493111111111,1.0676354444444445,0.0347290042222222,-0.0595584453333333
665,1778289869640,0.011941052,0.8244754,0.5814547,1.096756,0.023010254,-0.06452942
666,1778289869650,0.0216761551111111,0.8289358888888889,0.4810247944444444,1.1599545333333332,0.0002814398888888,-0.0846472866666666
667,1778289869660,0.0219205308888888,0.8366912888888889,0.4145468411111111,1.160663188888889,-0.0036298963888888,-0.0970170788888888
668,1778289869670,0.018531417,0.84082615,0.37888768,1.1406012333333333,-0.0006205240888888,-0.1055433517777777
669,1778289869680,0.0240709332,0.85400624,0.34120424,1.05744938,-0.00960082992,-0.1174743644
670,1778289869690,0.026462566,0.8583994,0.3334924,1.0237885,-0.017486572,-0.12258911
671,1778289869700,0.0171617733333333,0.8672259333333333,0.3203953222222223,0.9593963444444444,-0.0737033413333333,-0.1372612833333333
672,1778289869710,0.0036841272444444,0.8732597777777777,0.3047889766666667,0.8883158266666666,-0.0897420266666666,-0.1557871466666666
673,1778289869720,-0.0062818716,0.8730017566666667,0.30123637,0.8499654133333334,-0.08121745,-0.1611124666666666
674,1778289869730,-0.0236104211111111,0.8770960522222223,0.3051415522222222,0.7621460177777778,-0.0162353513333333,-0.1569722533333333
675,1778289869740,-0.0248984916666666,0.8780317333333333,0.3055888222222223,0.7514309555555556,-0.0029178194444444,-0.1572706455555555
676,1778289869750,-0.0347690905555555,0.8814493666666666,0.3284621388888888,0.7174530022222222,0.0472123888888888,-0.1502210855555555
677,1778289869760,-0.0408166123333333,0.8831302733333334,0.3440278766666667,0.72194926,0.0696970619999999,-0.1380310099999999
678,1778289869770,-0.0427691983333333,0.8849195266666667,0.3452074133333334,0.7311214888888888,0.0762074785555555,-0.1292148188888889
679,1778289869780,-0.0463083224444444,0.9015431155555554,0.3296010777777777,0.7580498588888889,0.0625356035555555,-0.0997941766666666
680,1778289869790,-0.0538063698888888,0.9048242266666668,0.3218047288888889,0.7659844166666666,0.0547231035555555,-0.0859459788888888
681,1778289869800,-0.0600041237142857,0.90349716,0.3076926814285713,0.7831834942857142,0.0016174315714285,-0.0445883622857142
682,1778289869810,-0.0623748973333333,0.9104234,0.2841924633333333,0.7967020666666667,-0.0808614073333333,0.0038299556666666
683,1778289869820,-0.06335119,0.9140434,0.27442953,0.79901123,-0.10429382,0.016967773
684,1778289869830,-0.0163167041785714,0.9150204285714284,0.1850884185714285,0.7627127514285714,-0.1597682414285714,0.045503888
685,1778289869840,0.00071549875,0.9155086,0.15703954,0.7691803,-0.16448975,0.05265808
686,1778289869850,-0.03816485872,0.936021852,0.1572705059999999,0.4986083879999999,-0.204968266,0.0728973384
687,1778289869860,-0.050945066,0.9338129777777778,0.1597100299999999,0.4172922766666667,-0.1550801633333333,0.0812428786666666
688,1778289869870,-0.047243137,0.9321035,0.16863216,0.38249207,-0.13626099,0.091537476
689,1778289869880,0.0312895887777777,0.9291758688888888,0.3110523599999999,0.2622324644444445,-0.0222117111111111,0.093907674
690,1778289869890,0.0495804334444444,0.9295958266666666,0.3946689333333333,0.2361908,0.1095326733333333,0.072131686
691,1778289869900,0.0384219362222222,0.9329991555555556,0.4366068222222222,0.3228352888888889,0.217246161111111,0.0307583275555555
692,1778289869910,0.0139345968666666,0.9306404,0.4177325333333333,0.4108988466666666,0.2179514566666666,0.0143025713333333
693,1778289869920,-0.0052651375666666,0.927711,0.3780736799999999,0.4733886733333333,0.1760508266666666,0.0103963216666666
694,1778289869930,-0.0074347923333333,0.9304366222222222,0.3373837422222222,0.5075361444444444,0.1395348472222222,0.0138295493333333
695,1778289869940,-0.005753543,0.9332032,0.3157978,0.52363586,0.123672485,0.016433716
696,1778289869950,0.012331775776,0.944111176,0.269574108,0.504945368,0.0680679335,0.0130783083999999
697,1778289869960,0.0193984834444444,0.9482116,0.2656990833333333,0.4890204555555555,0.0437215177777777,0.008322822
698,1778289869970,-0.0004515943333333,0.9500566666666668,0.2600041277777778,0.4657541933333333,0.0393422433333333,0.0031127929333333
699,1778289869980,-0.0240440415555555,0.9501240944444443,0.2419706166666666,0.4410756444444444,0.0373925088888888,0.0111660429555555
700,1778289869990,-0.0282475098888888,0.9498526011111112,0.2403569466666666,0.4253929988888889,0.0341373006666666,0.0195159913333333
701,1778289870000,-0.0218373326,0.94433143,0.258078854,0.430422974,0.0219360352,0.0367858878
702,1778289870010,-0.012668994,0.9435344333333332,0.2599090766666667,0.4394785566666666,0.020517985,0.040405273
703,1778289870020,-0.0039635864444444,0.9455544222222222,0.2517869477777777,0.4530893966666667,0.0278625483333333,0.0323554138888888
704,1778289870030,-0.0021734570666666,0.9496762933333334,0.2278961966666667,0.46611023,0.0370347766666666,0.0181477861111111
705,1778289870040,-0.0025804618,0.95138466,0.21890683,0.46611023,0.03845215,0.0148315429999999
706,1778289870050,-0.0122886035888888,0.9575403733333334,0.1837637588888888,0.4095984577777777,0.0488128666666666,0.0050031872777777
707,1778289870060,-0.0247090733333333,0.960415,0.1640353533333333,0.3734385199999999,0.0384572346666666,0.0039978026666666
708,1778289870070,-0.0363585342,0.974399784,0.142883544,0.295672612,-0.0176910396,0.0228301992
709,1778289870080,-0.0405718896666666,0.97932908,0.1506119666666666,0.2200419088888888,-0.0549384217777777,0.0491078688888888
710,1778289870090,-0.0412497126666666,0.9771730888888888,0.1589368133333333,0.1829935666666666,-0.0647582999999999,0.0683983702222222
711,1778289870100,-0.0090349864444444,0.970013888888889,0.2281417911111111,0.1435139955555555,-0.0576070155555555,0.1056213377777777
712,1778289870110,-0.0054828980222222,0.9689159488888888,0.2434762766666666,0.14458211,-0.051391602,0.1112467433333333
713,1778289870120,0.0004030297,0.963790802222222,0.2603559977777777,0.1834038666666666,-0.0445878766666666,0.1205410433333333
714,1778289870130,0.0136898765666666,0.9695666333333334,0.2423772733333333,0.2077840199999999,-0.0348765053333333,0.11319987
715,1778289870140,0.026462566,0.9787592666666668,0.21589708,0.2088521333333333,-0.0123291015333333,0.0981089266666666
716,1778289870150,0.0342860422222222,0.9867999777777778,0.1897288377777778,0.1852366155555555,0.0005137125333333,0.07810974
717,1778289870160,0.0370788547,0.991654341,0.171731209,0.1614440939999999,0.0039367675399999,0.0611846911999999
718,1778289870170,0.0247137409999999,0.9881561233333334,0.1500836366666666,0.08758545,0.0068461099,0.0199839273333333
719,1778289870180,0.019385349,0.98555285,0.14361615,0.06556702,0.008087158,0.010040283
720,1778289870190,0.008116763,0.9797775133333332,0.1354397566666666,0.0279947916666666,-0.0025024413444444,-0.0020362006888888
721,1778289870200,-0.006771314,0.97269926,0.1265312766666666,-0.04220581,-0.0274200436666666,-0.0192515056666666
722,1778289870210,-0.0143096288888888,0.9672753222222222,0.1213520411111111,-0.0777130133333333,-0.0375366206666666,-0.0199584956666666
723,1778289870220,-0.0123295642222222,0.9508418444444444,0.12815931,-0.1728769933333333,-0.0592041013333333,-0.0114440916666666
724,1778289870230,-0.0049799749333333,0.9475609,0.1301118966666666,-0.2137095133333333,-0.0602671306666666,-0.0014953613333333
725,1778289870240,0.0100703862,0.94808975,0.12852535,-0.2454833966666667,-0.0606231693333333,0.00063578287
726,1778289870250,0.0193603072,0.9436727,0.123810052,-0.284698486,-0.0377197254,-0.006045532389
727,1778289870260,0.0212556699999999,0.941337982222222,0.1199685666666666,-0.2959221733333332,-0.0284288180555555,-0.0091349285555555
728,1778289870270,0.0350319588888888,0.9373242933333334,0.0855845399999999,-0.37871298,0.0392201741111111,-0.0451134577777777
729,1778289870280,0.0364418718888888,0.9362259555555555,0.0770291433333333,-0.4196624833333333,0.0708296026666666,-0.0591430684444444
730,1778289870290,0.0186798752222222,0.925555872222222,0.0454101475555555,-0.5573764333333333,0.1266988088888888,-0.0948876255555555
731,1778289870300,0.0021376821999999,0.9196984766666666,0.030495282,-0.6577453600000001,0.1327311199999999,-0.1073150633333333
732,1778289870310,-0.0066216472888888,0.9176373577777776,0.0270919962222222,-0.6998816577777778,0.1292961988888888,-0.1080254462222222
733,1778289870320,-0.0376445666666666,0.9012313,0.024759886,-0.8455963066666666,0.08976237,-0.0714518226666666
734,1778289870330,-0.0394340044444444,0.8942757555555557,0.0245969117777777,-0.9024098733333332,0.0627797433333333,-0.0505015053333333
735,1778289870340,-0.0310542016666666,0.8819092666666667,0.0386307093333333,-1.0117747,0.005966186,-0.021387736
736,1778289870350,-0.0281822518,0.8614004420000001,0.0396722256,-1.09365233,-0.0371292116,-0.0073837281
737,1778289870360,-0.0260508943333333,0.8399721766666667,0.0309842066666666,-1.1192999777777777,-0.0519799128888888,-0.0033416748888888
738,1778289870370,-0.023936025,0.8228883766666667,0.0209366346666666,-1.2189636,-0.123835248,0.0146636966666666
739,1778289870380,-0.0200038927777777,0.8139942388888889,0.0142104275555555,-1.2660115333333333,-0.1588083933333333,0.018925985
740,1778289870390,-0.0087638226666666,0.8126380533333334,-0.0117683993333333,-1.4070434555555555,-0.23355272,0.0198669432222222
741,1778289870400,-0.0120585734444444,0.8088409022222222,-0.0227919188888888,-1.5642276333333334,-0.3050452311111111,0.0303463407777777
742,1778289870410,-0.0208446904444444,0.800421,0.0002312412222222,-1.7452036333333334,-0.3919219866666667,0.0563812256666666
743,1778289870420,-0.029630462,0.7821713066666667,0.0765407356666666,-1.9183095000000003,-0.4661356533333333,0.099349975
744,1778289870430,-0.029345818,0.77049728,0.12026808,-1.9962514,-0.4947204533333333,0.12438456
745,1778289870440,0.0045238873333333,0.7412653711111111,0.21016272,-2.0747815555555555,-0.4942999888888889,0.1532067166666666
746,1778289870450,0.0295132856666666,0.7196937766666667,0.2677598466666666,-2.1043734222222223,-0.4739379866666666,0.1626807322222222
747,1778289870460,0.060400364,0.6795326511111112,0.3464280744444444,-2.069161322222222,-0.3020189044444444,0.1452823177777777
748,1778289870470,0.0709424749999999,0.6676683999999999,0.36869806,-2.04375918,-0.254602048,0.1284027064
749,1778289870480,0.0721831044444444,0.6618513333333333,0.3749142544444444,-2.0088552,-0.2410024,0.1018371573333333
750,1778289870490,0.0377842077777777,0.6383816533333333,0.3467386444444444,-1.9585588444444444,-0.24112108,0.0662095777777777
751,1778289870500,0.030326775,0.6350461066666666,0.33715286,-1.9580841333333332,-0.2514801033333333,0.0649057999999999
752,1778289870510,0.0239816503333333,0.6372423333333334,0.3102252066666666,-2.0649566666666663,-0.2834421833333333,0.0780487066666666
753,1778289870520,0.0326454076666666,0.6242259733333334,0.3412612733333333,-2.2121429333333333,-0.2056783066666666,0.0867513033333333
754,1778289870530,0.0392888311111111,0.6124570733333333,0.3755649511111111,-2.281389,-0.1394534655555555,0.0875176333333333
755,1778289870540,0.06119951,0.5844448033333333,0.4936339833333332,-2.428929666666667,0.0649058,0.0689951576666666
756,1778289870550,0.0679246788888889,0.5744926166666667,0.5544859666666667,-2.4799974666666667,0.1630316822222222,0.0533752444444444
757,1778289870560,0.0537236884,0.5616015,0.6132064,-2.49682012,0.255984494,0.0314605716
758,1778289870570,0.0250118654222222,0.5396742666666666,0.6354591555555555,-2.4750959999999997,0.2423909444444444,0.0316518137777777
759,1778289870580,0.0016907547,0.5200136,0.6433236,-2.4580536,0.2078247,0.0382843
760,1778289870590,-0.0231093991111111,0.4963532222222222,0.657302061111111,-2.4223598666666666,0.0009324799999999,0.1063334144444444
761,1778289870600,-0.0181468794666666,0.493939531111111,0.6790497722222222,-2.4044867444444447,-0.0882008911111111,0.1346215155555555
762,1778289870610,0.0211201746222222,0.4906722688888889,0.7484977666666667,-2.3193867666666668,-0.20869446,0.1810251866666666
763,1778289870620,0.042000986,0.484055811111111,0.7745308555555556,-2.2927551,-0.22290039,0.1902567566666666
764,1778289870630,0.045255296,0.4787682,0.7828023,-2.2838745,-0.21508789,0.19168091
765,1778289870640,0.0616339942222222,0.4594331466666666,0.8377695444444444,-2.275648311111111,-0.0870717371111111,0.1661156555555555
766,1778289870650,0.076335471,0.44472198,0.888137717,-2.27870481,0.02450256335,0.144331361
767,1778289870660,0.0641422176666666,0.4188517588888889,0.9653564355555556,-2.277950788888889,0.2967173222222222,0.0824907091111111
768,1778289870670,0.0548550782222222,0.4061879477777778,0.9569225444444444,-2.2452240555555556,0.34507243,0.0594685873333333
769,1778289870680,0.0537966913333333,0.4055913566666667,0.9234600066666666,-2.2556407,0.29074097,0.0382792153333333
770,1778289870690,0.0587320765555555,0.4100112111111111,1.0803218644444446,-2.248245288888889,0.3129441988888889,0.0195126004444444
771,1778289870700,0.0507053561111111,0.4072183444444444,1.1147881444444443,-2.2359365333333336,0.3346659333333333,0.0164930556666666
772,1778289870710,0.0136758772222222,0.3857011777777778,1.0559695,-2.145512911111111,0.2424553833333333,0.0273267957777777
773,1778289870720,0.0011531973999999,0.374360136,1.06324766,-2.09298404,0.059655762,0.0437133792
774,1778289870730,-0.026336057,0.3393698733333333,1.1454305666666666,-1.952282388888889,-0.0990871855555555,0.087515937
775,1778289870740,-0.0237322633333333,0.31492418,1.1896862333333331,-1.7954457666666666,-0.18419393,0.1352183016666666
776,1778289870750,-0.0051835633333333,0.3022335755555556,1.191069011111111,-1.7565613,-0.2039032,0.14640808
777,1778289870760,0.1171020793333333,0.2812442377777777,1.1629208777777778,-1.6012793777777778,-0.3735148155555555,0.1677008733333333
778,1778289870770,0.12363766,0.3146799799999999,1.1775232333333332,-1.5531057,-0.3929799433333333,0.1323699933333333
779,1778289870780,0.0631654077777777,0.3082252911111111,1.1144758222222222,-1.5103149777777778,-0.1651340057777778,0.0384572348888888
780,1778289870790,-0.0053060966666666,0.3051617733333333,1.0991808,-1.5241597333333334,-0.0773111986666666,0.0274505606666666
781,1778289870800,-0.0335489418888888,0.3049046044444444,1.1062986666666663,-1.5320281555555555,-0.0613335511111111,0.0333675794444444
782,1778289870810,-0.0357127199,0.28396185,1.19686843,-1.436557,-0.0903442376,0.056484985
783,1778289870820,-0.0283026415555555,0.2728243333333333,1.2234190555555555,-1.377919511111111,-0.1078491208888889,0.0638359911111111
784,1778289870830,-0.0469040546666666,0.2121350111111111,1.2501166666666668,-1.231034988888889,-0.1489223866666666,0.1295301622222222
785,1778289870840,-0.0399621623333333,0.18175016,1.2438255666666669,-1.1209564,-0.1813507033333333,0.20055135
786,1778289870850,0.013404713,0.19712612,1.2252775,-1.034317,-0.20549011,0.27157593
787,1778289870860,0.056993987,0.2546374489999999,1.18438561,-0.93381499,-0.242088319,0.290422059
788,1778289870870,0.076127514,0.2897459,1.1333904,-0.8633423,-0.2635498,0.28327942
789,1778289870880,0.10259357775,0.27012897,1.1329938125,-0.8687343750000001,-0.279863355,0.2485351525
790,1778289870890,0.1176027185,0.25127518125,1.179242625,-0.8646774500000001,-0.22254181,0.218841555
791,1778289870900,0.1257934933333333,0.2551292166666667,1.1874893666666668,-0.8422190466666666,-0.0739390083333333,0.1829783166666666
792,1778289870910,0.1553074471428571,0.28484672,1.1252844285714283,-0.81700134,0.1480974485714285,0.0771636971428571
793,1778289870920,0.1490741688888889,0.2910339533333333,1.094707577777778,-0.8303188733333333,0.18954468,0.0327114526666666
794,1778289870930,0.1189195226666666,0.2543167666666666,1.0949515333333333,-0.8739929,0.33299764,-0.0295511873333333
795,1778289870940,0.089307208,0.23072398,1.0799416666666666,-0.8958333266666667,0.40152994,-0.0558268233333333
796,1778289870950,0.040007788,0.21107783,1.0751415666666668,-0.9190979133333336,0.4063313666666667,-0.0274200446666666
797,1778289870960,0.0283741913333333,0.19810189,1.112075266666667,-0.8764801066666666,0.33300272,0.0079142253333333
798,1778289870970,0.0333935712,0.193745544,1.1370015,-0.827815252,0.257048033,0.0223526004
799,1778289870980,0.0349645566666666,0.1878116866666666,1.1772380999999998,-0.6478068,0.0173288979999999,0.0459136956666666
800,1778289870990,0.0214597766666666,0.1360308293333333,1.1343657666666669,-0.5183173222222223,-0.1242947046666666,0.0582784022222222
801,1778289871000,-0.1441061133333333,0.0490512414444444,1.0257749777777778,-0.457719588888889,-0.1827680777777777,0.19285923
802,1778289871010,-0.1807828511111111,0.0310588672222222,0.9816416277777776,-0.4680769188888888,-0.1871473511111111,0.2498541944444444
803,1778289871020,-0.17378686,0.030679341,0.96499157,-0.5098588766666666,-0.1862606466666666,0.2922888833333333
804,1778289871030,0.09435043,0.28809125,1.0412318,-0.7726253777777777,0.0150214308888888,0.4957529666666666
805,1778289871040,0.1417387399999999,0.2867760466666667,1.0886873666666663,-0.7641041888888889,0.1097140842222222,0.4847429044444444
806,1778289871050,0.166551159,0.196918169,1.10398089,-0.6784698600000001,0.391163638,0.4225204449999999
807,1778289871060,0.1512840911111111,0.1554192877777777,1.0979473333333334,-0.6410624333333333,0.45018006,0.38946533
808,1778289871070,0.13292584,0.1379559313333333,1.0913038666666666,-0.5950249555555556,0.4723120888888888,0.3410542833333333
809,1778289871080,0.0929680044444444,0.1083429291111111,0.9774103666666666,-0.58868917,0.5735727833333333,0.2676696766666666
810,1778289871090,0.0869477915555555,0.1032988348888888,0.9294933666666666,-0.6344960544444445,0.6190236333333333,0.2347615533333333
811,1778289871100,0.0677074393333333,0.107556052,0.9122334066666666,-0.7948727022222222,0.6380801722222222,0.1839853911111111
812,1778289871110,0.0766297415555555,0.1153797033333333,0.9956336155555556,-0.8286014222222222,0.6790330666666667,0.1400078677777777
813,1778289871120,0.089722608,0.1143171012,1.05597536,-0.82355196,0.7085586559999999,0.106126406
814,1778289871130,0.087233296,0.0778229313333333,1.0172183333333331,-0.7539774666666667,0.5886688266666666,0.0082651773333333
815,1778289871140,0.091016106,0.0700945093333333,0.9968396,-0.7369283111111111,0.5170576333333333,-0.0336964927777777
816,1778289871150,0.1010216793333333,0.0529287613333333,0.9969215333333332,-0.7498932,0.3193257633333333,-0.13217672
817,1778289871160,0.1018488235555555,0.0437086781111111,1.0028468666666666,-0.7558746555555556,0.2303738022222222,-0.1704678044444444
818,1778289871170,0.10553762,0.041539367,1.0138026,-0.7483063,0.18066406,-0.18704224
819,1778289871180,0.0323738985555555,0.0209979868888888,1.0451903333333332,-0.7104221055555555,-0.16406589,-0.22077264
820,1778289871190,-0.0131568816,0.0035474223333333,1.068592166666667,-0.6746690566666667,-0.46328735,-0.2394697422222222
821,1778289871200,-0.0367496739999999,-0.0298891816666666,1.1536059,-0.5292053233333333,-0.6777648933333333,-0.1582692466666666
822,1778289871210,-0.0194817856999999,-0.034363382,1.2099628,-0.413536075,-0.75543977,-0.112998962
823,1778289871220,0.0289980921333333,-0.0008454635777777,1.251337477777778,-0.1067030177777777,-0.6206546555555555,-0.047007242
824,1778289871230,0.1043304266666666,0.0214995274888888,1.2767190555555556,0.1068216966666666,-0.4574873333333333,-0.0485483811111111
825,1778289871240,0.11261483,0.023235044,1.2792138,0.14706421,-0.4228058,-0.05281067
826,1778289871250,0.1674324055555555,0.0161172140555555,1.2335481666666666,0.3795861111111111,-0.2169206444444444,-0.171764796
827,1778289871260,0.16789385,0.0118052108333333,1.0817718333333337,0.4948679533333333,-0.0906321233333333,-0.2992401133333333
828,1778289871270,0.13077053,0.044684452,0.9404086777777776,0.4231482666666666,-0.0017903652222222,-0.3902604877777778
829,1778289871280,0.0856605805555555,0.0566161716666666,0.8433276,0.3021172444444444,0.052661474,-0.4270104311111111
830,1778289871290,0.055993997,0.059111085,0.7857296,0.22375488,0.08106995,-0.44429016
831,1778289871300,-0.01654015476,0.0210863706,0.699284924,-0.1905746462,0.294172667,-0.419311521
832,1778289871310,-0.0624153433333333,-0.0039787952,0.6780190733333333,-0.4644012466666666,0.4462738033333334,-0.3858846
833,1778289871320,0.0140965333333333,0.0188143323111111,0.8981057944444445,-0.7564595666666667,0.5896725144444445,-0.3217298711111111
834,1778289871330,0.041350124,0.0089971370666666,1.0968222833333334,-0.78735352,0.5540415566666668,-0.3056335466666666
835,1778289871340,0.0429231847777777,-0.0028127394666666,1.179503011111111,-0.7547471777777778,0.5083533555555556,-0.3020239955555556
836,1778289871350,0.020523925,-0.0252918433333333,1.3206225,-0.43493652,0.3054860466666667,-0.26816304
837,1778289871360,0.0268419168888888,-0.0119099433422222,1.341937266666667,-0.2807074622222222,0.2433454722222222,-0.2590518511111111
838,1778289871370,0.0208894523333333,0.0087539717433333,1.2881631666666666,-0.01231384,0.23268975,-0.2691141844444444
839,1778289871380,0.0123881525555555,0.0124830336666666,1.2583743888888888,0.1386023655555555,0.2451731344444444,-0.2782847177777777
840,1778289871390,0.009133497,0.008469327,1.2302799,0.16038513,0.25416565,-0.27970886
841,1778289871400,-0.206759539,0.0968667104,0.96821232,0.149731447,0.1591522262,-0.0964889538
842,1778289871410,-0.2260559533333333,0.0909879388888889,0.9360156777777776,0.1233978284444444,0.0750342477777777,-0.0013851588888888
843,1778289871420,-0.1211930466666666,0.0154247026666666,0.8446701466666666,-0.0359903986666666,-0.0487162266666666,0.1252695733333333
844,1778289871430,2.2294000000001406e-05,0.0016767559999999,0.8218503833333333,-0.1885019966666666,-0.11245728,0.1682332333333333
845,1778289871440,0.1205459853333333,0.0052552866,0.9145110866666668,-0.30515036,-0.18490092,0.1064503973333333
846,1778289871450,0.1092243411111111,0.0192482978444444,1.0580302933333332,-0.3163367444444444,-0.2685292566666666,0.0148942735555555
847,1778289871460,0.0524540088888888,0.0345298988888888,1.1430841,-0.2753228066666666,-0.3367682611111111,-0.0580223933333333
848,1778289871470,-0.0380638426666666,0.0154388744444444,1.1479654333333331,-0.1612209755555555,-0.3703850655555555,-0.0395490866666666
849,1778289871480,-0.0065670340666666,-0.03773893,1.0852695666666667,-0.1055925177777777,-0.4062483022222222,-0.0383656833333333
850,1778289871490,-0.0069002076999999,-0.009615682,1.02983666,-0.094276429,-0.442953489,-0.0165405273
851,1778289871500,0.0138533695111111,0.0319261088888888,0.9947656888888888,-0.1224568666666666,-0.40204366,-0.0112660723333333
852,1778289871510,0.0196701668888888,0.0367667864444444,0.9935182222222222,-0.1411590555555555,-0.3702612988888889,-0.0157029891111111
853,1778289871520,-0.0235293675555555,-0.014404512,1.1461619444444446,-0.1039293088888888,-0.3774176666666666,-0.0245191783333333
854,1778289871530,-0.0583489239999999,-0.049007,1.2590787,-0.04309082,-0.4126892,-0.013397217
855,1778289871540,0.0172829241111111,-0.0136993815555555,1.193305877777778,0.0579376223333333,-0.1619974751111111,-0.0149315723333333
856,1778289871550,0.0700132808888888,0.0204010466111111,1.1245629,0.1374240455555555,0.1094139935555555,-0.0407918286666666
857,1778289871560,0.03964174,0.044224042,1.0573657,0.1539917,0.19184875,-0.049087524
858,1778289871570,0.0232894836666666,0.0377155976666666,0.9803255666666666,0.0272216799999999,0.2685496066666666,-0.018188476
859,1778289871580,-0.0631882161111111,0.0714904216666666,1.0159309555555556,0.0022413466,0.2813296866666666,0.0238901772222222
860,1778289871590,-0.0284768492222222,0.0160888706666666,1.0335166555555555,-0.0163438588666666,0.2743530377777777,0.1075761577777777
861,1778289871600,0.0198735825555555,-0.0144726035555555,1.0333811444444445,-0.0216030548888888,0.2638159888888889,0.12053765
862,1778289871610,0.029635647,-0.022404443,1.0358897,-0.02230835,0.26002502,0.12030029
863,1778289871620,0.023940173,-0.01028348,1.0758731666666668,-0.0148620603333333,0.2392629033333333,0.1298929833333333
864,1778289871630,0.0252417065,-0.0065779223399999,1.08803176,-0.0142791747999999,0.25774537,0.1369232169999999
865,1778289871640,0.0750703343333333,-0.0108118082666666,1.1207811,0.0327216254444444,0.1966518888888888,0.1048533122222222
866,1778289871650,0.0736068455555555,0.0004559143333333,1.1470305666666667,0.1087171783333333,0.1097717288888888,0.0421227350222222
867,1778289871660,0.058313146,0.012496341,1.1614567,0.15931702,0.07307434,0.0009918213
868,1778289871670,0.0182320838888888,0.0089577330444444,1.151029766666667,0.2451307522222222,0.0579850939999999,-0.0622253422222222
869,1778289871680,-0.015719715,-0.0059713036,1.130136,0.28140937,0.0312940811111111,-0.0684373668888888
870,1778289871690,-0.0224715,-0.0042359600555555,1.121295911111111,0.3375159377777778,-0.0791422551111111,-0.0480143232222222
871,1778289871700,-0.0126959546666666,0.0055404491111111,1.1179337222222223,0.3789452444444444,-0.1378445111111111,-0.0364176436666666
872,1778289871710,2.2294666666666563e-05,0.0218921873333333,1.1004417000000002,0.4037356866666666,-0.1471981477777778,-0.0308498816666666
873,1778289871720,0.0063553225555555,0.0366579033333333,1.0731345666666667,0.3938496933333333,-0.1353658066666666,-0.0373586026666666
874,1778289871730,0.00449753174,0.046298213,1.0568173,0.3774261499999999,-0.1402511599999999,-0.040290832
875,1778289871740,-0.0071907622866666,0.0510437494444444,1.0809315777777777,0.3581593799999999,-0.14815267,-0.0354105623333333
876,1778289871750,-0.0105532607222222,0.0483863792222222,1.1056622444444444,0.3419443688888888,-0.1646050366666666,-0.01398722342
877,1778289871760,-0.0016857426922222,0.0422446687777777,1.1170646555555557,0.3608822244444444,-0.23059082,0.0156063504688888
878,1778289871770,0.0103816448388888,0.0525219261111111,1.1446974111111112,0.3785773355555555,-0.2763926188888889,0.0294545493333333
879,1778289871780,0.0326996758888888,0.0556810085555555,1.1883975777777778,0.4510193,-0.3315531399999999,0.0345458986666666
880,1778289871790,0.0415129264444444,0.0440887202222222,1.1965333555555555,0.5732913555555555,-0.3325042711111111,0.0259721545555555
881,1778289871800,0.0359807726666666,0.053823652,1.182892533333333,0.652771,-0.3530375155555555,0.0243699814444444
882,1778289871810,0.027804903,0.0646639775,1.1524266,0.696212775,-0.3730087299999999,0.0204315185
883,1778289871820,0.0396147795555555,0.0802628888888888,1.1076835444444444,0.7081671944444445,-0.3626793755555555,0.0321248377777777
884,1778289871830,0.0746234093333333,0.0977127633333333,1.0933246333333333,0.6944326000000001,-0.3287099133333333,0.0379231776666666
885,1778289871840,0.0906495466666666,0.1205734633333333,1.1646701666666666,0.7111256933333333,-0.25627136,-0.0189005536666666
886,1778289871850,0.0826307757142857,0.1251289514285714,1.1891917714285716,0.7294638485714285,-0.2329602928571428,-0.0386614121428571
887,1778289871860,0.066976129,0.12897253,1.1856786,0.754798885,-0.240119925,-0.0517501835
888,1778289871870,0.0450835768,0.1283499,1.16968054,0.800070184,-0.297012324,-0.0487609874
889,1778289871880,0.041105404,0.12647063,1.1653608,0.80752563,-0.30830383,-0.04588318
890,1778289871890,0.0577699566666666,0.1561788566666666,1.1301088,0.7514224500000001,-0.2235497444444444,-0.0121527778888888
891,1778289871900,0.0643264485714285,0.1656950628571428,1.1352729285714287,0.7305210642857143,-0.1629638685714285,-0.0065460205142857
892,1778289871910,0.1079640966666666,0.1741027955555555,1.1789204333333334,0.7362179211111112,0.052241008,-0.0215064151111111
893,1778289871920,0.1278551333333333,0.1639608622222222,1.207733088888889,0.7680528444444445,0.1198289671111111,-0.0380774606666666
894,1778289871930,0.13702112,0.1573444,1.2240582,0.7888794,0.14871216,-0.04801941
895,1778289871940,0.1380231588888888,0.1139153516666666,1.3457067555555555,1.1601325222222223,0.3554280577777777,-0.1720089377777778
896,1778289871950,0.12739299,0.1096849222222222,1.3497610666666666,1.2135721888888888,0.3748389333333333,-0.1846754288888888
897,1778289871960,0.0349185156,0.116062762,1.28470584,1.47065739,0.4848526159999999,-0.210949705
898,1778289871970,0.0002530171111111,0.1353521377777777,1.2162885777777777,1.5525648444444444,0.5518493777777778,-0.19644165
899,1778289871980,-0.0142140563333333,0.1599067066666666,1.0963748333333332,1.5938720333333334,0.6683807333333333,-0.15418498
900,1778289871990,0.0158054366666666,0.1844213522222222,1.0126224333333331,1.5606706,0.7448425222222222,-0.1419406477777778
901,1778289872000,0.0373642433333333,0.2013021088888889,0.9656551044444444,1.5253990666666666,0.7774505555555555,-0.1413523344444444
902,1778289872010,-0.0085462344444444,0.2122437122222222,0.9150810511111112,1.4059075555555556,0.6754828666666666,-0.1168484155555555
903,1778289872020,-0.0276915286666666,0.2192670077777777,0.90092558,1.3495653111111112,0.6051771422222222,-0.0934176955555555
904,1778289872030,-0.034150598,0.2238985329999999,0.8976790339999999,1.30032192,0.58393097,-0.0779006944
905,1778289872040,-0.047609443,0.23702918,0.9286256,1.12683865,0.4765396,-0.01792144778
906,1778289872050,-0.055906896,0.23324637,0.9426586999999998,1.1058044,0.4262085,-0.00061035156
907,1778289872060,-0.0408493791,0.270269844,1.0806371,1.05994717,0.353128045,0.0482925414
908,1778289872070,-0.0249124914444444,0.2762680633333333,1.1387590111111112,1.094502722222222,0.3619350777777778,0.0501725933333333
909,1778289872080,-0.0070950168666666,0.2357551033333333,1.145158322222222,1.2898033666666668,0.2968936455555556,0.0246056446666666
910,1778289872090,-0.0036785968666666,0.22588399,1.1294038333333334,1.4066280777777778,0.2334543855555556,0.0090399847666666
911,1778289872100,-0.0054958600888888,0.2287039911111111,1.1149505777777775,1.4498884444444444,0.2072380911111111,0.0049557156222222
912,1778289872110,-0.0225537646666666,0.2685945866666667,0.9763799333333332,1.677139266666667,0.0121765126666666,-0.0204925536666666
913,1778289872120,-0.0295366173333333,0.28321098,0.9398390444444444,1.697855622222222,-0.0374179415555555,-0.0272386337777777
914,1778289872130,-0.0609114965,0.330869175,0.961389985,1.6980896,-0.1056289679999999,-0.0125961302
915,1778289872140,-0.062131733,0.34392625,0.9830501699999998,1.7087402,-0.1122894299999999,-0.0022125244
916,1778289872150,-0.0649783506666666,0.3418381655555555,0.9828602366666668,1.713297511111111,-0.120157878,-0.0030432806666666
917,1778289872160,-0.0589852703333333,0.3371196722222222,0.9528412555555557,1.7177361333333332,-0.1409895164444444,0.0031704373555555
918,1778289872170,-0.0391495317333333,0.33836747,0.8690081133333334,1.7309943333333333,-0.3069339355555556,0.0535397002222222
919,1778289872180,0.0106391548,0.4154346366666666,0.7923204933333333,1.5889027666666666,-0.60816448,0.053543091
920,1778289872190,0.0139746925555555,0.4322472977777777,0.8075466088888889,1.5182393333333333,-0.6541493800000001,0.0331319173333333
921,1778289872200,0.011696849,0.43691152,0.81660336,1.4935608,-0.65237427,0.026031494
922,1778289872210,0.0263407243333333,0.4422808866666666,0.9105659866666668,1.492969111111111,-0.5497589122222223,-0.0018530953222222
923,1778289872220,0.033662662,0.44496557,0.9575473,1.4994202,-0.4851379399999999,-0.019256592
924,1778289872230,0.0173508446666666,0.4300370433333333,0.9974099333333332,1.6813965,-0.2887674966666667,-0.0467732746666666
925,1778289872240,0.0092969900488888,0.4248578,0.9916881888888888,1.7399241444444444,-0.2440846777777777,-0.0528123647777777
926,1778289872250,0.003142906108,0.4374000739999999,0.90359842,1.79429016,-0.187387082,-0.0433319094
927,1778289872260,0.0055140068566666,0.4766123766666666,0.7536369,1.8385315,-0.0968424466666666,-0.0197855633333333
928,1778289872270,-0.00050551543,0.48840877,0.7316721,1.8179320999999995,-0.07766724,-0.014465332
929,1778289872280,0.02764244646,0.5216136266666667,0.6732604722222222,1.723958311111111,-0.0601450595,0.0188022187777777
930,1778289872290,0.096398592,0.5462226333333332,0.6365299866666666,1.6718224,-0.090269298,0.0220591225555555
931,1778289872300,0.074582794,0.5537210166666666,0.6155957444444444,1.5690154666666667,-0.0045064286666666,-0.062225344
932,1778289872310,0.0291067993333333,0.5898955433333334,0.60870794,1.4720764,0.1215515166666666,-0.09986369
933,1778289872320,0.0190188898,0.602382752,0.605372588,1.43028258,0.16096497,-0.097235108
934,1778289872330,0.013283908,0.5936511966666667,0.6167474833333334,1.3405185444444443,0.0756225597777777,-0.0679575611111111
935,1778289872340,0.0177447141111111,0.5946404444444444,0.6377091777777778,1.339569122222222,0.0180935328888888,-0.0538143588888888
936,1778289872350,0.0231944302222222,0.6024366111111111,0.6558781788888889,1.3593343,0.0242513026666666,-0.0483754473333333
937,1778289872360,0.024306738,0.6167822333333333,0.6487733099999999,1.3856777444444444,0.0950368244444444,-0.0493757456666666
938,1778289872370,0.0232360822222222,0.6244296111111111,0.6375195944444445,1.4030219111111113,0.1462300611111111,-0.0516781271111111
939,1778289872380,0.0190193046666666,0.6398052000000001,0.5768579333333332,1.4193420666666663,0.2729899033333333,-0.0721588133333333
940,1778289872390,0.0237504103333333,0.6598585222222222,0.5158843,1.389041511111111,0.3037634888888889,-0.0818091511111111
941,1778289872400,0.0238267306,0.684264428,0.44331806,1.295636,0.219869992,-0.099465944
942,1778289872410,-0.0064991132222222,0.6856333777777778,0.4191568055555555,1.2198486444444443,0.1297166577777777,-0.1068979877777777
943,1778289872420,-0.0209798398888888,0.6926566666666667,0.4059777988888889,1.1683620888888888,0.0962185302222222,-0.1026390899999999
944,1778289872430,-0.0186074613333333,0.7342283833333333,0.3962015599999999,0.970760761111111,0.0158369277555555,-0.0860714355555555
945,1778289872440,-0.0105945666666666,0.733198,0.40125896,0.9315795833333332,0.0005679659777777,-0.0903303333333333
946,1778289872450,-0.0069873462222222,0.7287639888888889,0.4434396855555556,0.8038567222222223,-0.057127212,-0.1082577166666666
947,1778289872460,-0.0141865776,0.7415356622222222,0.5218493688888889,0.7427859888888889,-0.1121724444444444,-0.1156616188888888
948,1778289872470,-0.0314205928888888,0.7523281111111112,0.6082053955555555,0.7671661488888889,-0.1119418666666666,-0.1170857744444444
949,1778289872480,-0.0261468138888888,0.7660504777777777,0.6610302666666666,0.8338572111111111,-0.0509185794222222,-0.1154836026666666
950,1778289872490,-0.0116522604444444,0.7745659555555555,0.6714160466666667,0.8781856833333332,-0.0007832843999999,-0.1157175697777777
951,1778289872500,0.0332103408,0.7851327899999999,0.65439125,1.023565655,0.088894655,-0.135903934
952,1778289872510,0.0458510266666666,0.7883676111111111,0.6272834444444445,1.0633087222222222,0.1116061755555555,-0.1425933888888889
953,1778289872520,0.0406448232444444,0.7875406222222223,0.5967352666666667,1.073781366666667,0.1161702477777777,-0.1414048977777778
954,1778289872530,-0.0075431546222222,0.7865105777777778,0.55066215,1.0531853444444446,0.1026696088888888,-0.1035274955555555
955,1778289872540,-0.0140517739999999,0.7893304,0.54789627,1.0413513,0.09651184,-0.08317566
956,1778289872550,-0.0191765768888888,0.8045574333333333,0.5400461944444443,0.9986894277777778,0.0936737066666666,-0.0537618
957,1778289872560,-0.023081057,0.8155675,0.53618234,0.97691345,0.097579956,-0.037902832
958,1778289872570,-0.0139290671488888,0.8202991022222222,0.5400053977777778,0.9548967166666666,0.1323767777777777,-0.0313890244444444
959,1778289872580,0.0034259255833333,0.8211257288888889,0.5897393066666666,0.9429389,0.2162933388888889,-0.0277133511111111
960,1778289872590,0.00553453846,0.8167380999999999,0.6223344259999999,0.9790344,0.2381897,-0.03363037
961,1778289872600,-0.0285328446666666,0.8180883133333334,0.6440961466666666,1.1132558333333331,0.17534892,-0.02831014
962,1778289872610,-0.0437864486666666,0.8189832,0.6434454466666666,1.179835,0.1481781,-0.022272746
963,1778289872620,-0.0446813406666666,0.8121496466666667,0.591298,1.3321787333333337,0.14177958,-0.012680054
964,1778289872630,-0.0358542642222222,0.8157159144444445,0.5259040166666666,1.4201236222222222,0.14604187,-0.0113203262222222
965,1778289872640,-0.0166282603333333,0.8202583,0.4407957955555555,1.4688839333333332,0.1697235144444444,-0.0193769666666666
966,1778289872650,-0.0118555033333333,0.8250856666666667,0.3758768999999999,1.448466,0.18936666,-0.0245869956666666
967,1778289872660,-0.0116113005,0.8276485,0.3504544,1.4371033,0.19770813,-0.02671814
968,1778289872670,-0.0116927016666666,0.8315531466666667,0.34325482,1.3957366999999998,0.2039235433333333,-0.0206807456666666
969,1778289872680,-0.0109606116666666,0.8413964266666667,0.3507799966666666,1.304478933333333,0.2312672933333333,-0.0073598225666666
970,1778289872690,-0.013489951,0.84275516,0.3955805879999999,1.2973358,0.278671256,-0.00327453612
971,1778289872700,-0.0257935575555555,0.8332884999999999,0.3589289,1.321105966666667,0.2581346222222222,0.0093332924888888
972,1778289872710,-0.0367496756666666,0.82988521,0.3132764566666666,1.3334147333333333,0.2074737533333333,0.0270894366666666
973,1778289872720,-0.0731955196666666,0.8671440499999999,0.22891397,1.3014526666666666,0.0576222737333333,0.078226726
974,1778289872730,-0.0946451004444444,0.8877267155555555,0.1949630355555555,1.2632276888888887,-0.0170050719555555,0.1150953522222222
975,1778289872740,-0.09880709,0.8947228611111111,0.1920072044444444,1.1952921333333333,-0.0345255526666666,0.16894531
976,1778289872750,-0.0780211622222222,0.8996985244444444,0.2378217644444444,1.1743350444444445,0.0121103926666666,0.2125006777777777
977,1778289872760,-0.0587270672222222,0.9013662911111112,0.2670675133333333,1.1779988555555554,0.0518239342222222,0.2319708955555555
978,1778289872770,-0.0118954258,0.9141658,0.1582999533333333,1.1313679666666667,0.0959726966666666,0.2159932466666666
979,1778289872780,0.0137717954,0.937534375,0.111705692,1.06239315,0.0933151245,0.19380188
980,1778289872790,0.0269914125555555,0.9484290277777778,0.1084988173333333,0.9499189444444442,0.0469835073333333,0.1421966538888889
981,1778289872800,0.0043339522222222,0.9372570111111111,0.1579612093333333,0.8591936,0.0012308761111111,0.0968594033333333
982,1778289872810,-0.0142420545555555,0.9300709088888888,0.19489529,0.8330366444444445,-0.0081244572222222,0.080525718
983,1778289872820,-0.0163304816666666,0.9159151,0.2204938966666666,0.8586578333333333,0.039159139,0.068812052
984,1778289872830,-0.0033267236666666,0.9148577688888888,0.2130636,0.8717939444444444,0.0535397,0.0682813848888889
985,1778289872840,-0.010810771,0.9134207622222222,0.1258942511111111,0.9270205777777778,0.0569118925555555,0.0454389775555555
986,1778289872850,-0.0241802283333333,0.9168914266666668,0.0576671239999999,0.9157731666666667,0.0282101102222222,0.0654975022222222
987,1778289872860,-0.02881749,0.91880304,0.035376746,0.89967346,0.003829956,0.08514404
988,1778289872870,-0.0388510642222222,0.9220030933333332,0.021220932,0.8729248044444444,-0.0361802848888888,0.1075151211111111
989,1778289872880,-0.051393032,0.92600316,0.0035261645,0.84321594,-0.07447815,0.14213562
990,1778289872890,0.008144242,0.935955168888889,-0.0633185266666666,0.4989624,-0.2971140566666667,0.16610718
991,1778289872900,0.0262183633333333,0.9454460666666668,-0.0816498126666666,0.4053955066666667,-0.2866414466666666,0.1565195733333333
992,1778289872910,0.0317774784444444,0.9688480355555557,-0.0729991933333333,0.3232523577777778,-0.2598877066666667,0.1405453146666666
993,1778289872920,0.0489563573333333,0.9730241577777776,0.023905435,0.0330810548666666,-0.1630655933333333,0.063135782
994,1778289872930,0.0476815948888888,0.9684411888888887,0.064256455,-0.0197160510555555,-0.1209292944444444,0.0293358688888888
995,1778289872940,0.0108019571777777,0.9594926333333332,0.1391415155555555,-0.033448961,0.0230628124444444,-0.0193125408888888
996,1778289872950,-0.0163021378222222,0.9719530333333332,0.1627330977777777,-0.0219675696666666,0.1275787386666666,-0.035049438
997,1778289872960,-0.0327348465,0.97481445,0.140222979,-0.024667358,0.231477356,-0.0291076659
998,1778289872970,-0.0365453956666666,0.977377,0.1219754266666666,-0.051620481,0.28364054,-0.0023905436666666
999,1778289872980,-0.0304843949999999,0.9791668,0.1172977213333333,-0.0681881344444444,0.2910376611111111,0.012169732
1000,1778289872990,-0.019421125,0.979818,0.115427054,-0.0851593,0.27653503,0.023361206
