id,timestamp,acc_x,acc_y,acc_z,gyro_x,gyro_y,gyro_z
0,1778291901780,0.015846742,0.3630845,0.89555556,0.17330933,0.25646973,0.003036499
1,1778291901790,0.0089585975555555,0.3568202555555555,0.8805325022222222,0.1681009966666666,0.2563510499999999,0.0005510118888888
2,1778291901800,-0.0173188713333333,0.3314380111111111,0.8221897777777778,0.04245843,0.1313646111111111,0.0241156686666666
3,1778291901810,-0.0001399881111111,0.3368752944444445,0.8439516822222222,-0.0875617122222222,0.0089128284444444,0.0460781524444444
4,1778291901820,0.0178385588888888,0.3260152777777778,0.9034196444444444,-0.1737297888888888,-0.0309227838888888,0.0326402452222222
5,1778291901830,0.0062868833333333,0.31499192,0.9850298844444444,-0.2245093422222222,-0.0769059922222222,0.0213945175555555
6,1778291901840,-0.00646095348,0.317201736,1.03696302,-0.227818295,-0.1018920896,0.0196136475
7,1778291901850,-0.017996867,0.3446992933333333,1.0919413,-0.1129506444444444,-0.0786743172222222,0.0154096816666666
8,1778291901860,-0.0138065330333333,0.3525091199999999,1.0845789333333336,-0.0294494629999999,-0.0215606693333333,0.0108489993333333
9,1778291901870,0.0481836576333333,0.34640768,0.9514049066666668,0.0706888836666666,0.1971689886666666,0.038202922
10,1778291901880,0.0779929214285714,0.35177118,0.8735912857142857,0.0723419194285714,0.2973240485714285,0.044900077
11,1778291901890,0.0915729535714285,0.3548393857142857,0.8114435571428571,0.015655518,0.33422852,0.035003662
12,1778291901900,0.061078185,0.3405908866666667,0.8309221666666667,-0.1638488766666666,0.2408498133333333,0.0032145182666666
13,1778291901910,0.0400075768,0.342120394,0.8631217,-0.2139190659999999,0.19298096,-0.0020751953159999
14,1778291901920,0.0166302339142857,0.33779074,0.9157961971428572,-0.2292175257142857,0.1297062482857142,-0.0035792757942857
15,1778291901930,-0.0140922145333333,0.3251616977777777,0.9818037933333332,-0.2040405277777777,0.0695224348888888,-0.0034094914833333
16,1778291901940,-0.02271553,0.3214736,1.0001351,-0.18463135,0.05886841,0.00038146973
17,1778291901950,-0.0130616542111111,0.3293781288888889,1.0074160555555556,-0.1210632344444444,0.0744900177777777,0.0097300212433333
18,1778291901960,0.0026533942888888,0.3405366188888889,1.010941511111111,-0.063361276,0.08662245,0.0142228867777777
19,1778291901970,0.0168219973333333,0.34596024,0.9865898333333334,-0.015426636,0.084966025,-0.0005086263333333
20,1778291901980,0.031111596,0.350479756,0.94788292,0.01022033692,0.078781129,-0.0308288569999999
21,1778291901990,0.03427239,0.35039374,0.9236233,0.0028686523,0.07589722,-0.044891357
22,1778291902000,0.0262318430333333,0.3467192877777778,0.9139018722222224,-0.0490960015666666,0.0826534716666666,-0.0636545828888888
23,1778291902010,0.0125917406666666,0.3398582766666667,0.9025529333333334,-0.09425354,0.0856730166666666,-0.0772094733333333
24,1778291902020,-0.0045197401111111,0.3254043311111111,0.9125450333333336,-0.1383429622222222,0.0635901572222222,-0.0802256255555555
25,1778291902030,-0.0041402146888888,0.3194929933333333,0.938090077777778,-0.1650899222222222,0.0273691814888888,-0.0816429988888888
26,1778291902040,-0.0025804618,0.31671396,0.95571655,-0.17396545,0.0013275146,-0.08430481
27,1778291902050,-0.001848164372,0.3166654279999999,0.98607735,-0.147549438,-0.03935851988,-0.08260193
28,1778291902060,0.0010535459322222,0.31434141,1.0034432777777778,-0.1112976099999999,-0.0573730455555555,-0.0786268466666666
29,1778291902070,0.0034129634666666,0.3030467266666666,0.9894497277777778,-0.0709330253333333,-0.0519324411111111,-0.0660790336666666
30,1778291902080,0.0017858088,0.2856907044444444,0.9722302,-0.0528852675555555,-0.0557810466666666,-0.0465477836666666
31,1778291902090,0.0031953758666666,0.2740038666666666,0.9599468,-0.0596262613333333,-0.0751902266666666,-0.026433309
32,1778291902100,0.0114934331111111,0.2677266611111111,0.9549167177777778,-0.066548666,-0.0837097166666666,-0.0147196452
33,1778291902110,0.020239282,0.2627778,0.95193374,-0.07223511,-0.08654785,-0.0033569336
34,1778291902120,0.0243473505555555,0.2457879888888888,0.9495473777777776,-0.0970967611111111,-0.07518853,0.0179578991555555
35,1778291902130,0.02487637,0.2257208466666666,0.9586993444444444,-0.1284603533333333,-0.0717010495555555,0.0368381077777777
36,1778291902140,0.0229645714444444,0.2100738911111111,0.9669698977777776,-0.1539611799999999,-0.078916762,0.0487925217777777
37,1778291902150,0.0240625343333333,0.1803663433333333,0.98219676,-0.2068176266666667,-0.0940094016666666,0.0715840653333333
38,1778291902160,0.035370525,0.15929647,1.00221,-0.2437439,-0.106796265,0.09146118
39,1778291902170,0.0668680226666666,0.13657298,1.0585049666666668,-0.2838117888888889,-0.1178537984444444,0.0999230284444444
40,1778291902180,0.0792202253333333,0.1210214279999999,1.1088218333333333,-0.2854716,-0.116378784,0.0959014893333333
41,1778291902190,0.0522652806666666,0.0891034439999999,1.1556264,-0.2275356666666666,-0.0876753062222222,0.1035325788888889
42,1778291902200,0.033174254,0.07229026,1.1724396,-0.1894226,-0.064712524,0.11276245
43,1778291902210,0.0287811954777777,0.0644804356666666,1.1744191444444445,-0.1788872544444444,-0.0460696746666666,0.1214633511111111
44,1778291902220,-0.0056581433222222,-0.0329801683333333,1.2013191,-0.0750783266666666,0.1375172933333333,0.20758057
45,1778291902230,-0.00913318592,-0.085566647,1.2157710700000002,-0.0274993892,0.20959778,0.246350102
46,1778291902240,-0.0426193544444444,-0.1619372455555555,1.2412497666666666,0.0181952581111111,0.2153354255555555,0.2937995077777777
47,1778291902250,-0.0802452566666666,-0.2634922622222222,1.3036883222222224,0.0635918511111111,0.29014418,0.3937021877777777
48,1778291902260,-0.0886248911111111,-0.2963175777777777,1.3306704111111112,0.06892395,0.38217163,0.4579162599999999
49,1778291902270,-0.1480665888888889,-0.3918252666666666,1.4445093,-0.0519968653333333,0.9139201,0.6104227600000001
50,1778291902280,-0.2162392777777778,-0.4364205488888888,1.6078516222222223,-0.1695929588888888,1.3530460333333334,0.6989593255555556
51,1778291902290,-0.2729695244444444,-0.37146068,1.747912388888889,-0.0015665666666666,1.837682066666667,0.8412323
52,1778291902300,-0.2889012866666667,-0.28431846,1.7328347333333334,0.4117584266666667,2.3456318666666665,1.02037556
53,1778291902310,-0.1789857464,-0.199980342,1.51021472,0.8742599500000001,2.1909943000000003,1.09095
54,1778291902320,-0.0370334534444444,-0.0711611918333333,1.2879193444444443,1.4699198555555557,1.7053477222222222,1.036477
55,1778291902330,0.0592474443333333,0.0327128111333333,1.1021915866666667,1.794708277777778,1.3681284333333332,0.9551646111111112
56,1778291902340,0.1399218305555555,0.1310683133333333,0.8280335555555556,2.087059888888889,0.8437211577777778,0.7227562811111111
57,1778291902350,0.1585655855555555,0.2037835511111111,0.5368464822222223,2.239390077777778,0.0909373,0.3951297344444444
58,1778291902360,0.1187707188888888,0.27672899,0.2936711044444444,2.195365088888889,-0.7134603055555556,0.1114095044444444
59,1778291902370,0.0721554566666666,0.3329435144444444,0.1846309977777777,2.0545722444444445,-1.2839118222222223,-0.07460022
60,1778291902380,0.050135776,0.352992861,0.146385443,1.94234164,-1.5331802,-0.157011414
61,1778291902390,0.0256482099999999,0.3770778633333334,0.1021659611111111,1.5406935333333331,-1.8514539888888888,-0.3018646155555555
62,1778291902400,0.0230454535555555,0.3876534277777778,0.12977177,1.2668016222222225,-1.9080335888888889,-0.3757239355555555
63,1778291902410,0.036740168,0.3934828444444445,0.22285315,0.9891831777777776,-1.7776641777777775,-0.4260236922222222
64,1778291902420,0.0668949819999999,0.4067299366666666,0.2885450933333333,0.7656572,-1.5679880888888889,-0.4511125322222222
65,1778291902430,0.11115117,0.42812645,0.32263082,0.6036835,-1.328125,-0.4560852
66,1778291902440,0.1467152633333333,0.4228652944444444,0.3390916177777778,0.4834238788888889,-1.1314629266666667,-0.4602864544444444
67,1778291902450,0.19510561,0.4125068,0.3542372,0.17118835,-0.61065674,-0.4747314499999999
68,1778291902460,0.1673650066666666,0.41531331,0.37721871,-0.0393931073333333,-0.29167684,-0.4882202166666666
69,1778291902470,0.1070137248,0.400536046,0.436106599,-0.359963987,0.196815493,-0.51212159
70,1778291902480,0.051234376,0.38712525,0.4833443,-0.46957397,0.3757782,-0.517334
71,1778291902490,-0.0348510101111111,0.3739179111111111,0.5316677533333334,-0.6288960677777777,0.5123680933333333,-0.47236464
72,1778291902500,-0.10984461,0.3744733866666666,0.5778756666666667,-0.7257792000000001,0.50644938,-0.4298095733333333
73,1778291902510,-0.18631587,0.3719110733333333,0.6433640166666668,-0.7838338166666667,0.3734690366666667,-0.3341166166666667
74,1778291902520,-0.2418385733333333,0.34600068,0.7161338666666667,-0.8303527833333333,0.1472778293333333,-0.1389973946666666
75,1778291902530,-0.2412685944444444,0.3129174988888888,0.7384641477777777,-0.83602905,0.045013428,-0.0150756839999999
76,1778291902540,-0.165123113,0.243740085,0.771391615,-0.96253205,-0.002922058,0.219566345
77,1778291902550,-0.1143861302222222,0.2257339777777777,0.8118847,-1.0216217333333333,0.0296274824444444,0.2719709566666666
78,1778291902560,-0.0973698711111111,0.2376663888888888,0.91387405,-1.053226022222222,0.0959082722222222,0.2317233555555555
79,1778291902570,-0.0857362751111111,0.26660088,0.9858442433333332,-1.0366583555555555,0.1194627566666666,0.1530727755555555
80,1778291902580,-0.035529178,0.32781819,1.0613927,-0.9745178,0.10040283,0.06109619
81,1778291902590,-0.0043164966666666,0.37446042,1.0436311666666669,-0.8130662555555556,0.0158386215555555,-0.1181064188888889
82,1778291902600,0.030610902,0.3902968,1.0094085,-0.6996765,-0.07376099,-0.24783325
83,1778291902610,0.06734243,0.3943238,0.97670555,-0.68263245,-0.17123413,-0.33624268
84,1778291902620,0.1104661592,0.4495783359999999,0.896898852,-0.7652984500000001,-0.237606808,-0.44713744
85,1778291902630,0.0839245471111111,0.4459015777777778,0.8440738777777778,-0.942079338888889,-0.2107187866666666,-0.4274461511111111
86,1778291902640,0.1156519082222222,0.4762731277777777,0.8585143277777778,-1.1637217555555557,-0.1385192866666666,-0.3872053344444445
87,1778291902650,0.1346204033333333,0.502632,0.8867843177777778,-1.2392426,-0.1131897,-0.38365173
88,1778291902660,0.1053879526666666,0.5536121333333334,1.0000267,-1.4482015,-0.051930746,-0.4022928866666667
89,1778291902670,0.069877438,0.5693401444444445,1.0825720666666667,-1.5819566555555555,0.0014478895555555,-0.4213494111111111
90,1778291902680,0.008198855,0.5648658722222222,1.2184163444444445,-1.6273498666666668,0.009684245,-0.4349619533333333
91,1778291902690,-0.0471212955555555,0.5485949933333334,1.3884835222222225,-1.5357361111111112,-0.0431145561111111,-0.4213477244444444
92,1778291902700,-0.06542614,0.53673136,1.4672593,-1.4309845,-0.07270813,-0.40655518
93,1778291902710,-0.1044752622222222,0.4904961599999999,1.461429911111111,-1.0633443111111112,-0.0714060455555555,-0.3308003766666666
94,1778291902720,-0.147624188,0.444868504,1.37510432,-0.75325928,-0.04181518404,-0.2511322039999999
95,1778291902730,-0.1714545855555555,0.4303495044444444,1.191461977777778,-0.6600325,-0.0176628961555555,-0.1758083766666666
96,1778291902740,-0.1735160522222222,0.4395148111111111,1.1155334,-0.7130584777777778,-0.073767765,-0.1343790677777777
97,1778291902750,-0.17012693,0.4525312,1.0817719,-0.77638245,-0.1296997,-0.115737915
98,1778291902760,-0.1678897033333333,0.47653048,1.1241564,-0.8731977588888888,-0.2593010777777778,-0.0896962494444444
99,1778291902770,-0.16341525,0.52452904,1.2089254,-0.9319,-0.3608551,-0.07046509
100,1778291902780,-0.1610113329999999,0.5391474279999999,1.30278997,-0.80641786,-0.4631774899999999,-0.0466049194
101,1778291902790,-0.1676862944444444,0.5446226222222221,1.3422086111111111,-0.5771162333333334,-0.4811197933333332,0.0087907577777777
102,1778291902800,-0.16963853,0.54527384,1.3336399,-0.4722442599999999,-0.46099854,0.03981018
103,1778291902810,-0.1799837088888889,0.5255455844444445,1.2972476444444443,-0.3303239622222222,-0.4227701844444445,0.0790998688888888
104,1778291902820,-0.2092161444444444,0.4849232111111111,1.2254941666666666,-0.1245507177777777,-0.3628167,0.1438429111111111
105,1778291902830,-0.2329033055555555,0.4407496522222222,1.1253493888888888,0.0350630022222222,-0.4117533355555556,0.2185262022222222
106,1778291902840,-0.2159276733333333,0.4027444033333334,1.0698941,0.1859232599999999,-0.5392862866666667,0.2876536033333333
107,1778291902850,-0.17427528,0.37467715,1.0485805,0.27398682,-0.6564636,0.31996155
108,1778291902860,-0.1342228977777778,0.3755314122222222,1.0444309333333337,0.41631742,-0.7336985166666667,0.3545820444444444
109,1778291902870,-0.108795002,0.37921681,1.03989122,0.54573366,-0.79367676,0.391333006
110,1778291902880,-0.0942774,0.3931910071428571,1.0215595857142856,0.6748265014285714,-0.7282235357142858,0.4976348828571428
111,1778291902890,-0.0771408758333333,0.4132793333333333,0.9840065166666668,0.7693328916666666,-0.6150080383333333,0.60927835
112,1778291902900,-0.0741513299999999,0.4178147,0.8769463500000001,0.7602768,-0.26791382,0.775367735
113,1778291902910,-0.0416917974999999,0.40652694,0.780178265,0.610343925,0.0873565699999999,0.916778565
114,1778291902920,0.0039036894285714,0.3879611957142857,0.73346821,0.4369703028571429,0.3378884428571428,0.9949624342857144
115,1778291902930,0.09075773,0.3657021277777778,0.7411231077777778,0.2752278666666667,0.46544392,1.0017344333333331
116,1778291902940,0.2215991222222222,0.3409705933333333,0.7730127499999999,0.0547180193333333,0.5073445633333333,0.9312540566666664
117,1778291902950,0.2843081,0.32598746,0.7891469,-0.054656982,0.42425537,0.82650757
118,1778291902960,0.3190459022222222,0.2988569144444444,0.8545140777777778,-0.1360965304444444,0.2316199397777777,0.6543985999999999
119,1778291902970,0.33189964,0.28071505,0.9398527,-0.18888855,0.059402466,0.49414062
120,1778291902980,0.2857461722222222,0.2559840144444444,1.0097481333333331,-0.1597137433333333,-0.1072658964444444,0.2977159288888888
121,1778291902990,0.2223856488888889,0.2259100822222222,1.0870054333333332,-0.12763977,-0.20373535,0.16763306
122,1778291903000,0.1362064177777777,0.2138164288888889,1.1098930333333332,-0.0874989826666666,-0.1170857723333333,0.1127726266666666
123,1778291903010,0.0562371645,0.2226300266666666,1.090924,-0.0728234188888888,0.0700480134444444,0.1005791577777777
124,1778291903020,0.0105987135,0.2384944,1.0565116,-0.100997925,0.2191925,0.12875366
125,1778291903030,0.04804916435,0.2925526619999999,1.02373531,-0.1666168185,0.39106751,0.198631286
126,1778291903040,0.1057403466666666,0.34974304,1.0075793333333334,-0.2013668466666666,0.4623633466666667,0.2224883999999999
127,1778291903050,0.1506332199999999,0.3940128766666666,0.99882,-0.23924934,0.4873979244444444,0.2130211688888889
128,1778291903060,0.1491825199999999,0.40725928,0.9970433333333334,-0.2378845233333333,0.4640197733333334,0.2004750533333333
129,1778291903070,0.1425800588888889,0.4106077722222222,1.0014631888888887,-0.2357482899999999,0.45513916,0.1990509
130,1778291903080,0.0933604844444444,0.3839924444444444,1.0268729222222222,-0.1810099277777778,0.4147762755555556,0.1715376111111111
131,1778291903090,0.0663895712,0.35576308,1.01682854,-0.157725522,0.389781192,0.1444091802
132,1778291903100,0.0431126007777777,0.3117645833333333,0.9880819777777776,-0.1442616744444444,0.3008558444444444,0.0910491944444444
133,1778291903110,0.0424620838888888,0.2771088588888888,0.9649772222222222,-0.1626078266666666,0.2188364566666666,0.0758412679999999
134,1778291903120,0.049038105,0.25033122,0.9437568,-0.19100952,0.13822937,0.074417114
135,1778291903130,0.0656207372222222,0.2228744033333333,0.9436763211111112,-0.3271280911111111,-0.1002231182222222,0.0305057104444444
136,1778291903140,0.0819451722222222,0.2308468666666666,0.9838104555555556,-0.37051392,-0.2596588133333333,0.008015951
137,1778291903150,0.1513110533333333,0.2713325111111111,1.0832229222222225,-0.3450690444444444,-0.4265560577777778,-0.0698682994444444
138,1778291903160,0.18966348,0.2778349999999999,1.17607554,-0.2966354459999999,-0.495515446,-0.1301162715
139,1778291903170,0.1853032888888889,0.3304219833333333,1.2647601444444443,-0.1633673795555555,-0.4767947744444444,-0.1856858988888888
140,1778291903180,0.1523556066666666,0.3871247466666667,1.300813,-0.0237579346666666,-0.40027364,-0.2155202233333333
141,1778291903190,0.12957682,0.43056694,1.3181416,0.089157104,-0.31825256,-0.22013855
142,1778291903200,0.0876938755555555,0.4830257777777778,1.26468,0.2526753764444444,-0.2188873277777777,-0.2378251788888888
143,1778291903210,0.0506111655555555,0.5138307844444445,1.1985540444444445,0.3900909422222222,-0.1669820133333333,-0.2594231533333333
144,1778291903220,0.0305846338888888,0.5332060777777778,1.121431911111111,0.4026438444444444,-0.1906500933333333,-0.2714945533333333
145,1778291903230,0.0217442494444444,0.5475789488888889,1.068444222222222,0.3592054644444444,-0.2127244755555555,-0.2662302611111111
146,1778291903240,0.0178961798,0.555719788,1.04606662,0.317015073,-0.212413024,-0.250120534
147,1778291903250,0.0063005366888888,0.581013988888889,1.0419223888888889,0.2345682777777778,-0.18840705,-0.1878170444444444
148,1778291903260,-0.0063632724666666,0.6180835766666666,1.0635893666666665,0.1720733666666666,-0.1538441966666666,-0.1033070883333333
149,1778291903270,-0.0088450505555555,0.6695808466666667,1.0988567666666669,0.1400010888888888,-0.087083605,0.0311008044444444
150,1778291903280,-0.005753543,0.6868275,1.1042261,0.1395263688888889,-0.0518120663333333,0.0926513684444444
151,1778291903290,-0.005753543,0.6868275,1.1042261,0.14189148,-0.045013428,0.104782104
152,1778291903300,0.0786359041111111,0.7007109222222222,1.0892020555555555,0.1968095555555555,0.1216532368888888,0.3045772915555556
153,1778291903310,0.1415081922222222,0.6989617666666667,1.0533388333333331,0.21219889,0.2403157533333333,0.3638203866666666
154,1778291903320,0.1673245633333333,0.6892669,1.0131509333333333,0.1770426433333333,0.3509267166666666,0.3725179066666666
155,1778291903330,0.17575231,0.68502098,1.00691984,0.088836672,0.413491822,0.339776612
156,1778291903340,0.1703338,0.6914642,1.0083104,0.039627075,0.45248413,0.31037903
157,1778291903350,0.1038430611111111,0.6539459777777777,0.9883789000000002,-0.1596442311111111,0.5413089222222223,0.1589355488888889
158,1778291903360,0.0721972788888888,0.6280763688888888,0.9686103977777776,-0.2645161944444444,0.5376434111111111,0.0727081298888888
159,1778291903370,0.0250666530111111,0.5921462377777779,0.9557158611111112,-0.4880421911111111,0.4952121333333333,-0.0721130391111111
160,1778291903380,-0.0018074119866666,0.5682553333333333,0.96787848,-0.6568857666666666,0.4560343466666666,-0.1808929466666666
161,1778291903390,-0.0048996108,0.561259,0.99415594,-0.7204437,0.418396,-0.22706604
162,1778291903400,0.0624205233333333,0.5717944333333334,1.0799826,-0.6229756666666666,0.1376902233333333,-0.3470764233333334
163,1778291903410,0.1083171755555555,0.5902619277777778,1.1232756333333331,-0.4544287744444444,-0.0933007133333333,-0.4169142022222222
164,1778291903420,0.1389591933333333,0.5933527322222222,1.146867722222222,-0.1729617658666666,-0.2706078422222222,-0.4635450555555556
165,1778291903430,0.1411155333333333,0.5920646622222221,1.1650498555555555,0.1353166373888888,-0.3252292222222222,-0.4939066555555556
166,1778291903440,0.12762475,0.58664054,1.1693878,0.29689026,-0.3139801,-0.5018921
167,1778291903450,0.0370384646666666,0.5146442566666667,1.0990999,0.5195295533333334,-0.1003367106666666,-0.4602288111111111
168,1778291903460,-0.04529107,0.4363018,1.0086775,0.7461344555555556,0.2802683444444444,-0.3731706377777778
169,1778291903470,0.0323682316,0.34475592,0.76183724,0.72218323,0.80587765,-0.28830719
170,1778291903480,0.11369949,0.3062600888888889,0.6106731666666667,0.5178663466666666,1.1160735777777775,-0.3068915555555555
171,1778291903490,0.1552571788888889,0.3116833555555555,0.5339990000000001,0.2481248655555555,1.1905297222222222,-0.3967861666666666
172,1778291903500,0.1504434666666666,0.3285098466666666,0.5262980666666667,0.0779724106666666,1.054362,-0.4981689433333333
173,1778291903510,0.14092526,0.32940474,0.5341074,-0.039215088,0.863678,-0.59085083
174,1778291903520,0.04345186,0.3086191544444444,0.5870548000000001,-0.1152665886666666,0.337014095,-0.6577250166666667
175,1778291903530,-0.020803386,0.25431626,0.6265648566666667,-0.18095398,-0.0636478005555555,-0.687723788888889
176,1778291903540,-0.100130628,0.163836778,0.6835439400000001,-0.2391098039999999,-0.255615234,-0.65970763
177,1778291903550,-0.2073852333333333,0.04385748,0.77242962,-0.2531534866666666,-0.38199361,-0.5635020000000001
178,1778291903560,-0.2193573966666666,-0.0208457277777777,0.7984622199999999,-0.1802402099999999,-0.4509362133333334,-0.4932590255555555
179,1778291903570,-0.08035362,-0.1079869066666666,0.6449505433333332,-0.4425964333333333,-0.1053670233333333,-0.4037170399999999
180,1778291903580,-0.0252379216666666,-0.1370708966666666,0.5538758533333333,-0.99724324,0.4693450933333333,-0.41134644
181,1778291903590,-0.0578601716666666,-0.1210447611111111,0.6220763444444445,-1.5501098666666668,1.0177765,-0.43283082
182,1778291903600,-0.1050035866666666,-0.0936696733333333,0.8194109333333333,-1.7519785666666667,1.0902201466666668,-0.4548441566666666
183,1778291903610,-0.1333954,-0.07756162,1.042967,-1.6685333,0.82958984,-0.45980835
184,1778291903620,-0.0365860088888888,-0.0301057324444444,1.3151178,-0.6619754377777778,-0.4129977822222222,-0.42478095
185,1778291903630,0.073198944,-0.0363395588,1.29942166,-0.024404908,-1.11986086,-0.429135132
186,1778291903640,0.0578240494444444,-0.1620862144444444,0.9978836222222224,0.5149095333333333,-1.852464477777778,-0.5124240577777778
187,1778291903650,0.0074398043333333,-0.2143687744444444,0.774978448888889,0.8456759955555556,-2.426705277777778,-0.5381656222222222
188,1778291903660,-0.0152712315,-0.21362303,0.67078006,0.88757324,-2.5590363,-0.5237274
189,1778291903670,0.0069379190555555,-0.2518185688888888,0.5425816955555556,0.5483466211111111,-2.319703911111111,-0.4370930888888888
190,1778291903680,0.0278325566666666,-0.2561034377777778,0.4944205044444444,0.2926805244444444,-2.106596288888889,-0.3816986022222222
191,1778291903690,0.0533625522222222,-0.2320632,0.5860772955555555,-0.1874643955555555,-1.642788388888889,-0.3458302822222222
192,1778291903700,0.0417700888888888,-0.2378666944444444,0.7238479777777778,-0.6617974222222222,-1.0678423,-0.3318650977777778
193,1778291903710,0.00889085,-0.240714,0.8020818999999999,-0.8274994,-0.8104095499999999,-0.32772827
194,1778291903720,-0.0431762,-0.2516144566666666,0.9794711333333334,-0.9045613666666666,-0.43152364,-0.2387746166666667
195,1778291903730,-0.02942722,-0.25218377,1.0560232,-0.8488159,-0.3203888,-0.19190979
196,1778291903740,0.0158187438888888,-0.2510322177777778,1.1522371111111112,-0.60854085,-0.2997843444444444,-0.0990431031111111
197,1778291903750,0.0848445985714285,-0.2533527714285714,1.2013950285714283,-0.4153333342857143,-0.2859845842857143,-0.0415431427142857
198,1778291903760,0.1553765542857143,-0.2319975771428571,1.1546578285714284,-0.2213745128571428,-0.2413264671428571,-0.0694667282857142
199,1778291903770,0.1835537722222222,-0.2010548022222222,1.0594811333333334,-0.0554283977777777,-0.2316046799999999,-0.1397637288888888
200,1778291903780,0.17753391,-0.20056674,1.0241742,-0.03175354,-0.2394104,-0.1572876
201,1778291903790,0.11950247,-0.1863563133333333,0.9808412666666668,-0.0492706315555555,-0.3303256577777778,-0.1629638666666666
202,1778291903800,0.08107067875,-0.1774872362499999,0.9724040125,-0.06317139,-0.4034729,-0.15568542
203,1778291903810,0.0795314866666666,-0.1493681411111111,1.0493389,-0.0084347194444444,-0.5094011111111111,-0.0833638466666666
204,1778291903820,0.0957342499999999,-0.124257765,1.113336833333333,0.0646616616666666,-0.4849548333333333,0.0076599133333333
205,1778291903830,0.1181055099999999,-0.105627835,1.1296077,0.091293335,-0.3816223,0.08081055
206,1778291903840,0.1908891888888889,-0.0428374627777777,1.1867846222222225,0.2148624011111111,-0.1309390561666666,0.1681060777777777
207,1778291903850,0.2105624666666666,0.0022455256666666,1.1886284666666669,0.3563639333333334,0.0421702066,0.2130839
208,1778291903860,0.1865232666666666,0.0397091436666666,1.1429485666666668,0.5163269033333333,0.17693583,0.2287038166666666
209,1778291903870,0.1403150066666666,0.0462585493333333,1.0669247999999998,0.6146901333333334,0.3070729533333333,0.25178528
210,1778291903880,0.10565894,0.024700262,0.985979,0.6473541,0.39335632,0.27522278
211,1778291903890,0.1147163964444444,0.0232893117777777,0.9073384666666668,0.6059909355555555,0.5197635233333333,0.3232218444444444
212,1778291903900,0.17289716,0.042881188,0.8466631499999999,0.5722588422222221,0.5517188211111111,0.3268873466666666
213,1778291903910,0.1524504888888889,0.0422306704444444,0.79880145,0.5152621888888889,0.6176537433333333,0.2952219666666666
214,1778291903920,0.1287358522222222,0.0340409755555555,0.7159708777777778,0.3430464,0.7131754566666666,0.2475196011111111
215,1778291903930,0.13104048,0.03702395,0.6606511,0.2303008999999999,0.75076294,0.24485779
216,1778291903940,0.1775072877777778,0.0728332766666666,0.6493560422222222,-0.10087077,0.7854936222222223,0.1849670399999999
217,1778291903950,0.181988656,0.086275149,0.686398459,-0.310266116,0.7713684000000001,0.1211822509999999
218,1778291903960,0.14055973,0.08900804,0.7171506,-0.40460205,0.7598114,0.09732056
219,1778291903970,0.0658371166666666,0.1021054766666666,0.8636928622222222,-0.6744045777777777,0.65789455,0.0918172211111111
220,1778291903980,0.06307121,0.10096621,0.8914072,-0.706604,0.63516235,0.09039307
221,1778291903990,0.0443330951111111,0.0560059251111111,0.9906296222222222,-0.7214016222222221,0.5286390455555555,0.0972629122222222
222,1778291904000,0.0401569338888888,0.0202112840444444,1.081133988888889,-0.7039438666666666,0.4425896533333333,0.1042514355555555
223,1778291904010,0.0580948691111111,0.0044962354777777,1.1770223888888889,-0.5698920322222222,0.3924628444444444,0.0827704524444444
224,1778291904020,0.0440957215,0.0089577327499999,1.20459425,-0.417275996,0.371301268,0.0526916505999999
225,1778291904030,0.0122258689444444,0.0166189263333333,1.2006552333333331,-0.2735680444444444,0.3262413866666666,0.0367262097777777
226,1778291904040,-0.0091430021666666,0.0207943974444444,1.1881807,-0.1824289955555555,0.2649281822222222,0.0345967608888888
227,1778291904050,-0.024057867,0.023844773,1.1771977,-0.12976074,0.22024536,0.036071777
228,1778291904060,-0.0526937154444444,0.0136494352222222,1.1425958777777778,-0.0521172413333333,0.1302998844444444,0.0460069441111111
229,1778291904070,-0.0654251,0.01030059,1.123180133333333,0.0110321046666666,0.0613505026666666,0.0609232566666666
230,1778291904080,-0.0598936422222222,0.0256209042222222,1.0907479333333332,0.0848999033333333,-0.0022176106666666,0.075485228
231,1778291904090,-0.045698076,0.0343797146666666,1.0258421666666666,0.1520148411111111,-0.0764363617777777,0.0890960697777777
232,1778291904100,-0.026254138,0.02518711,0.9522993,0.17810059,-0.16964722,0.09945679
233,1778291904110,0.00742594372,0.030556462,0.9135435,0.1346450815,-0.240907288,0.0970581069999999
234,1778291904120,0.0335402999999999,0.0315327546666666,0.9044645333333332,0.045476278,-0.3555297866666667,0.0902201366666666
235,1778291904130,0.0595727022222222,0.0049300282222222,0.93551408,-0.0102793373333333,-0.3867848733333333,0.0770823183333333
236,1778291904140,0.0864602466666666,-0.0330622633333333,0.98118002,-0.06761678,-0.38198852,0.0485026043333333
237,1778291904150,0.09345658,-0.057793632,1.0052602,-0.08288574,-0.3496704,0.025421143
238,1778291904160,0.0483457694444444,-0.0808154111111111,0.9886227555555556,-0.1342010466666666,-0.18900045,0.0110321044
239,1778291904170,0.0198317592333333,-0.0888696086666666,0.9817078,-0.1827307777777778,-0.1062672931111111,0.0299801295555555
240,1778291904180,-0.0352979357222222,-0.0547009144444444,0.9861553111111112,-0.2073499888888889,-0.1048397477777777,0.0674981016666666
241,1778291904190,-0.0902793455555555,-0.0153401898888888,0.9987514000000002,-0.1809505888888888,-0.1955057755555555,0.10081482
242,1778291904200,-0.09739804,-0.012154146,1.0083104,-0.1457367,-0.26445007,0.10585022
243,1778291904210,-0.1161492966666666,-0.0516916736666666,1.0217742,-0.0255381277777777,-0.4637722288888889,0.1440209266666666
244,1778291904220,-0.1004750366666666,-0.0987808233333333,1.0410950888888888,0.0509287516666666,-0.5786403866666667,0.1847347655555555
245,1778291904230,-0.0331822066666666,-0.0965840366666666,1.0372720333333334,0.0772620322222222,-0.6068742555555555,0.2236209444444444
246,1778291904240,0.04025199,-0.0928961083333333,1.0257203666666668,0.0674913222222222,-0.5875803611111111,0.2409566244444444
247,1778291904250,0.08515835,-0.103552885,1.0253937,0.01777649,-0.51797485,0.23846436
248,1778291904260,0.1160042922222222,-0.1059124766666666,1.0382885666666666,-0.0067816838888888,-0.4741906,0.230775621111111
249,1778291904270,0.17826651,-0.09940455,1.0613927,-0.056793213,-0.31825256,0.1793518
250,1778291904280,0.1921093377777777,-0.1123943122222222,1.0812703444444445,-0.0748986138888889,-0.1314697288888889,0.1082729755555555
251,1778291904290,0.1950383944444444,-0.1309557988888889,1.0950585222222222,-0.0783877905555555,0.0279083249999999,0.0479685466666666
252,1778291904300,0.21121419,-0.1626961233333333,1.1209029,-0.0832366946666666,0.2953542066666667,-0.0592702233333333
253,1778291904310,0.2232815744444444,-0.1737198133333333,1.166459588888889,-0.0838334822222222,0.4199812111111111,-0.1620127333333333
254,1778291904320,0.226687416,-0.186142282,1.19711306,-0.0742614744,0.4870941119999999,-0.24164428
255,1778291904330,0.1806117544444444,-0.2032915044444444,1.2667675444444444,-0.0139329697777777,0.6442853999999999,-0.3705681644444444
256,1778291904340,0.1016861944444444,-0.1897732488888888,1.2982783333333332,0.1121215813333333,0.8170912,-0.4143693699999999
257,1778291904350,0.0251606668666666,-0.1955224666666666,1.2701845333333333,0.2356330011111111,0.8476240444444445,-0.3614637644444444
258,1778291904360,-0.0098754379444444,-0.2135556311111111,1.2289655666666668,0.3393825888888889,0.7260708177777777,-0.2595469222222222
259,1778291904370,-0.0290616919999999,-0.22704642,1.1975769,0.3831787,0.6394348,-0.20414734
260,1778291904380,-0.0091570017777777,-0.2572010688888889,1.1318982777777775,0.3995090022222222,0.38424004,-0.089814928
261,1778291904390,0.034597476,-0.2784612333333333,1.0885649333333332,0.3877936466666666,0.2213168655555555,-0.02376980242
262,1778291904400,0.0896727333333333,-0.2895255333333333,1.0791286666666666,0.3352356,0.0688018786666666,-0.00530497226
263,1778291904410,0.1373183822222222,-0.307151691111111,1.1036833555555556,0.2816196088888889,-0.0683814151111111,-0.024839613
264,1778291904420,0.15532544,-0.33882442,1.1335118,0.28782654,-0.081222534,-0.0571441649999999
265,1778291904430,0.1098077966666666,-0.3884084933333333,1.1081302666666668,0.3470679377777778,0.029676649,-0.1309424494444444
266,1778291904440,0.0587180762222222,-0.4088012488888889,1.0550616444444445,0.3819274866666666,0.1494038899999999,-0.1631367966666667
267,1778291904450,-0.0248718773333333,-0.3459026933333333,1.0114025666666668,0.4046529155555556,0.2432149311111111,-0.1255679644444444
268,1778291904460,-0.0787815977777777,-0.3250353611111111,0.9964332666666668,0.42578125,0.2848816,-0.0617675776666666
269,1778291904470,-0.10264452,-0.3335764,0.99622935,0.43963623,0.2692566,0.005706787
270,1778291904480,-0.11076595,-0.3400855311111111,1.0263030555555557,0.4719424822222222,0.1673431416666666,0.176035566
271,1778291904490,-0.0946442399999999,-0.3275988866666666,1.0691898444444443,0.5110016,0.078567505,0.31356812
272,1778291904500,0.02970844,-0.28932997,1.0841144,0.702914441,0.00937652578,0.450512702
273,1778291904510,0.1024595944444444,-0.2356021666666666,1.0632641777777778,0.8885260888888888,0.0492723265777777,0.4637739444444444
274,1778291904520,0.11200511,-0.20300722,1.0474824,0.9685364,0.09188843,0.44459534
275,1778291904530,0.0908533083333333,-0.13292204,0.9461983433333332,1.0576612888888888,0.1924387644444444,0.4083218055555555
276,1778291904540,0.06856345,-0.07145966,0.8441827,1.1831818,0.3438263,0.35139465
277,1778291904550,-0.0015098051111111,-0.0279628662222222,0.7759552777777778,1.1885698555555555,0.3678470177777778,0.3327501111111111
278,1778291904560,-0.080557898,0.0081169356666666,0.717095801111111,1.1751963666666667,0.1865183511111111,0.3889736644444445
279,1778291904570,-0.0557616139999999,0.0102758064,0.692866564,1.16928255,0.0296157855,0.431762698
280,1778291904580,-0.0149871055666666,0.0329564946666666,0.66170929,1.1573842222222224,-0.095077515,0.4522315122222222
281,1778291904590,0.0046196333,0.06850745,0.63234067,1.1379089,-0.13609314,0.4547119
282,1778291904600,0.0024772849999999,0.1932344344444444,0.5321952277777778,0.9717237888888888,-0.0168931738888888,0.43015883
283,1778291904610,-0.0188376641111111,0.2374899388888888,0.4769303677777778,0.8499281222222222,0.0493943956666666,0.4182061122222222
284,1778291904620,-0.0727885166666666,0.2829123566666667,0.4869233333333334,0.5643870177777778,-0.0450693755555555,0.4382612422222222
285,1778291904630,-0.0967874544444444,0.3149110366666667,0.5587027555555556,0.3187238911111111,-0.2719760444444444,0.4708709711111111
286,1778291904640,-0.005704702,0.337727856,0.66684982,0.183435056,-0.681292724,0.475701906
287,1778291904650,0.2502628033333333,0.35897608,0.7956148733333334,0.2576497333333333,-1.2368571,0.3391418433333333
288,1778291904660,0.31567028,0.35319972,0.81758016,0.2894287,-1.3563385,0.2885437
289,1778291904670,0.3716813911111111,0.3276013033333333,0.772741411111111,0.24587334,-1.2563883222222223,0.1117689333333333
290,1778291904680,0.4102968888888889,0.3539053877777778,0.7919402999999999,0.1394042923333333,-0.9110666666666668,0.0025126146666666
291,1778291904690,0.4317195,0.38895446,0.8402771,0.043884277,-0.4945526,-0.07632446
292,1778291904700,0.3497572222222222,0.3905275155555555,0.8944848999999999,-0.0296223966666666,0.1218821199999999,-0.2961222366666666
293,1778291904710,0.2530971555555555,0.4125745477777778,0.9208565488888888,-0.0770348462222222,0.4664408333333333,-0.4573347344444445
294,1778291904720,0.177217224,0.3950561099999999,0.880864192,-0.1103225722,0.672935479,-0.6761169440000001
295,1778291904730,0.1250624466666666,0.3493764833333333,0.8165220133333333,-0.1643168166666667,0.6724599122222222,-0.924328272222222
296,1778291904740,0.10553762,0.34441465,0.7765775,-0.25546265,0.5233154,-1.0270691
297,1778291904750,0.0948513575714285,0.3473084214285714,0.7824523571428571,-0.3059103857142857,0.4513331567142857,-1.0226549485714287
298,1778291904760,0.019018713,0.3616379585714285,0.8483132999999999,-0.5395812957142857,0.1108333042857142,-0.99701142
299,1778291904770,-0.025339543,0.342706015,0.99891405,-0.580101015,0.1190490699999999,-0.715484635
300,1778291904780,-0.051596274,0.3256214,1.0777449,-0.4692230233333334,0.2788340233333333,-0.5464630333333332
301,1778291904790,-0.075153812,0.3212631457142857,1.0795411571428573,-0.3515646742857142,0.4550585114285714,-0.3882206571428571
302,1778291904800,-0.0760288233333333,0.3684128922222222,0.9854094055555556,-0.2555185911111111,0.4916466644444445,-0.2387746222222222
303,1778291904810,-0.07103969,0.37199247,0.94717413,-0.21498108,0.44075012,-0.16952515
304,1778291904820,-0.091027306,0.35559199,0.915007474,-0.138278199,0.023860172,0.0511398301999999
305,1778291904830,-0.0307688661111111,0.3614035977777778,0.9244774333333334,0.00743103,-0.3769565088888889,0.2277628622222222
306,1778291904840,0.0400487466666666,0.3763450733333333,0.93114851,0.1778750966666666,-0.6427985222222222,0.3073052355555555
307,1778291904850,0.1199091233333333,0.4313389222222222,0.8884107833333333,0.3702121355555555,-0.7407429999999999,0.2676493355555556
308,1778291904860,0.1667547611111111,0.4894789055555555,0.8363180044444445,0.4464365688888889,-0.7257097055555555,0.2130839066666666
309,1778291904870,0.14047729,0.6409841833333334,0.75729788,0.4654337577777778,-0.4425947422222223,-0.0167151577777777
310,1778291904880,0.0945536766666666,0.7179848233333332,0.7068593666666667,0.4231211333333333,-0.1542002366666666,-0.20858765
311,1778291904890,0.0058798793333333,0.8095883944444444,0.6346727977777777,0.3152923555555555,0.1864573166666666,-0.3883836499999999
312,1778291904900,-0.0324774226666666,0.8413964333333332,0.5925594566666667,0.1459706616666666,0.4750264466666666,-0.4726002933333333
313,1778291904910,-0.0351621,0.8403376999999999,0.55497503,0.032699585,0.5840454,-0.48112488
314,1778291904920,-0.0179700793777777,0.7943473888888889,0.5648447988888888,-0.2417229533333333,0.6025661833333333,-0.4859144422222222
315,1778291904930,-0.0285599788888888,0.7539554111111112,0.5741189888888889,-0.4797515866666666,0.5792439744444444,-0.4747280511111111
316,1778291904940,-0.0403413402222222,0.6676272111111111,0.6310249444444445,-0.8192223333333333,0.469519721111111,-0.3929426422222222
317,1778291904950,-0.040287245,0.6042532,0.7278074,-1.0177154444444445,0.42869059,-0.3312733977777777
318,1778291904960,-0.046145003,0.5377066,0.81453,-1.154007,0.5094757,-0.25048828
319,1778291904970,-0.0496974371111111,0.5216396822222222,0.8377424111111111,-1.1996952,0.5685967333333334,-0.2288869211111111
320,1778291904980,-0.0891535633333333,0.3922364111111111,1.0402006111111113,-1.5982259,1.0667776,-0.044184367
321,1778291904990,-0.3347562666666667,0.4567891044444445,1.218241411111111,-1.7018551,1.0062374666666667,0.126668294
322,1778291905000,-0.5746377555555555,0.6237782199999999,1.4289436777777778,-1.6882425666666667,0.7963816333333333,0.3982594866666666
323,1778291905010,-0.6675152,0.76492417,1.5729369,-1.6008911,0.5542145,0.706131
324,1778291905020,-0.2839517253333333,0.9720478933333332,1.7383261333333335,-1.4585012,0.4583960644444444,1.0409783333333331
325,1778291905030,0.1439348408888889,1.071867588888889,1.8554470444444449,-1.3143361777777778,0.4260881088888889,1.2102373333333334
326,1778291905040,0.24757811,0.9521577333333332,1.8532371333333333,-1.0309753,0.4290415433333333,0.9809672
327,1778291905050,0.121449382,0.65517224,1.76532768,-0.6141403000000001,0.260299684,0.707724011
328,1778291905060,-0.03699284,0.4398404,1.6978941,-0.2480011,-0.0588531499999999,0.59213257
329,1778291905070,-0.0908346371111111,0.3136494077777778,1.5798246,0.2915038922222222,-0.5399373333333334,0.3856557177777777
330,1778291905080,-0.1305890611111111,0.2611770788888889,1.5482870222222225,0.5392388044444445,-0.7810397722222223,0.2440338111111111
331,1778291905090,-0.2310323,0.1897094766666666,1.5057128555555557,0.8934411200000001,-0.9450395333333332,0.1340772833333333
332,1778291905100,-0.2247407488888889,0.2063595166666666,1.4587996555555556,1.167563577777778,-0.9585350711111112,0.1281636522222222
333,1778291905110,-0.1398352453333333,0.3003079555555555,1.3964024444444445,1.3098314222222225,-0.8909471311111111,0.1396467377777777
334,1778291905120,0.0038873355999999,0.45084726,1.2230564,1.5526183999999998,-0.6760681399999999,0.102114868
335,1778291905130,0.0598849966666666,0.4788485822222222,1.1063801644444444,1.642615422222222,-0.5721300111111111,0.0729387055555555
336,1778291905140,0.1280177555555555,0.4870111355555556,0.9094402066666666,1.6475864444444444,-0.4379069,0.0585005024444444
337,1778291905150,0.1615214155555555,0.4839064900000001,0.7796291866666666,1.5477481777777775,-0.3480156711111111,0.0649549701111111
338,1778291905160,0.1869297466666666,0.45273546,0.6834293333333333,1.3066965777777777,-0.2458699544444444,0.0795678033333333
339,1778291905170,0.1794868344444444,0.4261465566666667,0.6796734777777779,0.9969957111111112,-0.1885206455555555,0.0766126822222222
340,1778291905180,0.13555591,0.40542957,0.7127565,0.7293854,-0.16325378,0.07495117
341,1778291905190,0.0729414688888888,0.4186894722222222,0.80876675,0.4148915444444445,-0.1483408611111111,0.0962575277777777
342,1778291905200,0.0519389882222222,0.4297128177777777,0.8589883744444444,0.2721523633333333,-0.1344943533333333,0.1024102102222222
343,1778291905210,0.0213508966666666,0.4526540577777778,0.959431932222222,0.17279053,-0.044998168,0.106735228
344,1778291905220,-0.018908454,0.49721812,1.11742858,0.23457031,0.0451263416,0.1372711184
345,1778291905230,-0.017224854,0.51025015,1.1619451,0.3128662,0.09082031,0.16444397
346,1778291905240,0.0367947827777777,0.5524867044444445,1.1677067666666667,0.5300666111111112,0.1485205711111111,0.2202402777777777
347,1778291905250,0.082433752,0.5903025233333333,1.1445761,0.6590779800000001,0.1756846066666667,0.2526702899999999
348,1778291905260,0.1327089473333333,0.6247958133333333,1.0814468333333334,0.7746005444444444,0.2064598888888889,0.2646230055555555
349,1778291905270,0.1541858366666667,0.6598987933333333,0.9628751466666668,0.8257344333333333,0.2140994555555555,0.2586449533333333
350,1778291905280,0.12847869,0.6809697,0.88811284,0.7789154,0.1962738,0.24911499
351,1778291905290,0.0889410061,0.70306867,0.8557139579999999,0.69886169,0.1419509859,0.259025574
352,1778291905300,0.0540683728888888,0.7303640177777777,0.8237896466666667,0.5922020833333332,0.0432434082222222,0.2771759044444444
353,1778291905310,0.1094018311111111,0.746946298888889,0.7688225666666667,0.4669748966666667,-0.1644897433333333,0.2885386133333333
354,1778291905320,0.1747005966666666,0.7576573355555555,0.7162824999999999,0.3274230966666666,-0.3191274066666666,0.2448628766666666
355,1778291905330,0.19791317,0.76297206,0.6981137,0.27770996,-0.3640442,0.22409058
356,1778291905340,0.2183187166666666,0.7616036444444444,0.7095841444444445,0.0963745108888888,-0.3916286866666666,0.1220058844444444
357,1778291905350,0.20356717,0.7608582333333334,0.7066965666666667,-0.0118713386666666,-0.3452301033333333,0.0635935446666666
358,1778291905360,0.166404794,0.75579748,0.7024328200000001,-0.119699099,-0.25267792,0.0332427975
359,1778291905370,0.1185125222222222,0.7388238333333333,0.7305727888888889,-0.2878418,-0.0854865211111111,-0.0039452447777777
360,1778291905380,0.057458181,0.7130219766666667,0.8427180433333334,-0.4196929966666667,0.1439056333333333,-0.0310465496666666
361,1778291905390,0.0522785916666666,0.7073546722222223,0.9213319833333332,-0.41738383,0.3194936,-0.0372619626666666
362,1778291905400,0.06319254,0.7040321,0.9656013,-0.37583923,0.4391632,-0.039031982
363,1778291905410,0.0887780161111111,0.7040186066666667,0.9662381777777777,-0.2329762753333333,0.5332607644444445,-0.055425008
364,1778291905420,0.1285191333333333,0.7043986333333333,0.9507132466666668,0.044052124,0.69269816,-0.0850168866666666
365,1778291905430,0.0735931933333333,0.7031105888888889,0.8438572955555556,0.2132568328888889,0.6838243111111111,-0.0861443399999999
366,1778291905440,0.032320324,0.7040321,0.7734059,0.3048706,0.6639404,-0.08590698
367,1778291905450,0.0005428459399999,0.689901614,0.6997975999999999,0.308660888,0.613011161,-0.084046937
368,1778291905460,0.0184360178666666,0.626896831111111,0.5346362333333334,0.0726470933333333,0.6146935355555555,-0.1113535566666666
369,1778291905470,0.0426520213333333,0.5958341533333332,0.4580021666666667,-0.2149810766666667,0.6625111866666666,-0.1400502533333333
370,1778291905480,0.10648626,0.5846889666666667,0.4914653666666666,-0.6440412777777778,0.7010447333333334,-0.19213698
371,1778291905490,0.15434863,0.5798075,0.5499712,-0.8572709888888889,0.708090911111111,-0.2258148244444444
372,1778291905500,0.163745,0.5798075,0.5499712,-0.9079437,0.690567,-0.2414398199999999
373,1778291905510,0.1279498412222222,0.5481209455555556,0.7493117588888889,-0.9297773333333332,0.4104020777777777,-0.3384382444444445
374,1778291905520,0.058799997,0.50781125,1.0360111,-0.77211,-0.2394104,-0.5295868
375,1778291905530,-0.0099438776666666,0.36804685,0.9498998066666668,-0.358078,-0.6690724800000001,-0.5368652333333334
376,1778291905540,-0.02161774,0.2643225222222222,0.8186102555555556,-0.2971242244444444,-0.7798580666666667,-0.5383487333333333
377,1778291905550,-0.01978665,0.2128671,0.7228855,-0.35986328,-0.77630615,-0.54930115
378,1778291905560,-0.0079631211111111,0.1716360499999999,0.6108776088888889,-0.69115195,-0.6177622333333334,-0.54681904
379,1778291905570,0.0317783413333333,0.1451959497777777,0.5990131211111112,-0.9933369944444446,-0.4604610888888889,-0.5480024333333334
380,1778291905580,0.0895111382222222,0.0804253433333333,0.7166756844444444,-1.3325026,-0.3832295722222222,-0.6132168233333333
381,1778291905590,0.0966559266666666,0.0743111155555555,0.9690179,-1.4317559555555557,-0.5937991555555555,-0.6781395777777778
382,1778291905600,0.09516444,0.09742916,1.1465696,-1.3734589,-0.7970886,-0.70269775
383,1778291905610,-0.0520568561111111,0.0740931813333333,1.3890677,-0.8966912222222222,-1.1898142111111112,-0.6617465499999999
384,1778291905620,-0.10642733,0.05703614,1.4648204,-0.6642320388888889,-1.3227318222222222,-0.6219804444444444
385,1778291905630,-0.1579095355555555,0.0075469566666666,1.4372012666666665,0.2161526055555555,-1.3390621333333332,-0.4098697333333333
386,1778291905640,-0.1477136766666666,-0.0277732766666666,1.1781749666666663,0.6952311111111111,-1.172232711111111,-0.27031792
387,1778291905650,-0.1325819133333333,-0.0353388983333333,0.8266509666666667,0.7805124999999999,-0.9206542666666668,-0.1567535386666666
388,1778291905660,-0.1200135122222222,-0.0225527278888888,0.6039616444444444,0.6539848944444445,-0.6962364977777777,-0.0652008058888888
389,1778291905670,-0.06762241,0.005540449,0.4599148,0.33203125,-0.46046448,0.036605835
390,1778291905680,0.0280084933333333,0.0356273438888888,0.3858822944444444,-0.3134562177777777,-0.3967268222222222,0.1190456833333333
391,1778291905690,0.1341332066666666,0.0365770206666666,0.4357112666666667,-0.65990194,-0.5343221133333333,0.1067301456666666
392,1778291905700,0.2470503133333333,0.0088896395555555,0.5744993555555555,-0.9799567444444444,-0.9176940999999998,-0.0173136394444444
393,1778291905710,0.2728525111111111,-0.0333875222222222,0.7323093333333334,-1.0993296333333331,-1.218928,-0.1489308666666667
394,1778291905720,0.2622361744444444,-0.0668642222222222,0.8425690888888888,-1.1433563,-1.3733978,-0.25474548
395,1778291905730,0.16537215,-0.1091671333333333,1.0106428666666667,-1.0674285888888888,-1.355519588888889,-0.3668433333333333
396,1778291905740,0.1194350577777777,-0.1241355777777777,1.0857858,-0.9946933111111111,-1.2835591666666668,-0.3883836599999999
397,1778291905750,0.0594513755555555,-0.1669265555555555,1.0115923333333334,-0.8720737111111112,-0.8913065444444445,-0.3689744777777777
398,1778291905760,0.037079945,-0.180553,0.9775595,-0.8365631,-0.7241211,-0.3453064
399,1778291905770,0.0747045491666666,-0.1806554,0.9013938583333332,-0.8778381333333333,-0.4773356166666666,-0.2871576916666666
400,1778291905780,0.0728199711111111,-0.2262196211111111,0.94706645,-1.40067884,0.3709801577777777,-0.0636511888888889
401,1778291905790,0.048184175,-0.30966008,1.0825045,-1.8123474,1.0101471,0.10585022
402,1778291905800,0.162493458125,-0.18933945175,1.4945333625,-1.578584665,1.361547475,0.2449321775
403,1778291905810,0.292826574,0.0319715948,1.63168144,-0.515867618,0.97573698,0.241673279
404,1778291905820,0.24062379,0.016523354,1.4948386,0.07583618,0.5611267,0.11489868
405,1778291905830,0.0738235721111111,-0.1410298113333333,1.1615107333333332,0.3116828077777778,0.3273637488888889,0.1136033811111111
406,1778291905840,0.02231371,-0.2128638077777777,0.9719193,0.3738894977777778,0.2417890755555555,0.1363881477777777
407,1778291905850,0.1159911633333333,-0.1768116566666666,0.8106237666666667,0.2680680977777778,0.1859215644444444,0.0923478877777777
408,1778291905860,0.1772765655555555,-0.13863065,0.7019920333333334,0.1393415631777778,0.1315934888888889,-0.008136325
409,1778291905870,0.15288498,-0.1396747,0.6566241,-0.0056610107,0.11958313,-0.12371826
410,1778291905880,0.1083849299999999,-0.1400132555555555,0.6589015833333334,-0.1411861837222222,0.1024186882222222,-0.1678704155555555
411,1778291905890,0.05697081,-0.14138255,0.6837135,-0.4008789,0.048736572,-0.23451233
412,1778291905900,0.0512205508888888,-0.1379930944444444,0.7257730511111111,-0.5365159888888889,0.0615200471111111,-0.2192501477777778
413,1778291905910,0.040129627,-0.1366638866666666,0.8092000466666667,-0.6767188355555556,0.0728827599999999,-0.1629689533333333
414,1778291905920,0.042082213,-0.13796526,0.84930634,-0.73057556,0.07910156,-0.11946106
415,1778291905930,0.0863513655555555,-0.1384398488888888,1.0079029844444445,-0.6966027133333333,0.1500634055555555,0.0218658447777777
416,1778291905940,0.1183367524444444,-0.1374231199999999,1.0808760555555557,-0.65209622,0.1884155222222222,0.0917629666666666
417,1778291905950,0.1730603088888888,-0.1257089822222222,1.1274105444444444,-0.5237867711111112,0.3067762555555555,0.1303439666666666
418,1778291905960,0.199865396,-0.1032363575,1.14245721,-0.427494813,0.4545547499999999,0.142544555
419,1778291905970,0.1885574211111111,-0.1021701105555555,1.0843615111111111,-0.3649444611111111,0.6630995033333333,0.1276228122222222
420,1778291905980,0.1502811766666666,-0.11054974,1.0304379666666668,-0.3426310266666666,0.8080359544444444,0.1110449868888888
421,1778291905990,0.11481111,-0.1167320599999999,1.0061141,-0.35879517,0.8482208,0.106903076
422,1778291906000,0.0956118922222222,-0.1161627733333333,1.0228728666666669,-0.3642968088888889,0.83768716,0.1170247395555555
423,1778291906010,0.06343674,-0.11368186,1.0541941,-0.373703,0.79655457,0.14845276
424,1778291906020,0.0476415003,-0.1181965909999999,1.0781515777777777,-0.3596157488888888,0.78495956,0.1642015233333333
425,1778291906030,-0.00437418591,-0.0853096914999999,1.11580475,-0.30350647,0.816906736,0.256259152
426,1778291906040,-0.0142009212222222,-0.0771140011111111,1.1217964222222223,-0.2793748611111111,0.8272755955555556,0.29310438
427,1778291906050,-0.0233525644444444,-0.0742668677777777,1.170540011111111,-0.0907575833333333,0.8821953622222222,0.4531283877777778
428,1778291906060,0.001080507,-0.0951333333333333,1.1764250333333337,0.0078379313333333,0.8956298766666667,0.4930725066666667
429,1778291906070,0.0516139032222222,-0.1447313944444444,1.0810947555555557,0.1445532906666666,0.9759962244444446,0.5231357266666667
430,1778291906080,0.1105675383333333,-0.19918327,0.9560829777777778,0.2047424333333333,1.020263666666667,0.5257364999999999
431,1778291906090,0.14690588,-0.23009662,0.8914072,0.18023682,0.9989624,0.5015869
432,1778291906100,0.1282889224444444,-0.2660820555555555,0.8636935466666666,0.0768415671111111,0.8683471555555555,0.4482082777777777
433,1778291906110,0.101582782,-0.286353172,0.865074048,-0.0506103515,0.66233979,0.391178898
434,1778291906120,0.0416748651111111,-0.2706787,0.9747263555555556,-0.141060725,0.4114668244444444,0.3190121155555555
435,1778291906130,-0.0363834576666666,-0.2448630277777777,1.0933921666666668,-0.1659783277777777,0.1520724846666666,0.2271050377777778
436,1778291906140,-0.068110816,-0.2302194999999999,1.1285095,-0.14201355,0.050872803,0.18360901
437,1778291906150,-0.1584390757777777,-0.2259888988888888,1.113526522222222,0.0029246011111111,-0.1814185237777777,0.1721852611111111
438,1778291906160,-0.19331221,-0.22192127,1.0969031,0.070510864,-0.28096008,0.17774963
439,1778291906170,-0.1911427266666666,-0.2203755155555555,1.0918864888888888,0.0977952737777777,-0.3201989055555556,0.1998833533333333
440,1778291906180,-0.0007993364,-0.13420657,0.9617694,0.165005496,-0.428286746,0.265951534
441,1778291906190,0.06514616,-0.11575681,0.9414393,0.1232452399999999,-0.40187073,0.23527527
442,1778291906200,0.0666642604444444,-0.1138584917777777,0.9265783222222224,0.0580834302111111,-0.4041815822222221,0.1815405933333333
443,1778291906210,0.059409726,-0.11953962,0.9280159,-0.0029907227,-0.42477417,0.13887024
444,1778291906220,0.0224623394444444,-0.1340066955555555,0.9353111911111112,-0.1077440050444444,-0.4611680755555556,0.0932430683333333
445,1778291906230,-0.014662021,-0.14919238,0.9598254666666668,-0.2164052266666666,-0.5023600233333334,0.051162718
446,1778291906240,-0.0426743156666666,-0.1555108888888889,1.005653711111111,-0.2819739355555555,-0.5423651722222221,0.0111473928444444
447,1778291906250,-0.0646935306666666,-0.1585483,1.0369065,-0.3064168266666667,-0.5652109666666667,-0.0129394530666666
448,1778291906260,-0.080801584,-0.1677409,1.0572443,-0.33163452,-0.5872345,-0.032104492
449,1778291906270,-0.0864825406666666,-0.1798077711111111,1.132088688888889,-0.3426412,-0.5939687333333333,-0.0434773763333333
450,1778291906280,-0.0698321584444444,-0.1850689377777777,1.2015229666666667,-0.3079596577777777,-0.5971662888888889,-0.0418158638888888
451,1778291906290,-0.0155567406666666,-0.1886346766666666,1.3083118555555555,-0.1545596655555555,-0.6076372055555556,-0.0181410047777777
452,1778291906300,0.0292417775555555,-0.18136701,1.3214908777777776,-0.0030500611111111,-0.6069251166666666,-0.0077243382888888
453,1778291906310,0.061240472,-0.17384131,1.3197281,0.1120605499999999,-0.6042633,-0.0038757324
454,1778291906320,0.1281662217777777,-0.1991965822222222,1.2375082444444443,0.3399098722222222,-0.5207655,-0.0027652316666666
455,1778291906330,0.1521518499999999,-0.2274129866666666,1.1909880333333334,0.4029371477777778,-0.4228769888888888,-0.0096282958888888
456,1778291906340,0.156691424,-0.2780552619999999,1.14666668,0.36213684,-0.1819000253,-0.0246582029999999
457,1778291906350,0.1647615577777778,-0.2911523388888889,1.1357220444444445,0.2742801233333333,0.1917232886222222,-0.0508728024444444
458,1778291906360,0.17533763,-0.2785421,1.1429081,0.2382965099999999,0.3448944,-0.0624694819999999
459,1778291906370,0.1496840655555555,-0.2595609977777778,1.151694633333333,0.2644568544444444,0.6694420755555556,-0.1422526028888888
460,1778291906380,0.0836388631111111,-0.2517648266666666,1.143423688888889,0.33630371,0.9627431333333334,-0.2057545933333333
461,1778291906390,-0.0909289986666666,-0.2360363,1.0793309333333334,0.49159072,1.0603892222222222,-0.1899498788888889
462,1778291906400,-0.2178118066666666,-0.2713696611111111,1.0021953277777778,0.6127336333333333,0.9369371388888889,-0.0976308166666666
463,1778291906410,-0.28202626,-0.30038503,0.9552281500000002,0.6532135,0.8370361299999999,-0.037979126
464,1778291906420,-0.1445274622222222,-0.3068936666666667,0.9409368777777778,0.6233893444444445,0.2792002377777777,0.1724802666666666
465,1778291906430,-0.0400435593333333,-0.2868403399999999,0.9534788333333332,0.5857510022222222,0.0322926822222222,0.1968672
466,1778291906440,0.0447259313333333,-0.2734988666666667,0.96429892,0.5537974,-0.1531270366666666,0.1497039766666666
467,1778291906450,0.1121673922222222,-0.2601843777777777,0.98656268,0.5268096933333334,-0.2701365133333333,0.0312754316666666
468,1778291906460,0.11896048,-0.2590992099999999,1.0094909666666665,0.5248565666666667,-0.1581064831999999,-0.0875040699999999
469,1778291906470,0.0832057662222222,-0.2749903711111111,1.002996128888889,0.5379926777777777,0.0603993747555555,-0.1550903333333333
470,1778291906480,0.0360084258888888,-0.3251302244444444,0.92656482,0.5356157166666666,0.3184339777777777,-0.1798926422222222
471,1778291906490,0.0008360444999999,-0.38025336,0.800190475,0.325645445,0.586166375,-0.17433167
472,1778291906500,-0.0085196195555555,-0.4150383533333333,0.7799000277777778,0.0799221453333333,0.6919793011111112,-0.1491173644444444
473,1778291906510,-0.0099297048888888,-0.4347664088888889,0.8156682044444444,-0.1458570713333333,0.6798485511111111,-0.12426249
474,1778291906520,-0.013440488,-0.43998662,0.87773967,-0.23202515,0.660202,-0.117874146
475,1778291906530,-0.0745783,-0.436448,1.0173413,-0.28048706,0.5558014,-0.073654175
476,1778291906540,-0.0772897623333333,-0.4155402311111111,1.1430303333333331,-0.09773424,0.4670325466666666,-0.0031110975555555
477,1778291906550,-0.0783471097777777,-0.3840567311111111,1.2670514555555554,0.11668396,0.41075304,0.0587361648888888
478,1778291906560,-0.0765034083333333,-0.3502953988888889,1.2535877555555557,0.3536970355555555,0.4534827222222222,0.0977444099999999
479,1778291906570,-0.074699625,-0.3238145,1.1476678,0.68304443,0.5856323,0.14579773
480,1778291906580,-0.1016677,-0.3069754,1.0521191,0.74749756,0.6426239,0.16496277
481,1778291906590,-0.1016677,-0.3069754,1.0521191,0.74749756,0.6426239,0.16496277
482,1778291906600,-0.1990056066666666,-0.13503691,0.80305866,0.7857818577777778,0.5347968177777778,0.4142964622222222
483,1778291906610,-0.1529064111111111,-0.106943042,0.8092956,0.7547132444444444,0.3440568733333333,0.4569702066666667
484,1778291906620,-0.017061536,-0.080652264,0.8746484999999999,0.7066548533333333,-0.1728363033333333,0.47247823
485,1778291906630,0.055505592,-0.067555524,0.9241102,0.70913696,-0.42530823,0.4280853299999999
486,1778291906640,0.0982836046666666,0.0578233573333333,0.9384832422222222,0.7883266911111111,-0.7224561811111111,0.2630360911111111
487,1778291906650,0.0886299035555555,0.0963439777777777,0.9184841777777776,0.8247867222222223,-0.7828776044444444,0.1950412311111111
488,1778291906660,0.0512753363333333,0.10340772,0.8503246333333333,0.8646749,-0.6262868266666666,0.15023804
489,1778291906670,0.0231403349999999,0.1532219788888889,0.7372301888888889,0.8539598222222222,-0.2317860933333333,0.0862647172222222
490,1778291906680,0.015600983,0.17979705,0.6962829,0.8300476,-0.0940094,0.055252075
491,1778291906690,-0.0410748138888888,0.2563775433333333,0.6367873133333333,0.6811489555555555,-0.0225101048888888,-0.0761430516666666
492,1778291906700,-0.079337925,0.28840354,0.6224559,0.5807732555555556,-0.0631154373333333,-0.1680586044444444
493,1778291906710,-0.0485315527777777,0.3372961422222222,0.6761760455555555,0.401808,-0.2339121466666666,-0.22214423
494,1778291906720,-0.00920660195,0.401962848,0.7256440559999999,0.286711124,-0.310470578,-0.225509642
495,1778291906730,-0.0188507992777777,0.5244871999999999,0.8157223233333333,0.21326701,-0.227884926,-0.1732584633333333
496,1778291906740,-0.0212644845555555,0.5514149977777778,0.8616321088888889,0.1794128442222222,0.0331081815555555,-0.0939568433333333
497,1778291906750,-0.0140517739999999,0.52892154,0.8419865,0.087020874,0.34754944,-0.0438385
498,1778291906760,-0.0786457566666666,0.5865601533333333,0.8379993666666666,0.06713867,0.54391478,-0.0038859052333333
499,1778291906770,-0.1670757,0.61853154,0.8522357166666666,0.0690968816666666,0.4570973666666666,0.0016225178666666
500,1778291906780,-0.18596528,0.63935814,0.8908456900000001,0.061996459,0.1801971408,-0.0144317626
501,1778291906790,-0.1374355544444444,0.6441168444444445,0.9197578944444444,0.0276150157777777,-0.2406650122222222,-0.0277896455555555
502,1778291906800,-0.1146844188888888,0.6230462888888889,0.9256426211111112,-0.0374891493333333,-0.5447353788888889,-0.0294477674444444
503,1778291906810,-0.0462269213333333,0.5827359,0.9428220133333336,-0.2251027383333333,-0.8771514833333334,0.0497385646666666
504,1778291906820,-0.0150280662666666,0.5616654911111111,0.9415069844444446,-0.2971852555555555,-0.9665171222222224,0.08969116
505,1778291906830,-0.0111628169333333,0.4654661533333333,0.9479881333333334,-0.42306518,-0.9607798233333332,0.1830800366666666
506,1778291906840,-0.0369114386666666,0.4072178133333333,0.9887855333333332,-0.4560852066666666,-0.8776855466666666,0.28374227
507,1778291906850,-0.041386936,0.368331,1.0114834,-0.45040894,-0.7875061,0.36151123
508,1778291906860,0.0284412455555555,0.3266796066666666,1.1062455555555557,-0.3881479933333333,-0.6354014222222222,0.4155409055555555
509,1778291906870,0.0926992339999999,0.354092073,1.17490367,-0.302766408,-0.55452271,0.402250666
510,1778291906880,0.16923619,0.3880595566666667,1.2399614,-0.0645955399999999,-0.54283649,0.2512562983333333
511,1778291906890,0.19315355,0.42019373,1.2751868,0.18930054,-0.54248047,0.088272095
512,1778291906900,0.1653852922222222,0.45349381,1.2773560444444445,0.4828389488888888,-0.3687201588888889,-0.0575612383333333
513,1778291906910,0.1577380988888889,0.4690463933333333,1.2190677666666665,0.6616261788888889,-0.1552022277777777,-0.1250898611111111
514,1778291906920,0.1592297522222222,0.5009901566666666,1.0455017,0.85720825,0.3012085,-0.17272949
515,1778291906930,0.1731403333333333,0.500733,0.9402591866666667,0.8671569833333334,0.4305792955555556,-0.1747402611111111
516,1778291906940,0.1811134711111111,0.4900492377777777,0.7960485111111111,0.8332519666666667,0.8066762333333334,-0.17627462
517,1778291906950,0.166161512,0.4921430619999999,0.73084216,0.6911377,0.8876434200000001,-0.180606084
518,1778291906960,0.0936060727777777,0.5002452588888889,0.6395673888888889,0.4379730333333333,0.8171556,-0.1887054433333333
519,1778291906970,0.0480485065555555,0.5056685233333333,0.6073782222222222,0.2729780466666666,0.7302754444444445,-0.1872880677777778
520,1778291906980,-0.0254406473333333,0.5193634233333333,0.6259939999999999,0.0591481533333333,0.5187021733333332,-0.15390523
521,1778291906990,-0.0998653075555555,0.5363385622222222,0.6782495777777777,-0.1330803811111111,0.2804989288888889,-0.1097056066666666
522,1778291907000,-0.11472556,0.5380737,0.7058022,-0.18515015,0.195755,-0.0912323
523,1778291907010,-0.1212607911111111,0.5579507555555555,0.7939606111111112,-0.2749905077777778,0.0151858833333333,-0.0383843315555555
524,1778291907020,-0.1271183755555555,0.5827225777777777,0.8875426388888888,-0.3669637088888888,-0.1745503755555555,0.03755188
525,1778291907030,-0.1509275444444444,0.5864645955555555,0.9109729855555556,-0.38423666,-0.1882832822222222,0.1606462266666666
526,1778291907040,-0.152090766,0.5831261879999999,0.8954345459999999,-0.4071594239999999,-0.162608336,0.273623658
527,1778291907050,-0.1044742249999999,0.5774074733333333,0.8744048133333333,-0.4786376933333333,-0.0854848248666666,0.3632812533333333
528,1778291907060,-0.0074481007777777,0.5803901177777777,0.8649685222222222,-0.5898946,0.0474395763333333,0.4113362622222222
529,1778291907070,0.040007267,0.58615214,0.8627313,-0.6304321,0.10839844,0.40571594
530,1778291907080,0.1758657911111111,0.5184545111111111,0.8335930211111111,-0.7642466222222223,0.2906816266666666,0.2357482933333333
531,1778291907090,0.2449344133333333,0.4574126333333333,0.80362797,-0.9409027222222224,0.3609280055555555,0.0100250244444444
532,1778291907100,0.3016371666666667,0.3890363533333333,0.7835333333333333,-1.0959523555555557,0.3367173955555556,-0.1814880333333333
533,1778291907110,0.31579158,0.34893006,0.79378366,-1.2870636000000002,0.193829348,-0.4111328159999999
534,1778291907120,0.29748743,0.3371881044444444,0.8066916688888889,-1.3679453555555554,0.1043633377777777,-0.4928402377777778
535,1778291907130,0.0841824031555555,0.2064813577777777,1.0524312333333334,-1.7594994444444445,-0.4268459688888889,-0.8791792066666667
536,1778291907140,-0.0171424159333333,0.1525852966666666,1.2886111333333334,-1.7041049444444445,-0.4344211111111111,-0.8772871333333333
537,1778291907150,-0.0981702275555555,0.1131967466666666,1.519624088888889,-1.2276916666666666,-0.0908694777777777,-0.6967756666666668
538,1778291907160,-0.1246913822222222,0.0907978293333333,1.6055316444444443,-0.5663977833333333,0.3676079488888889,-0.4427083388888889
539,1778291907170,-0.1122850849999999,0.086323366,1.5980742,-0.30552673,0.5387573,-0.34210205
540,1778291907180,-0.1012772919999999,0.110875554,1.35975344,0.311798095,0.87858582,-0.143699645
541,1778291907190,-0.1191315777777777,0.1253999722222222,1.2661166888888888,0.53828091,0.9684872088888888,-0.0646023202222222
542,1778291907200,-0.1733128088888889,0.1702660611111111,1.1092547666666668,0.7450103788888889,0.8373396222222222,0.0340525306666666
543,1778291907210,-0.2363206011111111,0.2118774933333333,0.9726099222222222,0.8290422333333334,0.5720248833333333,0.1331837951111111
544,1778291907220,-0.26164857,0.2269002,0.9310661,0.8167267,0.4482116699999999,0.17082214
545,1778291907230,-0.26209549,0.2501264333333333,0.8850211333333333,0.6835734,0.0524648033333333,0.2814381933333333
546,1778291907240,-0.2467599699999999,0.26485118,0.8529678,0.5573425,-0.27456665,0.37216187
547,1778291907250,-0.1821530222222222,0.2924569966666667,0.8696997722222223,0.5040791666666666,-0.3595547166666666,0.3974914566666666
548,1778291907260,-0.0736153148888889,0.3372826499999999,0.9046812777777776,0.3494398311111111,-0.5053202444444445,0.4393327466666666
549,1778291907270,0.0017038901111111,0.3723317222222222,0.9304427,0.2446882422222222,-0.4952579111111111,0.4266086133333333
550,1778291907280,0.0363462993333333,0.39306287,0.9340364533333332,0.2551625533333334,-0.3755950833333333,0.3794403066666666
551,1778291907290,0.06343674,0.40664905,0.92679644,0.26759338,-0.23143005,0.32582092
552,1778291907300,0.062057849,0.40506251,0.891969066,0.253048707,0.060137938,0.198200991
553,1778291907310,0.0468817566666666,0.4072997333333333,0.85882612,0.2156863733333333,0.2748158722222222,0.09790887
554,1778291907320,0.0309368517777777,0.4201534777777778,0.8436132777777777,0.1331837951111111,0.4090949,0.0334608311111111
555,1778291907330,0.0170252410999999,0.4387428,0.8408069133333334,0.0113881426666666,0.5259806133333333,-0.0408121733333333
556,1778291907340,0.0054735653,0.4470405,0.84820974,-0.0599823,0.53131104,-0.07632446
557,1778291907350,-0.0005193414333333,0.4491016222222222,0.8509756422222223,-0.0829450822222222,0.5174611466666666,-0.0812360951111111
558,1778291907360,-0.021494515,0.45631555,0.8606563,-0.18621826,0.4492798,-0.101364136
559,1778291907370,-0.0596772616666666,0.4756229544444444,0.9599060466666668,-0.3358289977777777,0.2229682044444444,-0.0895165351111111
560,1778291907380,-0.0908691175,0.48316153,1.0383909,-0.37104034,0.064720155,-0.0566101074999999
561,1778291907390,-0.1098717438888888,0.48558826,1.0694062000000002,-0.3504435133333333,0.0036468502222222,-0.0231102838888888
562,1778291907400,-0.1380468388888888,0.4853841533333333,1.1411999333333334,-0.2543351877777777,-0.0993330217777777,0.08400811
563,1778291907410,-0.1327452333333333,0.48596726,1.1769944,-0.1837361633333333,-0.13395691,0.1452585866666666
564,1778291907420,-0.10679372,0.4935875,1.216640311111111,-0.0112745499999999,-0.1568044011111111,0.2315453444444444
565,1778291907430,-0.0622530604444444,0.5146169444444444,1.2414662,0.21077474,-0.16946411,0.30878194
566,1778291907440,-0.028694611,0.530141,1.2461437,0.36132812,-0.17230225,0.34074402
567,1778291907450,0.0606440477777777,0.5570282111111111,1.1996243666666666,0.5646769066666667,-0.1908908455555555,0.3001386822222222
568,1778291907460,0.128356118,0.5831510599999999,1.1436408,0.71957548,-0.2116180449999999,0.249597165
569,1778291907470,0.1475016233333333,0.6023560933333334,1.1030194222222225,0.7890421533333334,-0.24314372,0.1452636693333333
570,1778291907480,0.1277327688888888,0.6180433322222222,1.0279575555555556,0.8135375966666667,-0.2610778866666667,0.0115712486666666
571,1778291907490,0.0885336356666666,0.6156840733333334,0.9913483766666668,0.78796387,-0.2436828599999999,-0.05128479
572,1778291907500,0.056236647,0.6142199,0.96816313,0.7092590233333333,-0.1837938088888888,-0.11922709
573,1778291907510,0.010475835,0.6145854,0.9510798,0.5988922,-0.09667969,-0.19403076
574,1778291907520,-0.0340235213333333,0.6113311222222222,0.9754446222222222,0.5120120444444445,0.0349460184444444,-0.2463514533333333
575,1778291907530,-0.047731545,0.6087277,0.9858577,0.47691345,0.12011719,-0.27020264
576,1778291907540,-0.025156002,0.59457326,0.9533974,0.47958374,0.21864319,-0.28778076
577,1778291907550,0.0013418937142857,0.5574417171428572,0.8901169,0.4285975828571428,0.1406598757142857,-0.2961512885714286
578,1778291907560,0.0070598466666666,0.5362434666666668,0.8652723666666667,0.39275614,0.0902023292666666,-0.2967478333333333
579,1778291907570,-0.0581384942857142,0.4872577714285714,0.95529815,0.2306823757142857,-0.1035243426857143,-0.2430332714285714
580,1778291907580,-0.0916091685714285,0.4827954485714286,1.0416597214285714,0.2130344957142857,-0.1458347842857143,-0.2072666714285714
581,1778291907590,-0.1492053344444444,0.4947265922222221,1.2036377555555555,0.3226352244444444,-0.1167975511111111,-0.13034736
582,1778291907600,-0.1425342588888888,0.4853575355555555,1.1861745555555556,0.5265096022222222,0.0225830099999999,-0.0557827422222222
583,1778291907610,-0.1149282783333333,0.4668499733333334,1.1222452333333337,0.6571248366666667,0.1265055366666666,-0.0124053956666666
584,1778291907620,-0.045494485,0.4539141333333333,0.9693433611111112,0.7635362388888889,0.1778767944444444,0.0132802325555555
585,1778291907630,-0.005834944,0.4509855933333334,0.8756657333333333,0.8050232,0.1572265666666666,0.0167134603333333
586,1778291907640,0.010721075,0.3963168333333333,0.761609,0.6917453444444445,0.0738898398222222,0.0084262426044444
587,1778291907650,0.0228018565,0.29834819,0.5735228,0.412200925,-0.0580596922,-0.005744933945
588,1778291907660,0.020483484,0.29279608,0.5466768,0.2729187,-0.111587524,-0.01133728
589,1778291907670,-0.0417248102222222,0.29729784,0.6695732177777778,-0.0941314711111111,-0.2688903782222222,-0.0404544406666666
590,1778291907680,-0.0588630788888888,0.2907892233333333,0.7552232555555556,-0.2855801077777778,-0.3658905022222222,-0.0534735782222222
591,1778291907690,-0.0230675753333333,0.2792377222222222,0.7961027755555556,-0.4027082644444444,-0.4675631999999999,-0.1070370155555555
592,1778291907700,0.0166187543333333,0.2810411566666666,0.8371045,-0.4910685233333334,-0.6064046233333333,-0.1935017933333333
593,1778291907710,0.034028187,0.30024037,0.87883776,-0.51272583,-0.70654297,-0.25634766
594,1778291907720,0.031804783,0.2649877166666667,0.8641138522222223,-0.4398091655555555,-0.7620510633333333,-0.3006778288888889
595,1778291907730,0.0028697723333333,0.21962026,0.8231118066666667,-0.4196896011111111,-0.7688581777777778,-0.3077155244444445
596,1778291907740,-0.1148069586666666,0.1409110844444444,0.7865707666666667,-0.5282253611111112,-0.6185387388888889,-0.1955091688888889
597,1778291907750,-0.1809460033333333,0.0981192483333333,0.8004554233333333,-0.6556447333333333,-0.3976135233333333,-0.0592753109999999
598,1778291907760,-0.19965681,0.075340465,0.83722687,-0.7646637,-0.16644287,0.062164307
599,1778291907770,-0.1154299999999999,0.0722902611111111,0.9938295088888888,-0.9041476666666666,0.2884250222222222,0.2278238933333333
600,1778291907780,-0.0742117366666666,0.0805884926666666,1.0755480999999998,-0.90722656,0.4041798933333334,0.27078756
601,1778291907790,0.0051887494444444,0.0860392444444444,1.153958911111111,-0.7321624711111111,0.3867899555555555,0.26018609
602,1778291907800,0.0788405275555555,0.0895780233333333,1.1301090111111112,-0.49165005,0.2500796844444444,0.20585463
603,1778291907810,0.10443948,0.09266953,1.0906799,-0.39128113,0.16911316,0.17507935
604,1778291907820,0.1786726555555555,0.0506101288888888,0.9391335888888888,-0.1993001311111111,-0.1179775653333333,-0.0437028675555555
605,1778291907830,0.1665515166666666,0.0244965003333333,0.8971830600000001,-0.1545579711111111,-0.2153896755555555,-0.13674418
606,1778291907840,0.0958294744444444,-0.0015365936666666,0.8532531666666666,-0.1515960666666666,-0.3303171866666667,-0.2259928333333333
607,1778291907850,0.04098408,-0.019231362,0.8278305,-0.1771698,-0.4300995,-0.2835083
608,1778291907860,-0.0471619071111111,-0.0132659343333333,0.9026605777777778,-0.2062869566666666,-0.5164438800000001,-0.2765876
609,1778291907870,-0.1023731766666666,-0.0140253305555555,0.9799455333333332,-0.2077043277777777,-0.6088833111111112,-0.2419145444444444
610,1778291907880,-0.086438934,-0.023722205,1.0023802,-0.17039642,-0.60597686,-0.215879824
611,1778291907890,-0.0418741322222222,-0.0430683566666666,0.9527740333333332,-0.1335449222222222,-0.5637885222222222,-0.2321421288888889
612,1778291907900,-0.013074962,-0.0442888513333333,0.9083282333333336,-0.14130147,-0.5265096,-0.2577718066666666
613,1778291907910,0.0289439972222222,-0.0443699084444444,0.8780111333333332,-0.1741485577777778,-0.4763844777777778,-0.2921617222222222
614,1778291907920,0.0443469216666666,-0.0494682697777777,0.8628252844444444,-0.1916656511111111,-0.4349551755555556,-0.3137003533333333
615,1778291907930,0.04793997,-0.049739607,0.84601194,-0.20379639,-0.39707947,-0.33145142
616,1778291907940,0.0024097095555555,-0.0424582833333333,0.8470568288888889,-0.3399709044444445,-0.2575327566666667,-0.2961849622222222
617,1778291907950,-0.017346178,-0.0359906226666666,0.8777805766666666,-0.4019368466666667,-0.1895345066666666,-0.2533365866666666
618,1778291907960,-0.0359764522222222,-0.0266887942222222,0.956800361111111,-0.4276784266666666,-0.118871055,-0.18977864
619,1778291907970,-0.06249726,-0.021590952,1.0266956,-0.3980306,-0.00239563,-0.1049092593333333
620,1778291907980,-0.06469353,-0.037291482,1.036865,-0.35079956,0.06578064,-0.058746338
621,1778291907990,-0.0460636013333333,-0.043392924,0.9979781733333332,-0.3348286933333333,0.16875712,-0.031402588
622,1778291908000,-0.037774289,-0.0304821126,0.941048065,-0.375892639,0.344244384,0.0134292601
623,1778291908010,0.0515186768888888,0.0027071431111111,0.9044101,-0.4535403755555555,0.4371507466666667,0.0477244062222222
624,1778291908020,0.0993957388888888,0.0126185287222222,0.8988103944444445,-0.4731869133333333,0.3381992,0.0202653675555555
625,1778291908030,0.08393889,0.0062730573,0.8989728700000001,-0.4743652299999999,0.261261,-0.010803223
626,1778291908040,0.0059339726666666,-0.0112184669333333,0.9043826388888888,-0.5012410555555555,0.1081051277777777,-0.0008036294444444
627,1778291908050,-0.0221058003333333,-0.0270417046666666,0.92992749,-0.5082228044444445,0.0323571097777777,0.0268893774444444
628,1778291908060,-0.0350673885555555,-0.0506614611111111,0.9803660055555556,-0.4823693166666667,-0.0568983305555555,0.1153140577777777
629,1778291908070,-0.0248851853333333,-0.0913102588888888,0.9999171,-0.4341345888888889,-0.0782097711111111,0.2268727666666666
630,1778291908080,0.0016902357777777,-0.1304267866666666,1.0006637111111112,-0.3875579822222222,-0.1081542977777777,0.2999572833333333
631,1778291908090,0.0413770833333333,-0.1300875333333333,0.9795392,-0.3626369911111111,-0.0994533966666666,0.3412662088888888
632,1778291908100,0.062582806,-0.12612844,0.9612072,-0.3614502,-0.07696533,0.35404968
633,1778291908110,0.0667043588888888,-0.1182648622222222,0.9678782888888888,-0.3850657188888889,-0.0019209111111111,0.3468882233333333
634,1778291908120,0.06410126,-0.1295865055555555,0.9853824388888888,-0.45614285,0.1813642666666666,0.3377143033333333
635,1778291908130,0.05440746,-0.1560254,0.99683905,-0.5425415,0.3731079,0.32528687
636,1778291908140,0.0045645026666666,-0.1266851044444444,1.046248605555555,-0.4893527577777777,0.4709421766666666,0.29924859
637,1778291908150,-0.0457525168888888,-0.1164071516666666,1.0559702222222225,-0.4584045399999999,0.52279663,0.30665588
638,1778291908160,-0.1019124283333333,-0.1233633899999999,1.0579359,-0.3887939466666666,0.5165761333333333,0.3782043466666667
639,1778291908170,-0.0930853506666666,-0.1339387733333333,1.0271036333333334,-0.3337605822222222,0.4610612688888889,0.4409383133333333
640,1778291908180,-0.0425656082222222,-0.13621592,1.0109412777777778,-0.32393392,0.44448853,0.4698791488888889
641,1778291908190,0.026730722,-0.1417963,0.99742578,-0.337384028,0.394635014,0.490301508
642,1778291908200,0.09650678,-0.15102157,0.9953754,-0.34761047,0.31985474,0.48614502
643,1778291908210,0.1284508633333333,-0.1528529966666666,1.006981688888889,-0.3864322177777778,0.2464701355555555,0.3599124466666666
644,1778291908220,0.0937944526666666,-0.1609879044444444,1.0239844666666666,-0.4105750155555555,0.2036234555555555,0.2707875533333333
645,1778291908230,0.036577021,-0.1731228711111111,1.041136577777778,-0.4277326822222222,0.2110154888888888,0.1843804255555555
646,1778291908240,0.0104906981111111,-0.1868445511111111,1.0697724444444443,-0.4331783711111111,0.2275899244444444,0.1159667988888888
647,1778291908250,0.0066945795,-0.19470899,1.0982455,-0.42962646,0.2367706299999999,0.08934021
648,1778291908260,-0.0214952923999999,-0.1873261249999999,1.16298175,-0.329765325,0.29428864,-0.0004119869999999
649,1778291908270,-0.0398264908888888,-0.1806207455555555,1.1815913222222223,-0.2707333066666667,0.3155890666666667,-0.0302140973333333
650,1778291908280,-0.055012522,-0.1899493666666666,1.1610901,-0.0935414633333333,0.34222412,-0.0871531166666666
651,1778291908290,-0.0586330493333333,-0.1960103633333333,1.1351792,-0.0280253093333333,0.3363647466666666,-0.1072133383333333
652,1778291908300,-0.056762382,-0.19519739,1.1243596,-0.008850098,0.32357788,-0.113601685
653,1778291908310,-0.0394742726666666,-0.1736114466666666,1.0788701333333333,-0.0191480848888888,0.1964586055555555,-0.1357337083333333
654,1778291908320,-0.05826683,-0.1658558944444444,1.121769988888889,-0.0524681938888888,0.0324045817555555,-0.1398179777777778
655,1778291908330,-0.0531822966666666,-0.1781265222222222,1.1710556,-0.0086754688888888,0.0060662163666666,-0.1146664083333333
656,1778291908340,-0.03833518,-0.192756915,1.1959297000000002,0.063056945,0.01305389365,-0.1010818475
657,1778291908350,-0.03455237,-0.19702813,1.1976998,0.10140991,0.01838684,-0.10028076
658,1778291908360,-0.0539548273333333,-0.1785468344444444,1.136914988888889,0.20243327,0.1012403688888888,-0.1062113422222222
659,1778291908370,-0.0686118361111111,-0.1760109611111111,1.0994924777777777,0.2453969355555555,0.1398891844444444,-0.1050313288888889
660,1778291908380,-0.0884083383333333,-0.1761464544444444,1.0618811666666668,0.2578209777777778,0.1214124877777777,-0.0801662888888889
661,1778291908390,-0.1093568971111111,-0.1666023233333333,1.0246898999999998,0.2512478277777778,0.0526445177777777,-0.0385013155555555
662,1778291908400,-0.1003253696,-0.14487294,1.0223198400000002,0.24095917,-0.067108155,-0.0046768184999999
663,1778291908410,-0.0853970233333333,-0.1371389888888888,1.034384277777778,0.2187127,-0.2300042077777778,0.0339474146666666
664,1778291908420,-0.0765568097777777,-0.14004039,1.0446613555555555,0.20687866,-0.28042603,0.04460144
665,1778291908430,-0.0605723272222222,-0.1211391222222222,1.060105422222222,0.1715410011111111,-0.3397861055555555,0.0445353186666666
666,1778291908440,-0.05647722,-0.10469198,1.0627764666666666,0.1532491033333333,-0.3523305266666667,0.0415751136666666
667,1778291908450,-0.0610864833333333,-0.0992956688888889,1.0487025555555556,0.1083916588888888,-0.315163511111111,0.0484381778888888
668,1778291908460,-0.0610866563333333,-0.10280732,1.0355776222222224,0.0528242344444444,-0.2695939866666667,0.057907104
669,1778291908470,-0.036138907,-0.12710524,1.0477266,-0.02482605,-0.2340850799999999,0.057907104
670,1778291908480,-0.0344576585555555,-0.1225495533333333,1.102557311111111,-0.1112382677777777,-0.1964467333333333,0.067611696
671,1778291908490,-0.0204782996666666,-0.1267391933333333,1.1698767666666667,-0.1498820011111111,-0.1843176922222222,0.0676744268888888
672,1778291908500,-0.0027266722,-0.155147812,1.2607156199999998,-0.0731964111999999,-0.184127808,0.0305236814
673,1778291908510,0.011982012,-0.18755037,1.3146034333333334,0.093414308,-0.1778106666666666,-0.023590088
674,1778291908520,0.01767593,-0.20520349,1.3050853,0.22018433,-0.16325378,-0.057678223
675,1778291908530,0.0228292495555555,-0.2176773588888889,1.2156237333333333,0.3561876077777778,-0.0716400133333333,-0.1112942165555555
676,1778291908540,0.0223551879999999,-0.2229789566666666,1.1150042333333332,0.4527740455555555,0.0154181588888888,-0.1555006244444444
677,1778291908550,-0.0062822182222222,-0.1872245966666667,0.9899651166666666,0.4508209233333333,0.1277516699999999,-0.1933288533333333
678,1778291908560,-0.024180748,-0.16298129,0.92032737,0.41566467,0.2463531499999999,-0.2206726
679,1778291908570,-0.022836853,-0.1605408,0.8987285999999999,0.374115,0.29960632,-0.23451233
680,1778291908580,-0.0657102642222222,-0.1799159611111111,0.8406294333333333,0.0251803933333333,0.4806467666666666,-0.2905561633333333
681,1778291908590,-0.080190818,-0.18323767,0.8635027666666667,-0.09294298,0.5083431666666667,-0.2754058833333333
682,1778291908600,-0.0816282095555555,-0.2102745388888888,0.9089253444444444,-0.2119021955555555,0.4707641666666667,-0.2348683666666667
683,1778291908610,-0.1087109257142857,-0.23684364,0.9764266514285714,-0.2776031485714286,0.3703787714285714,-0.1779022171428571
684,1778291908620,-0.1720173775,-0.24467956875,1.0826718625,-0.276496885,0.23703003,-0.086975095
685,1778291908630,-0.1895989457142857,-0.2497439442857142,1.1603931857142855,-0.1874389642857143,0.1222447,0.0377393471428571
686,1778291908640,-0.1866281633333333,-0.2534453788888888,1.1987835777777778,-0.1220126681511111,0.0644819472666666,0.1070268444444444
687,1778291908650,-0.1414494357142857,-0.2295046671428571,1.1931662,0.1226327085599999,-0.0180685862571428,0.2415880457142857
688,1778291908660,-0.0977630533333333,-0.21516914,1.1639785666666669,0.2688344333333333,-0.024765015,0.2929738366666666
689,1778291908670,-0.0543208716666666,-0.2114134555555555,1.0937991666666669,0.4286244711111111,-0.0132836236666666,0.3080122166666666
690,1778291908680,-0.0716893453333333,-0.2104504699999999,1.0329608666666663,0.5102895066666666,-0.0277862546666666,0.31179809
691,1778291908690,-0.10056957,-0.20581321,0.9668208,0.5440216,-0.0561981199999999,0.32528687
692,1778291908700,-0.1035795033333333,-0.2140027344444444,0.9556756133333332,0.5430755555555555,-0.0674421522222222,0.3268263122222222
693,1778291908710,-0.1095316211111111,-0.2420966088888888,0.9173724088888888,0.5248514777777777,-0.1460927327777778,0.3319769999999999
694,1778291908720,-0.0548507516666666,-0.22277572,0.9418861533333334,0.4609375,-0.3086649566666666,0.3034515366666667
695,1778291908730,-0.0100250706,-0.185483716,0.990323996,0.4502807599999999,-0.3514892579999999,0.224197386
696,1778291908740,0.000659503,-0.1702482611111111,1.0074972222222225,0.4719390833333333,-0.3354136166666667,0.1876305488888889
697,1778291908750,-0.0329668627777777,-0.1230640539999999,0.9991995111111112,0.5048505988888888,-0.2279374877777778,0.1999393044444444
698,1778291908760,-0.0558669686666666,-0.098671946,0.9580351666666668,0.518514,-0.1312374555555555,0.2431437222222222
699,1778291908770,-0.0686934077777777,-0.1102516166666666,0.9117451555555556,0.4977484888888889,-0.1340230333333333,0.2815534866666667
700,1778291908780,-0.067215922,-0.1419119166666666,0.9060101166666666,0.45721436,-0.1877594,0.3089548733333333
701,1778291908790,-0.061276246,-0.16957165,0.91325015,0.41992188,-0.2431488,0.33061218
702,1778291908800,0.0181513735555555,-0.1714150077777777,0.953844861111111,0.3808661555555555,-0.3705681666666666,0.2977684888888889
703,1778291908810,0.105049215,-0.15260811,0.9882982,0.37731934,-0.4434204,0.23739624
704,1778291908820,0.136422591,-0.099306405,0.99327667,0.424290469,-0.468661497,0.1282608021
705,1778291908830,0.1629581277777777,0.0030317097777777,0.9958776555555556,0.526028108888889,-0.4959632044444444,-0.0606435137777777
706,1778291908840,0.15337183,0.04849526,0.9980601,0.6633301,-0.4945526,-0.19935608
707,1778291908850,0.1247359779999999,0.0662301211111111,0.9987790444444444,0.8581610777777777,-0.48709276,-0.2951134622222222
708,1778291908860,0.0811178574444444,0.0878559811111111,0.9884338555555556,1.026062,-0.4812317,-0.37139893
709,1778291908870,0.0488754763333333,0.08953758,0.9411131444444444,1.207216088888889,-0.4506920644444444,-0.4154273177777777
710,1778291908880,0.0066329849599999,0.0733887015,0.865110312,1.33312075,-0.383868406,-0.42934571
711,1778291908890,-0.0048996108,0.07424232,0.80403394,1.361084,-0.32943726,-0.4241333
712,1778291908900,-0.0133737777843333,0.1150546166666666,0.7930522277777778,1.3068186555555554,-0.1866929811111111,-0.3995107011111111
713,1778291908910,0.0027761006365555,0.1568832966666666,0.82038621,1.273618911111111,-0.0648973277777777,-0.3841874888888889
714,1778291908920,0.0020300118888888,0.2087865044444444,0.8449277888888889,1.3058675333333332,0.20302836,-0.3630574666666666
715,1778291908930,-0.0160584535,0.2465748622222222,0.8492667666666667,1.3579542222222225,0.4740821,-0.3142835933333333
716,1778291908940,-0.0490609211111111,0.2724987311111111,0.7649314111111111,1.4250047,1.0481991222222222,-0.1586998811111111
717,1778291908950,-0.0592569508888888,0.2724444666666666,0.6652199222222221,1.4275478444444447,1.6062842444444445,-0.0059526222222222
718,1778291908960,-0.050904624,0.25972605,0.5244668,1.3152771,1.9086913999999997,0.07815552
719,1778291908970,-0.0315749589,0.2646685949999999,0.478376861,1.14520876,1.97878574,0.107876587
720,1778291908980,0.013527593,0.2762012,0.37083367,0.6692047,2.0104218,0.14633179
721,1778291908990,0.0427731717777777,0.3106260055555555,0.4189124111111111,0.5400068416666666,1.922775288888889,0.1072099488888888
722,1778291909000,0.046474755,0.3425839,0.47809625,0.43536377,1.9305267,0.09838867
723,1778291909010,-0.0430130538888888,0.42133302,0.5950274055555556,-0.1744452699999999,0.7933061311111111,-0.2188313922222222
724,1778291909020,-0.1308463988888889,0.4541856344444445,0.7262075311111111,-0.3258277044444444,0.0183817522222222,-0.3341776611111111
725,1778291909030,-0.19221252,0.4542406,0.75351506,-0.37583923,-0.44554138,-0.36128235
726,1778291909040,-0.1861121133333333,0.4450200044444444,0.7764290066666667,-0.4831898922222222,-0.8269093977777778,-0.3490888788888889
727,1778291909050,-0.14352438,0.42849198,0.8240477,-0.6623993,-1.1997528,-0.3271942
728,1778291909060,-0.11704315,0.43520367,0.86358523,-0.7401581,-1.2950897,-0.30429077
729,1778291909070,-0.1155383528888888,0.4709853444444445,1.091819288888889,-0.7121666844444444,-1.349421188888889,-0.0210469548888888
730,1778291909080,-0.1000002793333333,0.4644499333333333,1.1849271,-0.5890706366666667,-1.2125346,0.163726806
731,1778291909090,-0.0542123366666666,0.4654125666666667,1.2064043333333334,-0.4215867766666667,-0.8576897511111111,0.3260023277777777
732,1778291909100,-0.0310946423333333,0.4823068,1.1891169,-0.2618560766666666,-0.4354298933333334,0.4380289666666667
733,1778291909110,-0.030525355,0.502319,1.1558431,-0.17024231,-0.1797638,0.4685669
734,1778291909120,-0.055378049,0.5039869666666666,1.0506953666666667,-0.1340179466666666,0.0228220623333333,0.4751383466666666
735,1778291909130,-0.0410319867,0.51088524,0.9788166,-0.2186019899999999,-0.0356307995,0.431181338
736,1778291909140,-0.0402205337777777,0.5245553,0.9281513777777778,-0.4030049577777778,-0.24290636,0.3641696466666666
737,1778291909150,-0.0221056268,0.5342093444444445,0.9355275688888888,-0.5695987222222222,-0.4087931288888888,0.3413848866666666
738,1778291909160,0.0016907547,0.5380737,0.94766253,-0.66026306,-0.49188232,0.3316803
739,1778291909170,0.0625427145222222,0.5252742466666667,1.0284724144444446,-0.899832851111111,-0.4646674311111111,0.3061133533333333
740,1778291909180,0.085402556,0.5268466,1.0755486,-1.0097300555555553,-0.3839484333333333,0.2883555133333333
741,1778291909190,0.0614232339999999,0.52916574,1.1599308499999998,-0.95986937,-0.1571273799999999,0.2762908899999999
742,1778291909200,0.0149100254444444,0.5221153066666667,1.176574122222222,-0.8496449777777778,0.0677947977777777,0.2966562888888889
743,1778291909210,-0.0165867820444444,0.5133563488888888,1.121647611111111,-0.7120446222222223,0.2743394644444444,0.3670756
744,1778291909220,-0.0366810626666666,0.5226576822222222,1.0694872111111111,-0.6394907833333333,0.3711598733333333,0.42186991
745,1778291909230,-0.043948732,0.53209466,1.0556577,-0.61180115,0.39814758,0.45524597
746,1778291909240,-0.0894523822222222,0.5543853799999999,1.036729522222222,-0.5713195933333334,0.4551968022222222,0.5973426
747,1778291909250,-0.0983727793333333,0.5783843000000001,1.1013775666666668,-0.4634908066666667,0.445499,0.7487301355555556
748,1778291909260,-0.0593514855555555,0.60989458,1.1261905,-0.1607649033333333,0.3973236077777777,0.8154924333333333
749,1778291909270,0.0024086722222222,0.6115214099999999,1.1041303444444446,0.2008395733333333,0.3251156277777778,0.8378092444444445
750,1778291909280,0.049464915,0.591790904,1.0555228900000002,0.33843994,0.277771,0.8312988000000001
751,1778291909290,0.1280168933333333,0.5509133266666667,0.9331411777777778,0.4356723333333333,0.2649875222222222,0.6978980277777778
752,1778291909300,0.1667951933333333,0.5190777733333334,0.8518702166666666,0.3819325733333333,0.2822113,0.55858359
753,1778291909310,0.1881101488888888,0.4762860888888888,0.8006722788888889,0.1918385831111111,0.2758229555555556,0.3177151166666666
754,1778291909320,0.1894521466666666,0.4454938766666667,0.7998041933333334,-0.0159505219999999,0.2300160733333333,0.061457318
755,1778291909330,0.18156092,0.43068823,0.8308807,-0.15692139,0.17390442,-0.117874146
756,1778291909340,0.1559486544444444,0.4090753288888888,0.9457232555555556,-0.2740427666666666,0.0704549148888888,-0.3878546824444445
757,1778291909350,0.13921739,0.3909065,1.0400381,-0.31724548,-0.013580322,-0.59191895
758,1778291909360,0.1323964733333333,0.3987718111111111,1.145281088888889,-0.1760999964444444,-0.0788031683333333,-0.7985093666666666
759,1778291909370,0.1100791344444444,0.4063915222222222,1.1975230555555556,0.0066596145555555,-0.092063056,-0.9262186622222222
760,1778291909380,0.07088104,0.4093337,1.2050213,0.2175293,-0.053527832,-0.97966003
761,1778291909390,0.0671117096666666,0.4084659444444444,1.2028383222222223,0.2175293,-0.053527832,-0.97966003
762,1778291909400,0.045255296,0.4011568,1.190621,0.33044434,-0.011993408,-0.979126
763,1778291909410,-0.0828347066666666,0.3937813,1.053745211111111,0.6511976388888888,0.11017524,-0.8330213733333333
764,1778291909420,-0.11858116,0.393152564,1.003404528,0.696466062,0.11798096,-0.759161376
765,1778291909430,-0.1331512,0.3943238,0.98451537,0.70222473,0.1179809599999999,-0.72080994
766,1778291909440,-0.1618012311111111,0.4213330055555555,0.92374499,0.6667683811111111,0.12194824,-0.6107872722222223
767,1778291909450,-0.18025436,0.4448442499999999,0.88640493,0.6233978,0.1174468999999999,-0.53544617
768,1778291909460,-0.1992365044444444,0.4802057833333333,0.8655782344444445,0.5094095777777778,0.0995127377777777,-0.3644765233333333
769,1778291909470,-0.2167001966666666,0.5102926666666667,0.8490227466666667,0.4192148833333333,0.08246867,-0.22492981
770,1778291909480,-0.2024638433333333,0.5165968333333333,0.8541069266666667,0.34464518,0.0061289466666666,-0.0923004153333333
771,1778291909490,-0.16276404,0.5221279766666667,0.8762345166666666,0.2422027566666666,-0.15809631,0.1092122393333333
772,1778291909500,-0.15169974,0.52391773,0.89104015,0.22764587,-0.2223663299999999,0.16921997
773,1778291909510,-0.1138439755555555,0.5124746055555556,0.8849124211111111,0.1909501811111111,-0.28605313,0.2691277388888888
774,1778291909520,-0.0696603386,0.506931771,0.8718702110000001,0.0990600579999999,-0.287039184,0.321459956
775,1778291909530,-0.0256167558888888,0.5265752555555555,0.88491293,-0.0593329522222222,-0.2358059333333333,0.3125118666666667
776,1778291909540,-0.017915985,0.5452326777777778,0.9255619311111112,-0.1650899233333333,-0.1798163511111111,0.2828589555555555
777,1778291909550,-0.0180789601111111,0.5529614444444444,0.9510114177777778,-0.2085876455555555,-0.1462622738888889,0.2661675322222222
778,1778291909560,-0.0200712946666666,0.5713054999999999,1.0159164733333332,-0.2622070333333333,-0.0309804279999999,0.2221374533333333
779,1778291909570,-0.03186769,0.5884713,1.0491903,-0.2756958,0.064193726,0.18521118
780,1778291909580,-0.0547550077777777,0.6108161222222223,1.0868695333333334,-0.2410820866666666,0.2055714933333333,0.1662716355555555
781,1778291909590,-0.0606806866666666,0.6246736277777778,1.1279527777777778,-0.1578114844444444,0.3145802833333333,0.1504126633333333
782,1778291909600,-0.058348924,0.62630093,1.144983,-0.11164856,0.34062195,0.14472961
783,1778291909610,-0.051439110625,0.6262083875,1.1610443125,0.09302139125,0.3253803249999999,0.12136649875
784,1778291909620,-0.050310060625,0.6244695875,1.160587175,0.2387008625,0.28682327375,0.1039867424999999
785,1778291909630,-0.0552975111111111,0.6206597022222222,1.1248205333333334,0.393180001111111,0.2130279511111111,0.07359314
786,1778291909640,-0.078116907,0.62361628,1.03021475,0.54935455,0.1155853275,0.012901306055
787,1778291909650,-0.083851784,0.6309377,1.0066025,0.5530853,0.106796265,-0.00015258789
788,1778291909660,-0.0976553804444444,0.6423681944444444,0.9650040233333332,0.40513102,0.1482815233333333,-0.0247751869877777
789,1778291909670,-0.1017905846666666,0.6431815133333333,0.9606379333333334,0.293691,0.1902414966666666,-0.026433309
790,1778291909680,-0.1146026771111111,0.6448482722222222,1.0068598333333334,0.1547868511111111,0.31002638,0.0139312745555555
791,1778291909690,-0.1171791644444444,0.6452824122222222,1.0498682111111113,0.1040106895555555,0.4116465266666667,0.05974155
792,1778291909700,-0.107404135,0.6450937,1.088972,0.1120605499999999,0.43650818,0.074417114
793,1778291909710,-0.0730327191111111,0.6447003133333333,1.104578133333333,0.2690073666666667,0.3763122566666667,0.0905761713333333
794,1778291909720,-0.048464153,0.6389917,1.0954394,0.4663764133333333,0.2587161561111111,0.0943010126666666
795,1778291909730,-0.01832299,0.551863415,0.97078635,0.55894776,0.0054901109999999,0.0541778564
796,1778291909740,-0.0443823533333333,0.5143869444444444,0.9146196,0.5014207755555555,-0.1448466011111111,0.0214521622222222
797,1778291909750,-0.08524822,0.5087470977777778,0.9216840444444444,0.3576694088888889,-0.1372155088888889,0.0226389567777777
798,1778291909760,-0.12869092,0.50961414,0.9829155444444444,0.15863715,0.0443606905555555,0.072350398
799,1778291909770,-0.1320264599999999,0.514033988888889,1.0018437666666666,0.11236233,0.1460384761111111,0.09341431
800,1778291909780,-0.1178308966666666,0.5120957355555555,1.0180318333333334,0.0915883377777777,0.2843475222222222,0.12845188
801,1778291909790,-0.07445542,0.49036086,1.002941,0.11312866,0.37257385,0.15538025
802,1778291909800,0.0390586283111111,0.4503897022222222,0.9746574,0.1237199544444444,0.2497202544444444,0.0882670086666666
803,1778291909810,0.1489113633333333,0.4129402522222222,0.9603664555555554,0.1369747544444444,0.0870920816666666,-0.0073140463333333
804,1778291909820,0.15386023,0.40799138,0.9663324,0.14082336,0.06578064,-0.023590088
805,1778291909830,0.149223178,0.395641868,0.98575976,0.2262069669999999,-0.187170409,-0.167933652
806,1778291909840,0.0754903055555555,0.3532546833333334,1.0681864111111112,0.4573262522222223,-0.6125640822222223,-0.4303995755555556
807,1778291909850,-0.0283700433333333,0.3251335166666667,1.097147833333333,0.7031080444444444,-0.7473771888888889,-0.5623134933333334
808,1778291909860,-0.0726796377777777,0.3141101711111111,1.0356453666666663,0.83928426,-0.6577148533333333,-0.5688273
809,1778291909870,-0.0961222466666666,0.3044566388888889,0.9503743444444444,0.9312439,-0.54940796,-0.5567627
810,1778291909880,-0.0751470666666666,0.29003,0.7525791866666667,0.8739013666666666,-0.3502095533333333,-0.5033111566666667
811,1778291909890,-0.0319489207777777,0.2868306511111111,0.6131136244444444,0.7395036666666667,-0.2489488422222222,-0.4714135044444444
812,1778291909900,0.0229643980555555,0.3048641666666667,0.5616863944444445,0.4620649466666666,-0.2373521577777777,-0.4501122333333333
813,1778291909910,0.0556269156666666,0.31264652,0.5718146566666666,0.2500152566666667,-0.3265940333333333,-0.43921915
814,1778291909920,0.053430647,0.29499236,0.59085107,0.16798401,-0.42637634,-0.43637085
815,1778291909930,0.0460954022222222,0.2899078255555556,0.5852919566666667,0.1355506057777777,-0.4499291311111111,-0.4274970166666667
816,1778291909940,-0.1205332258,0.253966441,0.5876660169999999,-0.1536224357,-0.5235748250000001,-0.295767214
817,1778291909950,-0.1864238866666666,0.1961767911111111,0.6503871222222223,-0.3508605977777778,-0.4338853611111111,-0.0710550944444444
818,1778291909960,-0.1240538275555555,0.1310947511111111,0.6587394511111112,-0.4685092511111111,-0.3290201833333333,0.0636494966666666
819,1778291909970,-0.0395688082222222,0.1010621261111111,0.6371267466666667,-0.53775024,-0.2692566,0.09945679
820,1778291909980,0.0368352213333333,0.1068244833333333,0.6074869666666667,-0.8697713066666667,-0.0812225383333333,0.0573832193333333
821,1778291909990,0.06685402,0.1226878199999999,0.6141577,-1.0544128,0.022109985,0.026489258
822,1778291910000,0.0920594577777777,0.1349321722222222,0.7068185611111111,-1.2288733333333337,0.0611131468888888,-0.0482092972222222
823,1778291910010,0.09626258,0.1363554,0.76742685,-1.2578735,0.022644043,-0.0869751
824,1778291910020,0.0226121802222222,0.1193802722222222,0.81772902,-1.199824,-0.0747816288888889,-0.0965627033333333
825,1778291910030,-0.0566799432222222,0.107800945,0.8562895655555556,-1.130818688888889,-0.1702406122222222,-0.0714128277777777
826,1778291910040,-0.12067785,0.0857406028888888,0.9367741666666666,-1.0406290444444446,-0.2543979222222222,-0.0020446777777777
827,1778291910050,-0.1144948388888888,0.0450643242222222,1.0013688333333333,-0.7915852977777779,-0.2622036466666667,0.1333652066666666
828,1778291910060,-0.077506869,0.014741761846,0.98800578,-0.6402938870000001,-0.234617612,0.210661318
829,1778291910070,0.0063136716666666,-0.0018765423422222,0.9327889833333334,-0.56670126,-0.2410125733333333,0.1971079533333333
830,1778291910080,0.0451733756666666,0.0036288228666666,0.9200437666666668,-0.4695790733333334,-0.2619730633333333,0.1340840666666666
831,1778291910090,0.052820917,0.018109895,0.9333852,-0.40672302,-0.29748535,0.09680176
832,1778291910100,0.0460414802222222,0.0452535683333333,0.9494797833333334,-0.1669260668888889,-0.4199846111111111,0.0556589764444444
833,1778291910110,0.0306523816666666,0.0452402606666666,0.9416834466666668,0.0367787679999999,-0.4780426,0.0626983646666666
834,1778291910120,-0.0028108383333333,0.0313028973333333,0.8621749222222223,0.1775156655555555,-0.5676320222222222,0.1016421855555555
835,1778291910130,-0.0242206686666666,0.021242017,0.7758873333333334,0.1864471433333333,-0.7040456,0.1378072099999999
836,1778291910140,-0.036261786,0.005052043,0.7227642,0.14454651,-0.8567352,0.16870117
837,1778291910150,-0.0080723471111111,-0.0204110708888888,0.7328921244444444,0.0330505383333333,-1.0907389333333333,0.1765136699999999
838,1778291910160,0.0532417455555555,-0.0306071006666666,0.7612839422222222,-0.1004689533333333,-1.2879893,0.1610666866666666
839,1778291910170,0.0970566275,-0.051752334,0.7261806500000001,-0.315869148,-1.24704896,0.0575805646
840,1778291910180,0.0860128,-0.1033906066666666,0.6950230000000001,-0.5246226,-1.2167968666666669,0.0085398355
841,1778291910190,0.05355197,-0.1457751,0.69665,-0.7273712,-1.2061462,0.0110321045
842,1778291910200,0.0521422297777777,-0.1470227277777777,0.7154693544444445,-0.8688167888888888,-1.1185573777777778,0.0270131429444444
843,1778291910210,0.0483464573333333,-0.1537078,0.7764971066666667,-1.2008293888888888,-0.9471147444444444,0.0551266143333333
844,1778291910220,0.0238185045555555,-0.1680117222222222,0.8834485933333334,-1.4455379555555554,-0.9631415555555556,0.0710483142222222
845,1778291910230,0.0213512432222222,-0.1889188,0.9915390111111112,-1.559046377777778,-0.9833814888888888,0.0791015644444444
846,1778291910240,0.0831248813333333,-0.2253375166666666,1.2073393,-1.5510050333333334,-1.0094299,0.082763672
847,1778291910250,0.1598807866666666,-0.2267617766666666,1.349584033333333,-1.3915710666666667,-0.9297129,0.0884399406666666
848,1778291910260,0.234619502,-0.209743476,1.4892011,-1.082904069,-0.69700317,0.099505615
849,1778291910270,0.2592125811111111,-0.1534366311111111,1.474852888888889,-0.61641608,-0.3205600277777777,0.082589045
850,1778291910280,0.2110515666666666,-0.1199595866666666,1.3857986777777778,-0.2769521088888889,-0.1070895738888888,0.0506863055555555
851,1778291910290,0.1519214688888889,-0.1011131055555555,1.3213005666666666,-0.0479176856,0.0176696776666666,0.0412190753333333
852,1778291910300,0.1104861444444444,-0.08034083,1.274441988888889,0.0559522853333333,0.104551525,0.0588616266666666
853,1778291910310,0.0858638283333333,-0.0676491972222222,1.2331281888888888,0.1284552711111111,0.1847449377777777,0.0857899983333333
854,1778291910320,0.0739995099999999,-0.0829847211111111,1.1690901222222223,0.1604665155555555,0.2361721488888889,0.1194593644444444
855,1778291910330,0.06673115,-0.05901309,1.0837239,0.151474,0.29962158,0.19000244
856,1778291910340,0.136434878,-0.0821859165,1.00109925,0.035302735,0.382705686,0.241610717
857,1778291910350,0.1710531111111111,-0.1124340566666666,0.9627946388888888,-0.08472358,0.4772728733333334,0.2451578755555555
858,1778291910360,0.17240876,-0.12344375,0.95644915,-0.13562012,0.5179901,0.2368774399999999
859,1778291910370,0.1573853555555555,-0.1299523722222222,0.9678923055555556,-0.2192467566666666,0.5720808222222222,0.2294752311111111
860,1778291910380,0.1525177133333333,-0.1308341266666666,0.9755939444444444,-0.2587805822222222,0.5991838222222222,0.2322608066666666
861,1778291910390,0.1596633766666666,-0.1207732488888888,1.0011386,-0.2935740155555555,0.5948689744444444,0.2252739788888888
862,1778291910400,0.1698459233333333,-0.1123400466666666,1.0368250666666667,-0.29079183,0.58226013,0.2100626599999999
863,1778291910410,0.17448215,-0.11160692,1.053827,-0.26452637,0.59788513,0.2033081
864,1778291910420,0.200328917,-0.09575551,1.02313692,-0.24565735,0.732958987,0.194361876
865,1778291910430,0.2180204188888889,-0.0766665577777777,0.9983312555555556,-0.2625596822222222,0.8196953688888888,0.1814117444444444
866,1778291910440,0.2223051133333333,-0.0750936666666666,1.033136622222222,-0.3379601444444444,0.9008348388888888,0.1341349277777778
867,1778291910450,0.2218305322222222,-0.0765174027777777,1.0799015555555556,-0.3931766222222222,0.9501292155555556,0.0941958955555555
868,1778291910460,0.21694855,-0.080856025,1.1069108,-0.404068,0.95155334,0.07762146
869,1778291910470,0.1305531177777777,-0.0953237877777777,1.2444365444444443,-0.2595469133333333,0.7985076822222221,-0.0200381806666666
870,1778291910480,0.0745558359999999,-0.1031610888888888,1.3102506555555555,-0.1952192477777777,0.7303314155555555,-0.0414632158888888
871,1778291910490,-0.0091970968888888,-0.1172349833333333,1.3353880111111112,0.0612216488888888,0.5470004622222223,-0.0389234752222222
872,1778291910500,-0.0554058733333333,-0.1225497255555555,1.357678411111111,0.2316657155555555,0.5195346444444444,-0.0221116805555555
873,1778291910510,-0.079337925,-0.1192954199999999,1.3857453,0.31658936,0.55207825,-0.010269165
874,1778291910520,-0.102424888,-0.139405592,1.47743808,0.68485413,0.75469362,0.0399047854
875,1778291910530,-0.0728830511111111,-0.1279595138888888,1.4540274222222225,0.8720109833333334,0.7962612666666666,0.0714687783333333
876,1778291910540,-0.0397454359999999,-0.0997031916666666,1.3454485777777778,1.0333421444444444,0.7424655333333333,0.0760837144444444
877,1778291910550,-0.0385394593333333,-0.0723550666666666,1.1756521,1.151643522222222,0.5849812666666667,0.0563100181111111
878,1778291910560,-0.0760696166666666,-0.0556780722222222,1.0199443266666668,1.1559041444444444,0.3634084,0.0501573352222222
879,1778291910570,-0.0722586333333333,-0.033631034,0.9094274233333332,1.0737033444444444,0.1626671688888888,0.0638292116666666
880,1778291910580,-0.0472970568888888,-0.0122346829333333,0.8046994711111111,0.9812062333333332,0.0280829533333333,0.0734693766666666
881,1778291910590,-0.010268444,-0.0090629839333333,0.75473506,0.6933373222222222,-0.15633138,0.0500386544444444
882,1778291910600,0.011941052,-0.017035091,0.7398475,0.51579285,-0.23356628,0.024887085
883,1778291910610,-0.0352667548571428,-0.0649928372857142,0.8265752428571428,0.1652483211428571,-0.2859845842857142,-0.0085253032857142
884,1778291910620,-0.0205050878888888,-0.1077164322222222,0.9085318277777776,-0.1036597335555555,-0.32671102,-0.0243004688888888
885,1778291910630,0.0037651826666666,-0.1321085466666666,0.9694240466666666,-0.22190348,-0.34292603,-0.0385030106666666
886,1778291910640,0.0179206516666666,-0.1552533766666667,1.0452036500000002,-0.3184000666666667,-0.3442586299999999,-0.0580291749999999
887,1778291910650,0.034272909,-0.1659915533333333,1.1590561333333331,-0.2943420499999999,-0.2846934,-0.07028707
888,1778291910660,0.0621624964444444,-0.1638763511111111,1.1555184333333333,-0.1824917251111111,-0.1581573488888888,-0.0685068766666666
889,1778291910670,0.0745821022222222,-0.1698146488888888,1.1380004777777777,-0.110580444,-0.06790161,-0.066726685
890,1778291910680,0.07686012,-0.17579338,1.1353425,-0.110580444,-0.06790161,-0.066726685
891,1778291910690,0.0861211588888888,-0.21977909,1.0758872111111113,0.0177239323333333,0.0950775166666666,-0.1102294933333333
892,1778291910700,0.0409721005,-0.222323657,1.04855626,0.0659286525,0.206611635,-0.1375244149999999
893,1778291910710,-0.0494392366666666,-0.2266128022222222,1.0017072166666667,0.0841844366666666,0.2371164977777778,-0.089345295
894,1778291910720,-0.1021013251111111,-0.2361037,0.952353038888889,0.0866699233333333,0.2230885833333333,-0.0214589436666666
895,1778291910730,-0.106304444,-0.2437642,0.9243544,0.07318115,0.18083191,0.041397095
896,1778291910740,-0.0874450068888888,-0.2191959755555555,0.8971289711111111,0.0465494783333333,0.1609497066666666,0.0895131416666666
897,1778291910750,-0.07103969,-0.18226242,0.8809127,0.014053345,0.15206909,0.13619995
898,1778291910760,-0.0512216212,-0.141382556,0.8955070599999999,-0.0324508661,0.210877985,0.1830200169999999
899,1778291910770,-0.0122205113333333,-0.0997706,0.9255749,-0.0940721288888888,0.3186085977777778,0.2385253888888888
900,1778291910780,0.015846742,-0.07145966,0.9565705,-0.10206604,0.37364197,0.2459258999999999
901,1778291910790,0.059776116,-0.0484100566666666,0.9727870733333334,-0.0662027993333333,0.4995269899999999,0.2205403633333333
902,1778291910800,0.1080994133333333,-0.0338747166666666,0.9642589933333334,-0.0283237033333333,0.6974351888888889,0.1754438577777778
903,1778291910810,0.0704337633333333,-0.0510675988888888,0.9233653166666668,-0.0454271103333333,1.0184343444444446,0.1502312511111111
904,1778291910820,0.0397364482222222,-0.0631892535555555,0.9015356788888887,-0.0576205783333333,1.172070011111111,0.1583997888888889
905,1778291910830,0.0133241766222222,-0.0617383831111111,0.8726425044444445,-0.0602789983333333,1.2668728666666669,0.1640201155555555
906,1778291910840,-0.0211896498,-0.035766382,0.8400943,-0.06264496,1.18431855,0.15032196
907,1778291910850,-0.038823582,-0.018133227,0.82551134,-0.06530762,1.0857849,0.14047241
908,1778291910860,-0.0424031522222222,0.0065974510444444,0.8339176155555555,-0.0887519,0.8214128311111111,0.1084526899999999
909,1778291910870,-0.05301915,0.0365899838888888,0.8581203,-0.1430240227777778,0.5027194544444444,0.0724707711111111
910,1778291910880,-0.0723809946666666,0.05732182,0.8912039666666666,-0.1835632366666666,0.3091990133333333,0.0547129313333333
911,1778291910890,-0.0948075582222222,0.0771445904444444,0.9447606333333334,-0.1669854088888888,0.0727623838888888,0.0153486463888888
912,1778291910900,-0.1092614993333333,0.0925196897777777,0.991172288888889,-0.13147312,-0.0484432638888888,-0.0189768473222222
913,1778291910910,-0.100326143,0.1035909949999999,1.02588205,-0.0362854005,-0.175498965,-0.112007139
914,1778291910920,-0.0790254533333333,0.1143366966666666,1.0300584333333331,0.0270131426666666,-0.2521921833333333,-0.19385274
915,1778291910930,-0.0720832182222222,0.13554259,1.0186830444444446,0.0818888333333333,-0.3391927066666667,-0.2767690033333333
916,1778291910940,-0.0692089506666666,0.1502671766666666,1.0030229333333334,0.1553853333333333,-0.4755486377777778,-0.3512251166666666
917,1778291910950,-0.06115492,0.15246345,0.9887866,0.19088745,-0.55366516,-0.3799286
918,1778291910960,-0.0839333588888888,0.1580495255555555,0.9874036577777778,0.2080518922222222,-0.6257510666666666,-0.3976796533333333
919,1778291910970,-0.1341684566666666,0.16242911,1.0009081,0.22924296,-0.7226918433333334,-0.4154357933333333
920,1778291910980,-0.1354433933333333,0.0921272077777777,1.0561192,0.2746904155555555,-0.5733184811111111,-0.3886820466666666
921,1778291910990,-0.1421144733333333,0.0285086505333333,1.0870875111111111,0.3750050844444444,-0.3480733255555555,-0.3866102422222222
922,1778291911000,-0.151773152,0.0004632075999999,1.08287064,0.445172118,-0.2305725139999999,-0.4274291959999999
923,1778291911010,-0.1419240177777777,0.0166038917777777,1.0128523822222222,0.4827168744444445,-0.1552022322222222,-0.5706041044444444
924,1778291911020,-0.13046654,0.04141649,0.95827836,0.4673309299999999,-0.16911316,-0.66381836
925,1778291911030,-0.1773534711111111,0.1651948344444444,0.9018605866666668,0.18166097,-0.50112406,-0.7298533066666667
926,1778291911040,-0.1775292333333333,0.2083117566666666,0.9118264,-0.0004984533333333,-0.6646423333333333,-0.7172495533333333
927,1778291911050,-0.1262096577777777,0.1754860888888888,1.037217877777778,-0.1853908966666666,-0.7951931555555556,-0.6161753355555555
928,1778291911060,-0.0506604256666666,0.16405608,1.1787442333333336,-0.106145225,-0.78412375,-0.4775746666666667
929,1778291911070,0.0567259134444444,0.1920137599999999,1.3723360777777778,0.1707136372222222,-0.7142927411111111,-0.3112742111111111
930,1778291911080,0.1831747622222222,0.2531913222222222,1.4848867555555556,0.7222849466666665,-0.5582885733333334,-0.1934967033333333
931,1778291911090,0.2513609366666667,0.25748881,1.4296349333333334,1.3316192333333332,-0.4025828,-0.2306009933333333
932,1778291911100,0.08304244,0.22323976,1.2059156333333334,1.650839877777778,-0.3722754488888889,-0.3106180822222222
933,1778291911110,-0.1048406289999999,0.210305147,1.007737896,1.7589569,-0.4364929199999999,-0.32347107
934,1778291911120,-0.18940651,0.21250157,0.91691166,1.7286072,-0.4876251199999999,-0.2904358
935,1778291911130,-0.2492280877777778,0.2552795755555556,0.7931473099999999,1.3823920444444444,-0.536626178888889,-0.1434258405555555
936,1778291911140,-0.3139987088888889,0.3334457355555555,0.6216291122222222,0.7561323222222222,-0.5305887866666666,0.1053788922222222
937,1778291911150,-0.2413906066666666,0.36560638,0.55033778,0.2546335733333333,-0.2468668623333333,0.24290975
938,1778291911160,-0.1076068576666666,0.4016052933333333,0.5390702466666667,-0.60539924,0.1388821072222222,0.4048292388888889
939,1778291911170,-0.038213853,0.4186072,0.58682406,-0.97558594,0.2815094,0.44566345
940,1778291911180,0.1130213173333333,0.4632698799999999,0.80594662,-1.1728312133333334,0.25310262,0.3785552933333334
941,1778291911190,0.33162012,0.527933228,1.11281633,-1.147564665,0.168322755,0.1542114195
942,1778291911200,0.3639030425,0.520745425,1.242270675,-0.73716354375,0.10094642475,-0.1896991731249999
943,1778291911210,0.247395668,0.4560952809999999,1.24917075,-0.3128265414,0.0038940432,-0.425297547
944,1778291911220,0.14360993,0.39322567,1.1830554,0.019378662,-0.09828186,-0.54237366
945,1778291911230,0.1545247411111111,0.3507191644444444,1.1203464,0.1966349275555555,-0.0675014916666666,-0.6018490155555555
946,1778291911240,0.1511351083333333,0.3180834333333333,1.0636168333333336,0.3428175166666666,-0.031395806,-0.6494886444444444
947,1778291911250,0.0640609855555555,0.3287678866666667,1.0105069555555557,0.4258999255555555,0.2550489655555555,-0.6390787777777778
948,1778291911260,0.0605353388888888,0.3281166688888889,1.0031853733333334,0.4897003133333333,0.5597178133333334,-0.6242268666666666
949,1778291911270,0.04623055,0.32757398,0.99464434,0.4971466,0.6825714,-0.6217346
950,1778291911280,-0.0035569615199999,0.375336636,0.95715628,0.439468381,0.8217498900000001,-0.6140670800000001
951,1778291911290,-0.0213600565555555,0.3670308111111111,0.8869600555555556,0.3523339222222222,0.7793935111111111,-0.6522165777777778
952,1778291911300,-0.0596492616666666,0.3369304466666666,0.78247614,0.2252773777777778,0.6344604555555555,-0.7137111944444444
953,1778291911310,-0.0937899584444444,0.3277642822222222,0.7099503111111112,0.070275202,0.4371473666666666,-0.7438303633333333
954,1778291911320,-0.1188738939999999,0.32647586,0.6550375,-0.0061950684,0.3400879,-0.74690247
955,1778291911330,-0.1084614833333333,0.3366587533333333,0.601846611111111,-0.2474127898222222,0.0015665711111111,-0.70453051
956,1778291911340,-0.1030786522222222,0.3466643199999999,0.5981728666666667,-0.4213460388888889,-0.2416720911111111,-0.6580776566666666
957,1778291911350,-0.11940274,0.3745148599999999,0.6410448333333334,-0.5670522333333333,-0.4116363466666667,-0.55231729
958,1778291911360,-0.129588336,0.3963502319999999,0.71287906,-0.732429515,-0.559799185,-0.350891115
959,1778291911370,-0.1291241966666666,0.3722918022222222,0.7608641111111111,-0.8176845833333333,-0.57278951,-0.2106662355555555
960,1778291911380,-0.1492186511111111,0.33237405,0.8143799677777778,-0.8807728899999999,-0.5295257533333334,-0.0669148776666666
961,1778291911390,-0.15755749,0.3136622,0.84576774,-0.91166687,-0.4737701399999999,0.047790527
962,1778291911400,-0.1343445666666666,0.2980161166666666,0.8524121866666667,-1.0251719077777777,-0.4448343933333333,0.2811974418888889
963,1778291911410,-0.0957290644444444,0.2860299677777778,0.8652655822222222,-1.135250511111111,-0.5207095777777778,0.4186791311111111
964,1778291911420,-0.0530868944444444,0.2507778177777778,0.8982131044444444,-1.2417263666666667,-0.6681315266666668,0.5137210388888889
965,1778291911430,-0.0522464438888888,0.22366041,0.9233243444444444,-1.3140411333333335,-0.7914038777777779,0.6117265555555557
966,1778291911440,-0.0680829888888888,0.2211788077777777,0.9363951466666668,-1.3378821222222224,-0.8369717044444445,0.6803860388888889
967,1778291911450,-0.193921622,0.263827088,1.02917776,-1.3319122,-0.818389896,0.99917602
968,1778291911460,-0.2152769799999999,0.3027212933333333,1.0806333666666663,-1.2780575111111112,-0.7324591777777778,1.3042704222222223
969,1778291911470,-0.1080548343333333,0.4054689866666666,1.1346509333333334,-1.1991102555555555,-0.5530242900000001,1.5861528111111112
970,1778291911480,0.1375762361111111,0.5215318666666666,1.1410506,-1.0567762888888887,-0.1165008522222222,1.8510403
971,1778291911490,0.24916466,0.5405142,1.1138651,-1.0171204,-0.01411438,1.8693848
972,1778291911500,0.3867319177777777,0.5959421866666667,1.0286892822222222,-0.81951566,0.1028323688888888,1.5415276333333334
973,1778291911510,0.4144734,0.5990471666666667,0.9417238833333336,-0.6794280933333333,0.0561981199999999,1.2119496666666667
974,1778291911520,0.2405551777777777,0.4719071888888889,0.8893735688888889,-0.5652703111111111,-0.2922634555555555,0.6987237055555555
975,1778291911530,0.0973856024,0.374897388,0.90902808,-0.4863586499999999,-0.5805664,0.24406433
976,1778291911540,0.0063819386666666,0.3232763477777778,0.9693428311111112,-0.4621277,-0.6633911,0.07015991
977,1778291911550,-0.0861704166666666,0.2462617033333333,1.140345333333333,-0.3385569166666666,-0.50555419,-0.2396596233333333
978,1778291911560,-0.0860890166666666,0.2129889366666666,1.2024174333333333,-0.3051757733333333,-0.326766958,-0.3126322399999999
979,1778291911570,-0.0476093546666666,0.1646661588888888,1.2498189888888889,-0.2876519111111111,0.0613454166666666,-0.3700392
980,1778291911580,-0.0095088744444444,0.1489108422222222,1.2730586555555556,-0.2925720233333333,0.3255360866666666,-0.3882649733333333
981,1778291911590,0.0030330924999999,0.15514812,1.2809231,-0.29647827,0.3922882,-0.38684082
982,1778291911600,0.0115750066666666,0.1598667866666666,1.2895464333333333,-0.2627410883333333,0.4695230999999999,-0.3525772066666666
983,1778291911610,0.0613275757142857,0.1931335599999999,1.3244170571428573,-0.1907784614285714,0.5747615142857142,-0.2887616771428571
984,1778291911620,0.0730777015,0.192091975,1.334523375,-0.0649070775,0.5719185,-0.2130775475
985,1778291911630,0.0745689671111111,0.1664284711111111,1.3365948333333335,0.2057478111111111,0.5002916088888889,-0.0810021291111111
986,1778291911640,0.070352192,0.1533173866666666,1.3188736,0.3797963333333333,0.4173177066666667,-0.0155995686666666
987,1778291911650,0.0729953893333333,0.1504299833333333,1.2795803,0.5721384444444444,0.2885437,0.0454830588888888
988,1778291911660,0.07698144,0.15344027,1.2561513,0.7208557,0.16592407,0.07281494
989,1778291911670,0.0701489473333333,0.1619407,1.2033532333333334,0.88082378,0.0704040543333333,0.0756632493333333
990,1778291911680,0.0385436046666666,0.1772347433333333,1.1558431333333334,0.9808502444444444,0.0385674369999999,0.0600382511111111
991,1778291911690,0.0135412454333333,0.19136291,1.127465311111111,1.0441742111111112,0.0308719214444444,0.0419837111111111
992,1778291911700,-0.00641149066,0.21760153,1.09046052,1.09508362,0.063442993,0.006027222
993,1778291911710,-0.02039638,0.2338561,1.0767696,1.107544,0.090286255,-0.010269165
994,1778291911720,-0.0439886566666666,0.2723359366666666,1.0444721333333336,1.060024711111111,0.1875288272222222,-0.0040588379444444
995,1778291911730,-0.0428091203333333,0.30747989,1.0206356333333335,0.9786529666666666,0.29979452,0.0151163736666666
996,1778291911740,-0.040775653,0.32586613,1.0098969,0.9349823000000002,0.3395691,0.023284912
997,1778291911750,-0.0373723674444444,0.33291656,1.0068733111111112,0.9184705944444445,0.3496873711111111,0.0290849473333333
998,1778291911760,0.037078388,0.4508233,0.9746306,0.69955444,0.44023132,0.0925293
999,1778291911770,0.0571864964444444,0.4935871666666666,0.9712138444444444,0.662514578888889,0.3795115144444445,0.0767890088888889
1000,1778291911780,0.0650685825,0.5239945625,0.9693073375,0.6419048350000001,0.2937488525,0.048322677625
