id,timestamp,acc_x,acc_y,acc_z,gyro_x,gyro_y,gyro_z
0,1778289892050,-0.00880413425,0.1862964225,0.948364405,0.008041382,-0.10110474,-0.20939636
1,1778289892060,-0.0200986018888888,0.1741570622222222,0.94463842,-0.0706668451111111,-0.0004289425555555,-0.1849602622222222
2,1778289892070,-0.0291294401111111,0.1821032522222222,0.9523806722222224,-0.1155259883333333,0.0403459337777777,-0.1709408211111111
3,1778289892080,-0.0312175207777777,0.1812899322222222,0.9623599833333336,-0.1197882761111111,0.0513526068888888,-0.1649051211111111
4,1778289892090,-0.0259973182222222,0.1664834233333333,1.013422455555555,-0.0825110555555555,0.1366950155555555,-0.1396263944444444
5,1778289892100,-0.022010919,0.1658052544444444,1.0225880777777778,-0.0680694593333333,0.1549241822222222,-0.1344180611111111
6,1778289892110,-0.0085327542222222,0.1743475177777777,1.0226823444444446,0.050420124,0.1180504688888888,-0.1286265022222222
7,1778289892120,-0.0104317643333333,0.1735338533333333,1.0021275266666667,0.1591406911111111,0.0738389755555555,-0.1422915955555555
8,1778289892130,-0.0159234761111111,0.1745772077777777,0.9585237711111112,0.27868822,0.0523071293333333,-0.1681026888888889
9,1778289892140,-0.0337385302222222,0.1807061233333333,0.9247354555555556,0.3050164177777777,0.0660976835555555,-0.1861504444444444
10,1778289892150,-0.0492776413333333,0.1856143766666666,0.8936040333333334,0.3137715666666666,0.0620727539999999,-0.1964416533333333
11,1778289892160,-0.0583624028888888,0.18951937,0.85283319,0.3046044233333333,0.0432484944444444,-0.2046678377777777
12,1778289892170,-0.0556118077142857,0.18284815,0.8450544557142857,0.2942221528571428,0.0615081797142857,-0.2068176285714285
13,1778289892180,-0.0507825249999999,0.17369588,0.8443655,0.29140282,0.140321735,-0.20028495875
14,1778289892190,-0.045992571375,0.1727807025,0.8394991187499999,0.2999897012499999,0.27567482375,-0.18843269375
15,1778289892200,-0.0412335315,0.17833281625,0.8315823687499999,0.30418396,0.33459473,-0.18383789
16,1778289892210,-0.0343491236666666,0.1960679133333333,0.8183532333333334,0.35568746,0.4702453666666666,-0.1770935066666666
17,1778289892220,-0.0307424225555555,0.2031456522222222,0.8166581666666667,0.3814307311111111,0.4945119333333333,-0.1797553166666666
18,1778289892230,-0.0587410644444444,0.2072811955555555,0.7592907111111111,0.4903717133333333,0.5228017333333334,-0.1795739088888888
19,1778289892240,-0.0837980373333333,0.1959458933333333,0.6903042,0.5682525666666667,0.4922637955555556,-0.1554311133333333
20,1778289892250,-0.086170934,0.18333566,0.6573567,0.5827484,0.43367004,-0.12791443
21,1778289892260,-0.0596663732,0.173489312,0.611779125,0.55021666,0.300033564,-0.072680665
22,1778289892270,-0.0630261066666666,0.16828686,0.5637202133333333,0.4836883333333334,0.1591847733333333,-0.0469563806666666
23,1778289892280,-0.1126511275555555,0.1736553422222222,0.4878719733333333,0.1607954211111111,-0.3655192033333333,0.0672200528888888
24,1778289892290,-0.1451646742222222,0.1707539433333333,0.5196672544444444,-0.0949334044444444,-0.6557481333333333,0.1458095955555555
25,1778289892300,-0.1550897133333333,0.1662252188888889,0.5357749566666666,-0.1975555433333333,-0.7338663566666666,0.1780039466666666
26,1778289892310,-0.1552796466666667,0.1374675233333333,0.6053445888888889,-0.5185580888888889,-0.8722381488888888,0.31708782
27,1778289892320,-0.1409345899999999,0.12698685,0.6359064222222223,-0.6097497000000001,-0.8985697388888888,0.3659057666666666
28,1778289892330,-0.0648967739999999,0.1455894833333333,0.7094216933333334,-0.6862725333333334,-1.033028488888889,0.4070315866666666
29,1778289892340,-0.0038820126666666,0.1656561111111111,0.7868009777777778,-0.7196519777777778,-1.1944800222222225,0.4181603333333333
30,1778289892350,0.030489579,0.17650265,0.8444254,-0.70780945,-1.2649078,0.4063263
31,1778289892360,0.0686434646666666,0.1785362911111111,1.0717384777777776,-0.5309804355555555,-1.173116066666667,0.2500305188888889
32,1778289892370,0.101131396,0.1795779,1.09665936,-0.520112618,-1.11225586,0.201368715
33,1778289892380,0.1287223766666666,0.1511617266666666,1.2228914333333334,-0.6281500922222222,-0.6355133,0.0876939533333333
34,1778289892390,0.1334679988888888,0.0942966875555555,1.2184976333333333,-0.6662699366666667,-0.2637278266666667,0.053009032
35,1778289892400,0.1286817633333333,0.0690641236666666,1.1449829333333332,-0.7047356466666668,-0.1154853011111111,0.0431925442222222
36,1778289892410,0.1020793766666666,0.105645465,1.1423797999999998,-0.7153879711111111,-0.2483469677777777,0.0546128988888888
37,1778289892420,0.10354407,0.1304577166666666,1.1446170333333334,-0.7130211666666667,-0.3939327677777777,0.0615946424444444
38,1778289892430,0.1167227266666666,0.103204474,1.1576329,-0.6410573333333334,-0.5541992166666666,0.0345509846666666
39,1778289892440,0.1031636816666666,0.0779444277777777,1.1763031111111113,-0.6010521666666667,-0.5685780888888888,0.0441351998888888
40,1778289892450,0.0883553843999999,0.0475675992,1.21114652,-0.558677665,-0.5541076699999999,0.116836548
41,1778289892460,0.0941890145555555,0.036332992,1.2308503666666666,-0.5023922355555556,-0.4869689844444445,0.2093658422222222
42,1778289892470,0.102487415,0.039098896,1.2324777,-0.47398376,-0.4441223,0.24440002
43,1778289892480,0.0731182666666666,0.0595994883333333,1.1174452,-0.5308074933333333,-0.6997833333333333,0.38412984
44,1778289892490,0.11468926,0.08599828,1.1277769333333332,-0.60058086,-0.7052866666666666,0.4302927666666666
45,1778289892500,0.2439576111111111,0.1519214622222222,1.1654438,-0.74841309,-0.3446383944444444,0.4066823355555555
46,1778289892510,0.2691903277777778,0.1607879533333333,1.2233118777777776,-0.92317539,0.0180308022222222,0.3571523033333333
47,1778289892520,0.27740715,0.1568015555555555,1.2627676333333333,-0.9951985666666666,0.1769951711111111,0.3437194822222222
48,1778289892530,0.296195016,0.1222249184,1.3969721,-1.40119016,1.190969844,0.256872556
49,1778289892540,0.2851630622222222,0.1137534133333333,1.4548678777777777,-1.5291917555555556,1.5236121444444446,0.1974758555555555
50,1778289892550,0.22872453375,0.106855071875,1.54050785,-1.444049825,1.4625854500000002,0.10419273375
51,1778289892560,0.20474619,0.09999095,1.5753773,-1.383728,1.3998718,0.0590515139999999
52,1778289892570,0.20474619,0.09999095,1.5753773,-1.383728,1.3998718,0.059051514
53,1778289892580,0.0844934933333333,0.0563320464444444,1.843705766666667,-0.4422098833333333,0.4572804866666666,-0.1209920233333333
54,1778289892590,0.0475592372222222,0.0542574451111111,1.8728701666666667,-0.0669996488888888,0.0942620188888889,-0.1357828766666666
55,1778289892600,0.0133108694444444,0.0554909035555555,1.8526135666666663,0.5203230086666666,-0.2996537933333333,-0.1286790666666666
56,1778289892610,0.0228829976666666,0.055978964,1.7870161666666666,0.8421478433333333,-0.45814514,-0.1078491199999999
57,1778289892620,0.0776872611111111,0.0589899328888888,1.6803086888888887,1.053656711111111,-0.5141889888888889,-0.0878414544444444
58,1778289892630,0.118545081,0.0707410484,1.6134012800000002,1.0555740500000002,-0.391276555,-0.07582245
59,1778289892640,0.13632844,0.069606102,1.5999049333333333,0.9965532155555556,-0.2204115122222222,-0.0627543148888888
60,1778289892650,0.1589852055555555,0.048671371,1.654181222222222,0.8554636777777778,0.2333340122222222,-0.0135701497777777
61,1778289892660,0.1563820966666666,0.0602506983333333,1.7123752,0.7817840666666667,0.8603108799999999,0.041290283
62,1778289892670,0.1482874522222222,0.0708131186666666,1.7232221,0.796875,0.9817505,0.045196533
63,1778289892680,0.0997069977777777,0.0752186168888889,1.6828036333333332,1.1652831866666666,0.9698486333333334,0.0093332926666666
64,1778289892690,0.08736862,0.0667038355555555,1.6633061444444444,1.3212856444444443,0.8578135355555556,0.0089772544444444
65,1778289892700,0.0828397233333333,0.042800822,1.5973022,1.7858022,0.47539266,0.0434265146666666
66,1778289892710,0.0977412766666666,0.0578508368888888,1.5493857555555557,2.0551402,0.3605227988888889,0.0298122833333333
67,1778289892720,0.135410312,0.0997341448,1.40779541,2.30853727,0.302536006,-0.0336349496
68,1778289892730,0.1269201422222222,0.1006544233333333,1.2963386888888888,2.412056788888889,0.3083852122222222,-0.0822194433333333
69,1778289892740,0.1207917399999999,0.09718339,1.278604,2.4246063,0.31489563,-0.09062195
70,1778289892750,0.059288921,0.0790560422222222,1.177618811111111,2.542200688888889,0.4162156855555555,-0.1036987305555555
71,1778289892760,0.0389234767777777,0.0729684277777777,1.1436813555555554,2.593687233333333,0.4598914255555555,-0.1057705344444444
72,1778289892770,-0.0076651683333333,0.0810774166666666,1.0169346933333334,2.6587778333333336,0.4565683966666667,-0.0821024566666666
73,1778289892780,-0.0231491488888888,0.0896056777777777,0.9528020133333334,2.673812822222222,0.4132470022222222,-0.0629306364444444
74,1778289892790,-0.034917895,0.09254665,0.87896067,2.6690826,0.36975098,-0.049621582
75,1778289892800,-0.0606532102222222,0.1056311216666666,0.8156957077777778,2.6477796333333337,0.3083190944444444,-0.0387301972844444
76,1778289892810,-0.0786457586666666,0.116423572,0.7960628766666666,2.626474977777778,0.2439880399999999,-0.0239919024444444
77,1778289892820,-0.0787815946666666,0.1425242402222222,0.7925502088888889,2.5759294555555554,0.0074361167777777,0.0584547228888888
78,1778289892830,-0.0717040322222222,0.1499004455555555,0.7881300022222223,2.575573411111111,-0.0042826336666666,0.0714755566666666
79,1778289892840,-0.0585115513333333,0.1639746844444444,0.7797510111111111,2.561187733333333,0.0260213215555555,0.0832553455555555
80,1778289892850,-0.0248169182222222,0.2309139111111111,0.7450811555555555,2.4883998888888885,0.1441599522222222,0.1020728224444444
81,1778289892860,-0.0174680201666666,0.2367035766666666,0.7336646333333333,2.488342266666667,0.1430358866666666,0.103256226
82,1778289892870,-0.01227018165,0.24215402,0.713476832,2.5022140800000003,0.1186248744,0.1029373174
83,1778289892880,-0.0163704039999999,0.2487027,0.6722846833333334,2.582794166666667,0.0175069172333333,0.1004180916666666
84,1778289892890,-0.06493825,0.2719698866666666,0.5855631433333334,2.6328633999999997,-0.0305565736222222,0.1189456544444444
85,1778289892900,-0.1579240533333333,0.2533809233333333,0.5320329433333333,2.574981733333334,0.0576222733333333,0.2060597733333333
86,1778289892910,-0.19355641,0.23812732,0.5211724,2.5417786,0.105026245,0.24707031
87,1778289892920,-0.1891220499999999,0.3325237277777778,0.3979502022222222,2.1400519333333334,0.3678080277777777,0.4814876955555556
88,1778289892930,-0.1384391566666666,0.3959507966666666,0.39466962,1.8770548666666669,0.4661661833333333,0.5948842533333334
89,1778289892940,-0.0726386768888888,0.4494531555555555,0.4422338755555555,1.6874440666666668,0.4581654866666666,0.6678517733333333
90,1778289892950,0.0273413831,0.518695675,0.5542181690000001,1.6315155,0.384658815,0.66571808
91,1778289892960,0.0532280933333333,0.5339929511111111,0.5819700800000001,1.6280212333333333,0.3205668188888888,0.6377241388888889
92,1778289892970,0.1211572666666666,0.5696790533333334,0.59447058,1.6941935666666668,0.1352132166666666,0.4972279833333333
93,1778289892980,0.1394479355555555,0.5816653844444445,0.594212878888889,1.7338986222222224,0.0231204555555555,0.4229583722222222
94,1778289892990,0.1197739677777777,0.5997391666666666,0.5799492333333334,1.8135511555555557,-0.11365594,0.2920481388888889
95,1778289893000,0.062989811,0.5921732333333334,0.4907466,1.8685404333333335,-0.21579997,0.1476389566666666
96,1778289893010,0.0449566513333333,0.5800384466666667,0.4464907488888889,1.8523271333333335,-0.2184007455555555,0.1266276022222222
97,1778289893020,0.028537512,0.57358426,0.40463477,1.7737274,-0.20230103,0.10058594
98,1778289893030,-0.0067707955555555,0.5832645755555554,0.3843515766666666,1.5586666666666666,-0.1759101055555555,0.095740424
99,1778289893040,0.002097242,0.6265042066666667,0.4386002,1.3873901666666668,-0.1101582853333333,0.1101837133333333
100,1778289893050,0.0776784302,0.700164541,0.5293976600000001,1.26112213,-0.0146499633999999,0.103042602
101,1778289893060,0.0879520731111111,0.7151641511111111,0.5864310822222222,1.2567223,0.0491672086666666,0.0625474704444444
102,1778289893070,0.0703521926666666,0.6796678,0.6682167133333333,1.365076677777778,0.1651051822222222,0.0056627062222222
103,1778289893080,0.0969951866666666,0.7052940666666667,0.6634581333333333,1.4279259444444443,0.1570621066666666,-0.0257093648888888
104,1778289893090,0.0617698346666666,0.6981349333333333,0.6138326,1.5908508,0.061894736,-0.1137084933333333
105,1778289893100,0.0388695564444444,0.6887111066666667,0.5913389666666666,1.6521046666666668,0.0137736003333333,-0.13856506
106,1778289893110,0.0336089130888888,0.6932120133333334,0.5704999666666666,1.668794411111111,-0.024820964,-0.1369103333333333
107,1778289893120,-0.0161536801555555,0.7427027333333334,0.3995241322222223,1.6730600999999998,-0.2575174999999999,-0.0860137933333333
108,1778289893130,-0.0178594707,0.75521218,0.377032998,1.6452575799999998,-0.298812868,-0.068579102
109,1778289893140,-0.0107024094444444,0.7834198,0.3355941288888889,1.514629822222222,-0.2550896533333333,-0.0334625244444444
110,1778289893150,-0.0059573049999999,0.7947008333333333,0.3268615866666666,1.4207611333333334,-0.20408122,-0.0206756593333333
111,1778289893160,-0.004289882,0.79775155,0.32690203,1.387558,-0.18792725,-0.017654419
112,1778289893170,0.0072631766555555,0.8262102633333333,0.3970560033333333,1.3109283333333333,-0.1154225655555555,-0.0069461397555555
113,1778289893180,0.018408539,0.8392396,0.42220804,1.2943573,-0.07659912,-0.007003784
114,1778289893190,0.0433972462222222,0.8328678277777777,0.4316977111111111,1.2908681333333332,0.0950910804444444,-0.0154639350222222
115,1778289893200,0.0583935119999999,0.84347085,0.43062654,1.3053690666666666,0.16451518,-0.0245819093333333
116,1778289893210,0.0243886553333333,0.8300474833333333,0.398005,1.3561435444444443,0.1940494133333333,-0.0317450622222222
117,1778289893220,0.0041856672222222,0.8245830822222222,0.3747383277777778,1.3925951,0.2032792866666666,-0.0306769464444444
118,1778289893230,-0.0189697383,0.8298192460000001,0.3421930199999999,1.40039977,0.210444641,-0.0100936888
119,1778289893240,-0.0393933903333333,0.8416810766666667,0.3104284666666667,1.3793945333333335,0.135040284,0.046081543
120,1778289893250,-0.0407628622222222,0.8451388,0.3035951144444444,1.3687439,0.0924275706666666,0.0665028886666666
121,1778289893260,-0.039312507,0.8566234333333334,0.2715566622222222,1.3206312,0.0456169966666666,0.1225501188888888
122,1778289893270,-0.0350278105555555,0.8686092688888889,0.2420525333333333,1.2796766222222222,0.0193379726666666,0.1630299944444444
123,1778289893280,-0.0244785252333333,0.8823847011111111,0.2452384055555555,1.249262477777778,-0.0114423964444444,0.1764085622222222
124,1778289893290,0.0139340793166666,0.9257988666666668,0.2870814299999999,1.1643931,-0.1793975833333333,0.20055644
125,1778289893300,0.0249439462222222,0.9307883333333334,0.3042471733333333,1.1637420555555555,-0.22011651,0.1937493233333333
126,1778289893310,0.0485016378,0.92558738,0.3358235269999999,1.19577481,-0.146745303,0.162590025
127,1778289893320,0.058637714,0.9230333,0.31002249,1.2295532333333332,-0.053868612,0.1355692566666666
128,1778289893330,0.061728876,0.92307425,0.29358935,1.2410889,-0.023330688,0.12669373
129,1778289893340,0.087882948,0.9493921833333332,0.2002374999999999,1.225231588888889,0.0944400377777777,0.0580427382222222
130,1778289893350,0.0720063077777777,0.955886788888889,0.1504496777777778,1.1873575777777776,0.1476491333333333,0.0234188505111111
131,1778289893360,0.0267207666666666,0.9552758444444444,0.0901801466666666,1.0407053999999998,0.1642167877777777,0.0097469755111111
132,1778289893370,0.006897304,0.9592349333333332,0.0477413933333333,0.9229278666666668,0.1160430899999999,0.0155487063333333
133,1778289893380,0.0008091702222222,0.9651466111111112,0.0383453742222222,0.8585391533333334,0.0736694308888888,0.0222981774444444
134,1778289893390,-0.0242043894,0.96856566,0.0827231664,0.730514526,0.0113983152,0.0605438227999999
135,1778289893400,-0.0230819207777777,0.9617429777777776,0.1203080055555555,0.6937238888888889,0.0089806448222222,0.07905409
136,1778289893410,-0.030119385,0.9164434433333332,0.1032651366666666,0.6607004666666667,-0.0414479575333333,0.1545715366666666
137,1778289893420,-0.0339970766666666,0.8979626688888889,0.0883371366666666,0.6466759333333333,-0.0610944962222222,0.1836310533333333
138,1778289893430,-0.0680968155555555,0.9009454688888888,0.0878627288888889,0.5483144000000001,-0.1227671313333333,0.2967732733333333
139,1778289893440,-0.0485452077777777,0.9093795266666668,0.09685226,0.4888424333333334,-0.1367899577777777,0.3698052277777777
140,1778289893450,-0.0027705704444444,0.9329716333333332,0.1050953577777777,0.4632754911111111,-0.0908643933333333,0.4012925833333333
141,1778289893460,0.0931882692,0.99926849,0.071057269,0.412265018,0.0875106819999999,0.384436034
142,1778289893470,0.1431215233333333,1.0134972,0.0001099166666666,0.3185780866666666,0.2266540533333333,0.3187967933333333
143,1778289893480,0.1318143922222222,1.055691388888889,-0.0244863018888888,0.1808539511111111,0.3882734477777778,0.2335815422222222
144,1778289893490,0.1801781344444444,1.0235991222222225,-0.0673588508888888,0.0548485652222222,0.43811374,0.1484137655555555
145,1778289893500,0.19474009,1.0128881,-0.07969723,0.022415161,0.4480590799999999,0.12615967
146,1778289893510,0.1908483977777778,0.9996679266666668,-0.0519562696777777,-0.0670623772222222,0.4762234133333333,0.0425957588888888
147,1778289893520,0.1591480044444444,0.9894172533333332,0.0204750157222222,-0.2075551355555555,0.5187666122222222,-0.1198560944444444
148,1778289893530,0.0804678566666666,0.95325518,0.1018553988888888,-0.2868584622222222,0.6741756844444444,-0.2689954944444444
149,1778289893540,0.0604957627777777,0.9329576455555556,0.1112374177777777,-0.3143836222222222,0.7541300455555555,-0.3018459666666666
150,1778289893550,0.055993997,0.92563605,0.10798276,-0.330029304,0.7855743430000001,-0.3143356229999999
151,1778289893560,0.083287166,0.96850899,0.0812593966666666,-0.3791859933333333,0.7241312666666667,-0.38161723
152,1778289893570,0.0806975453333333,0.9788135555555556,0.0699515806666666,-0.3944549544444444,0.6657748722222222,-0.4033355733333333
153,1778289893580,-0.0030277344444444,0.9573912666666666,0.0454367635555555,-0.4831559888888889,0.4188045944444444,-0.3865882
154,1778289893590,-0.1018851204444444,0.9261383,0.0750354244444444,-0.5654195177777778,0.1741519511111111,-0.2962799077777778
155,1778289893600,-0.13437222,0.9169723,0.10383442,-0.5895691,0.083724976,-0.24562073
156,1778289893610,-0.098007255,0.9323073,0.1423546966666666,-0.6052551322222223,0.0103352864444444,-0.1623518222222222
157,1778289893620,-0.0464709508888888,0.943317,0.15950662,-0.6398213766666667,-0.1023457866666666,-0.0403798433333333
158,1778289893630,-0.0204458444,0.94379418,0.189645114,-0.703176879,-0.296688844,0.0257110594
159,1778289893640,0.0117913837777777,0.9480764444444444,0.3207736277777778,-0.6943766111111112,-0.3865424377777777,0.0485229491111111
160,1778289893650,0.0133912324444444,0.9477646666666668,0.3464809444444444,-0.6829562555555556,-0.3821631666666667,0.0533735485555555
161,1778289893660,-0.0285328453333333,0.9346669333333334,0.26092632,-0.6525997777777778,-0.2060885944444444,0.0926038933333333
162,1778289893670,-0.0297803017777777,0.9401584666666668,0.2457810766666666,-0.6464453933333334,-0.1450127477777777,0.1044447133333333
163,1778289893680,-0.0146615021333333,0.94268,0.1995868133333333,-0.68420409,-0.108561196,0.1348673466666666
164,1778289893690,0.0099070648666666,0.9330394333333332,0.18709929,-0.7085859333333333,-0.0809241402222222,0.13865322
165,1778289893700,0.0543658019999999,0.9588827333333332,0.1464370133333333,-0.8345286111111112,0.0425381139999999,0.1030256466666666
166,1778289893710,0.0753140144444444,0.9697434333333332,0.1335690955555555,-0.9611765666666668,0.0901184066666666,0.0521291093333333
167,1778289893720,0.08182229,0.9687942688888888,0.1315076288888889,-1.0253855444444444,0.1034918866666666,0.0259670682222222
168,1778289893730,0.068952769,0.934397805,0.176514013,-1.16113586,0.134277343,-0.0253250124
169,1778289893740,0.0601694699999999,0.922205822222222,0.1891866866666667,-1.2075432666666668,0.1490698888888889,-0.0468936497777777
170,1778289893750,0.0167675579888888,0.8983975333333333,0.1585448433333333,-1.3331231222222224,0.2212100544444444,-0.0840589726666666
171,1778289893760,-0.0079907727666666,0.8972043333333334,0.14625935,-1.427931088888889,0.20546807,-0.0863071033333333
172,1778289893770,-0.0019297723333333,0.9029397233333332,0.14158113,-1.4998983333333331,0.1616753455555555,-0.08346897
173,1778289893780,0.0734837976666666,0.90977323,0.1633022166666666,-1.6654866666666668,0.0700632746666666,-0.12524923
174,1778289893790,0.1032317777777777,0.9020306377777776,0.2295230133333333,-1.7603522333333332,0.0968678816666666,-0.1788058833333333
175,1778289893800,0.095432908,0.87416462,0.307817528,-1.85468136,0.225192258,-0.2612854
176,1778289893810,0.1274073422222222,0.8523518777777778,0.3783718088888889,-1.8643442555555556,0.3280266633333333,-0.3286590555555555
177,1778289893820,0.1390678977777777,0.8457352444444445,0.39302864,-1.8655276666666667,0.3751949722222222,-0.3551127088888888
178,1778289893830,0.1260506533333333,0.8170987111111111,0.3230660088888888,-1.9065399333333335,0.725903,-0.4905225844444444
179,1778289893840,0.1090347466666666,0.8146311133333333,0.30266012,-1.9315134888888887,0.7963273977777778,-0.5176289755555555
180,1778289893850,0.0219067046666666,0.8098310266666666,0.2949316933333333,-2.0576782,0.95972698,-0.5760396466666666
181,1778289893860,-0.0535749557777777,0.7761109866666667,0.4194277888888889,-2.0983987777777777,1.0724707666666664,-0.5842030944444444
182,1778289893870,-0.1013139999999999,0.7430945999999999,0.5087375,-2.09228813,1.12635801,-0.5746292110000001
183,1778289893880,-0.1533944711111111,0.7254284555555556,0.5116946444444443,-1.9854787444444448,1.0867343555555555,-0.43293423
184,1778289893890,-0.1344119777777778,0.7380108644444445,0.5137284577777778,-1.9775458666666663,1.0822364111111111,-0.4105055044444444
185,1778289893900,-0.0710790966666666,0.7501999133333332,0.3896258666666667,-1.9895121333333337,0.86989846,-0.3557027266666666
186,1778289893910,-0.0234201404444444,0.7518275999999999,0.3498037033333333,-2.076388888888889,0.7065022788888888,-0.3514421333333333
187,1778289893920,-0.0036785968,0.7466214,0.36314517,-2.1358032,0.65844727,-0.360672
188,1778289893930,-0.0299970266222222,0.6963448155555556,0.4569038444444444,-2.2067650444444444,0.5591973133333333,-0.3939904066666667
189,1778289893940,-0.0664974891111111,0.654692071111111,0.5153690844444444,-2.237594588888889,0.48924086,-0.4067721822222222
190,1778289893950,-0.1086851938,0.637294583,0.53264293,-2.2885116400000003,0.559954839,-0.423094181
191,1778289893960,-0.1519715866666666,0.6327406,0.5314629722222223,-2.3184424444444445,0.5954708544444445,-0.4144694066666667
192,1778289893970,-0.2478586066666666,0.5979086,0.5821868066666667,-2.3820596666666667,0.5652313266666666,-0.3058166466666667
193,1778289893980,-0.1862068144444444,0.5978951155555555,0.7704907000000001,-2.305062111111111,0.7020568777777778,-0.2504764111111111
194,1778289893990,-0.1091120066666666,0.5907904066666666,0.9188232833333334,-2.1581725666666665,0.8761037,-0.2292836533333333
195,1778289894000,-0.1978267644444444,0.5420599666666667,0.7745716444444445,-1.9901614888888888,0.4733259377777778,-0.1195085308888889
196,1778289894010,-0.1856912822222222,0.5541819722222222,0.794855188888889,-1.9084862777777776,0.3411729588888889,-0.0728115506666666
197,1778289894020,-0.131455472,0.549300699,0.772319012,-1.7935333400000002,0.1446548455,-0.0097717287
198,1778289894030,-0.08791924,0.55052134,0.7762933133333334,-1.7301178333333334,-0.0302683509999999,0.0039978026666666
199,1778289894040,-0.0600557496666666,0.5563785733333333,0.8190033933333334,-1.6997579222222223,-0.0958404542222222,-0.0081346300555555
200,1778289894050,-0.0922718563333333,0.5412463066666667,0.83250766,-1.5340457555555556,-0.3526746977777777,-0.0739898697777777
201,1778289894060,-0.1261825211111111,0.5216271244444444,0.8171999622222222,-1.4800703333333334,-0.4899766733333333,-0.0832231333333333
202,1778289894070,-0.1268466927777777,0.4996079088888889,0.8773744433333334,-1.3665652555555556,-0.8363071022222223,-0.0865461577777777
203,1778289894080,-0.1342498616666666,0.5110247466666666,0.8859974433333334,-1.2425164,-0.9664560922222224,-0.0925242108888889
204,1778289894090,-0.1359582466666666,0.5014251333333333,0.8650084333333334,-1.1951700666666667,-1.0126190199999998,-0.0963083893333333
205,1778289894100,-0.2089042044444444,0.4301200011111111,0.7853640577777778,-1.1777818,-1.0516781666666666,-0.0718638066666666
206,1778289894110,-0.2802368366666666,0.3947987244444444,0.7944216877777779,-1.2029350666666667,-1.0045047555555555,-0.0027991388888888
207,1778289894120,-0.2600615033333333,0.38435762,0.7509522033333333,-1.2937113333333334,-1.0131480000000002,0.14125061
208,1778289894130,-0.1362266064,0.4072584499999999,0.741287492,-1.39342042,-1.2669342,0.23822937
209,1778289894140,-0.073357284,0.41994953,0.7546132,-1.4353943,-1.4199066,0.27104187
210,1778289894150,0.0214046455555555,0.4299433755555555,0.7966449666666666,-1.5065816333333335,-1.7446289,0.29216512
211,1778289894160,0.031465353,0.4292249411111111,0.8163049299999999,-1.5238037,-1.7879486,0.28755188
212,1778289894170,0.0320353337777777,0.38601279,0.9894773266666668,-1.4616648333333333,-1.5990447666666667,0.2376607266666666
213,1778289894180,0.0312216693333333,0.3780534733333333,1.042722733333333,-1.4167480333333335,-1.5015767000000002,0.2326863633333333
214,1778289894190,0.052617156,0.3653621866666666,1.1243196666666668,-1.2181956,-1.1077219555555555,0.19546509
215,1778289894200,0.0643456333333333,0.3551798066666667,1.101134022222222,-1.0209978222222222,-0.7791425955555555,0.1464606411111111
216,1778289894210,0.0676946514444444,0.3507464733333333,1.0489736588888887,-0.9353010622222224,-0.6839175688888889,0.1153869648888888
217,1778289894220,0.0629977966,0.354933412,0.914373786,-0.8590789839999999,-0.72321472,0.0560729984
218,1778289894230,0.06887384,0.3544074311111111,0.8887228777777777,-0.8504435222222222,-0.7427435944444445,0.0430145267777777
219,1778289894240,0.0672883377777777,0.3276559011111111,0.8470970777777779,-0.9043613,-0.5197448755555556,0.0166659882222222
220,1778289894250,0.1052123631111111,0.3080090688888888,0.8092681333333334,-0.9713490788888888,-0.2962765155555555,-0.0035163032222222
221,1778289894260,0.1161404831111111,0.3094462888888888,0.8015666755555555,-1.004491167777778,-0.1880950909777777,-0.0178392198888888
222,1778289894270,0.0707725054444444,0.3301371688888889,0.8968574422222222,-1.068293266666667,0.2448120223555555,-0.0787336533333333
223,1778289894280,0.0582716705555555,0.3203476288888888,0.9913077444444444,-1.041895577777778,0.3945414333333333,-0.0937618666666666
224,1778289894290,0.030544365,0.2882806622222222,1.0595082444444444,-0.9099155222222222,0.5549282666666666,-0.1192101388888889
225,1778289894300,0.0101236848999999,0.27008631,1.03986679,-0.8267471399999999,0.59377748,-0.133502199
226,1778289894310,0.015277454,0.26973319,0.9698709533333332,-0.7591247666666666,0.4468027666666667,-0.1367848733333333
227,1778289894320,0.0116693698888888,0.2870197266666666,0.7789506788888888,-0.6794670977777778,0.0792863624444444,-0.1475016311111111
228,1778289894330,0.0109642403333333,0.2894607133333333,0.7575005699999999,-0.71722412,-0.016942342,-0.1575622533333333
229,1778289894340,-0.0675676226666666,0.3082943988888889,0.7552367488888889,-0.8114386577777778,0.0102810326666666,-0.1486273888888888
230,1778289894350,0.0037917971111111,0.1890454877777777,0.7504370466666667,-0.9679158666666668,0.0249633793333333,-0.1570332866666666
231,1778289894360,0.030610902,0.15344027,0.74924386,-1.0348511,0.02407837,-0.16307068
232,1778289894370,0.0171199494444444,0.1779132588888889,0.88160436,-1.0891774666666667,-0.0206654865,-0.1646677633333333
233,1778289894380,-0.0091032523333333,0.1979797122222222,0.93955352,-1.1157480666666668,-0.1068962953333333,-0.1586863144444444
234,1778289894390,-0.0055336048,0.187021414,0.914104064,-1.14830016,-0.2723999059999999,-0.11299133
235,1778289894400,0.0250797866666666,0.1802445033333333,0.9337922133333332,-1.1584218333333334,-0.33351135,-0.0675404866666666
236,1778289894410,0.02987985,0.17930865,0.93118894,-1.1546936,-0.32907104,-0.06239319
237,1778289894420,0.0739730652222222,0.1421593955555555,0.9900466444444443,-1.0610741555555556,-0.3513251377777777,-0.0689036066666666
238,1778289894430,0.0729969416666666,0.14205086,1.0405664,-0.9924164000000002,-0.35108438,-0.0854746506666666
239,1778289894440,0.0518714116666666,0.1154621388888888,1.138284022222222,-0.8565979066666667,-0.4253031333333333,-0.106781006
240,1778289894450,0.0321025625555555,0.1050213904444444,1.1620389555555557,-0.7806074444444444,-0.4757826033333333,-0.1150682233333333
241,1778289894460,0.00842624216,0.1118032101999999,1.14688603,-0.7251220899999999,-0.521612548,-0.103837585
242,1778289894470,-0.0082621087555555,0.11335937,1.0670611222222224,-0.6452060444444445,-0.4840647366666666,-0.0615726055555555
243,1778289894480,-0.008682421,0.110606775,1.0617597,-0.6433716,-0.4707489,-0.05973816
244,1778289894490,0.0476000235555555,0.0886019044444444,0.9572481333333334,-0.7438032333333333,-0.16111416,-0.0504998102222222
245,1778289894500,0.0816601833333333,0.0999095466666666,0.9533979066666666,-0.8448842466666666,-0.0275929753333333,-0.0615132653333333
246,1778289894510,0.1234211077777777,0.1094002744444444,0.9939523377777776,-0.9171431,0.098166572,-0.0932922366666666
247,1778289894520,0.1575618077777777,0.0884931955555555,1.032106222222222,-0.9572669222222222,0.2315046522222222,-0.1492140026666666
248,1778289894530,0.16569707,0.069728464,1.040892,-0.96720886,0.28666687,-0.1769104
249,1778289894540,0.0568748942222222,0.0572272825555555,1.1162103444444444,-0.9873894488888888,0.4179229777777777,-0.2030114088888888
250,1778289894550,0.0319133179999999,0.0480478146666666,1.1576728333333333,-0.979692248888889,0.6516876333333333,-0.2065633144444444
251,1778289894560,0.065999314,0.0473842162,1.1774907,-0.954585282,1.01732026,-0.2192062389999999
252,1778289894570,0.10903527,0.0526710763333333,1.1951234888888889,-0.921637642222222,1.2121938333333333,-0.2549743577777777
253,1778289894580,0.1171605875,0.05490130625,1.186930775,-0.905956265,1.233413725,-0.271457665
254,1778289894590,0.11665398,0.0566587879999999,1.12220035,-0.873576362,1.1498993299999998,-0.327433778
255,1778289894600,0.1159501999999999,0.0581358266666666,1.1034525000000002,-0.8686727,1.0753123333333334,-0.3585357666666666
256,1778289894610,0.0974827311111111,0.0833407377777777,1.0660709,-0.8397250777777778,0.7998792911111111,-0.44814216
257,1778289894620,-0.0099837999999999,0.0244140606666666,1.0733928333333334,-0.8070577000000001,0.57641602,-0.45724996
258,1778289894630,-0.0742793133333333,-0.016763928,1.0833043666666666,-0.7940979,0.4922638,-0.45387268
259,1778289894640,-0.2378390422222222,-0.1093028033333333,1.0979208555555555,-0.7620866588888888,0.3241221088888888,-0.1752539744444444
260,1778289894650,-0.2812133,-0.11445491,1.1019883333333331,-0.7674764,0.26748657,-0.0272420246666666
261,1778289894660,-0.1703212049999999,-0.0335698006,1.1689613,-0.792823789,0.2417633079999999,0.1627014142
262,1778289894670,-0.0888680535555555,-0.00248679031,1.209238,-0.7681749122222222,0.13716973,0.2100185833333333
263,1778289894680,-0.0688282135555555,-0.00077823451,1.2223357777777777,-0.7279323944444445,0.0644904211111111,0.2075330966666666
264,1778289894690,-0.0035291024444444,0.0071954289111111,1.2506192,-0.4752400555555555,-0.1952633311111111,0.1569993733333333
265,1778289894700,0.006206174,0.009690342,1.250782,-0.4340515,-0.2262725799999999,0.14587402
266,1778289894710,0.008728048,0.0139200806666666,1.2259687333333331,-0.26466878,-0.22058614,0.0982869466666666
267,1778289894720,-0.049399485,0.0071669128,1.0886868333333333,-0.1669565866666666,-0.2263302255555556,0.0783420155555555
268,1778289894730,-0.0829169733333333,0.0022455254,0.9556346466666668,-0.2066090933333333,-0.3510894766666667,0.0590515133333333
269,1778289894740,-0.1165552666666666,0.0011069491333333,0.8651706966666667,-0.3506012,-0.5605875666666666,0.0503489173333333
270,1778289894750,-0.1367439111111111,-4.839111111111072e-06,0.8408871133333333,-0.4283074311111111,-0.6456875311111111,0.0557929146666666
271,1778289894760,-0.1423852866666666,-0.0248443972,0.95567558,-0.7452155222222223,-0.5780368555555556,0.1279398575555555
272,1778289894770,-0.1119598233333333,-0.0349324105555555,1.0221812,-0.8381873222222223,-0.4187876444444444,0.1460503466666666
273,1778289894780,-0.0263358833333333,-0.0274075766666666,1.0974995333333333,-0.9095628488888888,-0.0001915788888888,0.1354573555555555
274,1778289894790,0.0453529761,-0.0346438273,1.15656264,-0.89407654,0.36986389,0.098948671
275,1778289894800,0.056985391875,-0.044384642375,1.1680303125,-0.861745835,0.42794608875,0.083555225
276,1778289894810,0.1061120171428571,-0.0748760525714285,1.186925142857143,-0.5827266,0.4244646371428571,-0.0459551125714285
277,1778289894820,0.1161534399999999,-0.0760964,1.1876922,-0.5517578,0.41130066,-0.0613250729999999
278,1778289894830,0.0889411615,-0.058220601,1.1679241500000002,-0.34003448,0.134056089,-0.170783995
279,1778289894840,0.0170255874444444,-0.0683686688888888,1.1415248,-0.2102152488888889,-0.0261773002222222,-0.2182159388888889
280,1778289894850,-0.033819757,-0.09867194,1.1181363,-0.17944336,-0.045700073,-0.22058105
281,1778289894860,-0.098059102,-0.1249954114285714,1.0526770857142858,-0.2015119271428571,-0.0335322790285714,-0.1102578282857142
282,1778289894870,-0.1169755755555555,-0.12961312,1.0266558444444442,-0.2377404111111111,0.0137702086,-0.0401475696666666
283,1778289894880,-0.0461315216666666,-0.0962454677777777,1.0294616222222222,-0.3331451444444444,0.08089023,-0.0057000055555555
284,1778289894890,0.0242388148888888,-0.0896288333333333,1.0451492333333332,-0.4032118088888888,-0.0097266306666666,-0.0360022630222222
285,1778289894900,0.0495532979999999,-0.0916351688888889,1.0608504888888888,-0.4246334555555556,-0.1138932977777777,-0.0700310566666666
286,1778289894910,-0.0016456473333333,-0.0863477333333333,1.1241164,-0.3873545333333333,-0.4668426533333333,-0.1346639033333333
287,1778289894920,-0.0304989113333333,-0.0885986155555555,1.1394375666666663,-0.3537953722222222,-0.5583360422222223,-0.1372663755555555
288,1778289894930,-0.108697014,-0.119734674,1.14893638,-0.219601442,-0.7211975020000001,-0.0824249264
289,1778289894940,-0.1285417722222222,-0.1360266833333333,1.1446032333333334,-0.1509789366666666,-0.7783169211111111,-0.038253784
290,1778289894950,-0.0542940842222222,-0.13416863,1.1625819000000002,-0.0316111241555555,-0.8311072411111111,0.0773959702222222
291,1778289894960,0.0149108906666666,-0.1033092033333333,1.1854959,0.0226084392666666,-0.8061370833333332,0.11977132
292,1778289894970,0.038422283,-0.08891005,1.1944039,0.035751343,-0.78767395,0.12722778
293,1778289894980,0.0821895473333333,-0.0615344466666666,1.1807373,0.0094129774444444,-0.5849778888888888,0.0999993188888889
294,1778289894990,0.0788132211111111,-0.0674732566666666,1.1539451555555555,-0.0097656250888888,-0.4157138355555555,0.0682746024444444
295,1778289895000,0.0627456094444444,-0.0703205622222222,1.103031488888889,-0.0133260089777777,-0.4319814022222222,0.0398763024444444
296,1778289895010,0.0400757076666666,-0.0632160422222222,1.0792222888888887,-0.0316721598888888,-0.455061171111111,0.0211741133333333
297,1778289895020,0.0141746525,-0.057768436,1.08208867,-0.042556763,-0.45742798,0.016433716
298,1778289895030,-0.032803542,-0.087649116,1.1781330333333333,-0.0093536383333333,-0.3681335466666666,0.0647277846666666
299,1778289895040,0.0062594052222222,-0.0962321631111111,1.2069861333333334,0.0109507241666666,-0.3195444755555555,0.0776299388888888
300,1778289895050,0.0834499656666666,-0.071907624,1.1845196,0.0946960416666666,-0.2820180233333333,0.0597635906666666
301,1778289895060,0.0971172,-0.0507426876666666,1.1771169888888888,0.1407945388888888,-0.2661556644444444,0.0492231577777777
302,1778289895070,0.09809332,-0.042173985,1.1837881,0.1582489,-0.24543762,0.04359436
303,1778289895080,0.1121404322222222,-0.0631073346666666,1.1750287888888888,0.2445916088888888,-0.077957155,0.03076511
304,1778289895090,0.1162025979999999,-0.0769260704,1.1899375,0.3106872559999999,-0.0281280514,0.0200622556
305,1778289895100,0.08365373,-0.0746327413333333,1.1469755666666666,0.4084167466666666,-0.005223592,0.01465861
306,1778289895110,0.0838300077777777,-0.0586472201111111,1.0764834111111112,0.4233924011111111,0.0569220628888888,0.0078548856111111
307,1778289895120,0.09321237,-0.047420457,1.0463827,0.4067043733333333,0.0989413755555555,-7.459851111111099e-05
308,1778289895130,0.1067978677777777,-0.0558545291111111,0.9981693,0.2594468888888889,0.1349249933333333,-0.0218573676666666
309,1778289895140,0.1264310488888889,-0.0515286984444444,1.002317811111111,0.2189720999999999,0.1738009966666666,-0.041858249
310,1778289895150,0.1674464055555555,-0.0451293062222222,0.9990771611111112,0.0613030325555555,0.3705732566666666,-0.1567942273333333
311,1778289895160,0.1503219633333333,-0.050132266,1.008459677777778,-0.0294223359999999,0.4844445111111111,-0.2188737655555555
312,1778289895170,0.13030943,-0.054741874,1.0174625,-0.07131958,0.53700256,-0.24562073
313,1778289895180,0.0643184978888889,-0.0705784206666666,1.0794940222222222,-0.0777706566666666,0.6254187600000001,-0.2703026711111111
314,1778289895190,-0.0015308556,-0.089837088,1.18471534,-0.0129425045,0.647630295,-0.2784881609999999
315,1778289895200,-0.0764761011111111,-0.1276880011111111,1.3149418666666668,0.3461507144444444,0.3535461433333333,-0.1181996666666666
316,1778289895210,-0.02706762882,-0.1204744333333333,1.3051246333333333,0.51564535,0.2064208966666666,-0.0426890066666666
317,1778289895220,0.03467887559,-0.108719,1.2822240333333332,0.7313029222222222,0.1041497119999999,-0.0113304984444444
318,1778289895230,0.0508683296666666,-0.100177085,1.2683542333333333,0.8503163733333333,0.098292032,-0.0018615722
319,1778289895240,0.0440752393333333,-0.0929775066666666,1.2514326999999998,0.9192047133333332,0.0934397366666666,0.0046488444333333
320,1778289895250,0.0092568944777777,-0.0625242199999999,1.1493483111111111,1.0260874333333332,0.0404137504444444,0.0257856581111111
321,1778289895260,-0.0205192590333333,-0.0343221633333333,1.0682670666666667,1.0147247,-0.00646464,0.0483957936666666
322,1778289895270,-0.0164512863333333,-0.0153671503333333,1.0116861666666666,0.9525790666666668,-0.0423312715555555,0.0683441155555555
323,1778289895280,0.0226797535,-0.0142283145,1.07475455,0.9073944,-0.076599121,0.0617141715
324,1778289895290,0.05391905,-0.017035091,1.1510835,0.87677,-0.105895996,0.052124023
325,1778289895300,0.0457837948888888,-0.0007645811333333,1.1789609222222224,0.8888447933333334,-0.1334737146666667,0.0511779778888888
326,1778289895310,0.0911374333333333,0.0132560838444444,1.214715688888889,0.9265424966666668,-0.2352718733333333,-7.629417944444454e-05
327,1778289895320,0.0247541835111111,0.0013233268888888,1.2235695444444443,1.016031877777778,-0.2252027722222222,-0.0633527972222222
328,1778289895330,-0.0140517737333333,0.0053377246666666,1.2104714333333333,1.0811258666666663,-0.2362060566666666,-0.0467783616666666
329,1778289895340,-0.023692342,0.010178748,1.2080714,1.1047363,-0.23957825,-0.03630066
330,1778289895350,-0.0384984976666666,0.0626092516666666,1.2154338333333332,1.211088377777778,-0.1909959566666666,0.059934828
331,1778289895360,-0.03638311,0.0736326,1.218566,1.2544098,-0.19644165,0.105392456
332,1778289895370,0.1003305543333333,0.0443453673333333,1.1666637666666666,1.3188561555555554,-0.0905049672222222,0.079115126
333,1778289895380,0.15085047,0.0805070886666666,1.1601143,1.3444264666666663,0.095448813,-0.0071818033333333
334,1778289895390,0.1562739155555556,0.1009539344444444,1.1670696444444446,1.3465576,0.15563965,-0.037902832
335,1778289895400,0.1144860233333333,0.1039365606666666,1.1759378,1.3667348444444445,0.2860700888888889,-0.1112874344444444
336,1778289895410,0.0952467116666666,0.0956386768888888,1.165700988888889,1.3834245555555555,0.2846493266666667,-0.1302218966666666
337,1778289895420,0.0333938828,0.0845666644,1.12682532,1.42751464,0.200268552,-0.128018188
338,1778289895430,0.0039279841666666,0.097591436,1.099222266666667,1.4422505666666667,0.1792449933333333,-0.1142374653333333
339,1778289895440,-0.0132517621111111,0.1378330577777778,1.0117271333333333,1.3875630333333335,0.21155294,-0.080149332
340,1778289895450,-0.0020523057777777,0.1505782711111111,0.9803523777777776,1.3116352999999998,0.2098388688888889,-0.0623914924444444
341,1778289895460,0.0192761238888888,0.16552027,0.9703736111111112,1.2257113666666666,0.2012617322222222,-0.0567677823333333
342,1778289895470,0.0235881268888888,0.1895468577777778,1.0723210666666667,1.1205444333333334,0.2743530288888889,-0.0683186855555555
343,1778289895480,0.0150323861111111,0.1955395955555555,1.1365075111111111,1.0928497666666668,0.3263092066666667,-0.0715738922222222
344,1778289895490,0.0097936226,0.177552568,1.24921942,1.21392518,0.305624388,-0.094036866
345,1778289895500,0.0051075205555555,0.1634053955555555,1.296542322222222,1.4039577777777776,0.2177157955555555,-0.12021552
346,1778289895510,-0.0141736153333333,0.1540090266666666,1.2732756333333333,1.4933234222222225,0.1487087688888889,-0.1096835666666666
347,1778289895520,-0.0361933488888888,0.1578328011111111,1.1788258333333337,1.8787688888888892,-0.1525828022222222,-0.0307990179999999
348,1778289895530,-0.0261053348888888,0.1755944555555555,1.0995335444444445,1.9515041666666664,-0.1924743666666666,-0.0093739825555555
349,1778289895540,-0.0186205953333333,0.20564126,0.98867822,2.004830177777778,-0.2388831266666666,0.0156690810222222
350,1778289895550,-0.013563173,0.2303031087499999,0.96552490375,1.9815845,-0.19671059,0.030748367125
351,1778289895560,-0.010634489,0.24361955,0.95596075,1.9660034,-0.16714478,0.037734985
352,1778289895570,0.0456756077777777,0.2758340911111111,0.9666445,1.8797149333333332,0.076263426,0.0196329753333333
353,1778289895580,0.0653625366666666,0.2739364644444444,0.9447336555555554,1.8571675333333333,0.11657206,0.0079091391333333
354,1778289895590,0.0249284635714285,0.2771417771428571,0.8788378142857143,1.8280574142857144,-0.04433114,-0.0061732698857142
355,1778289895600,-0.0345521928888888,0.28311542,0.8510427222222222,1.8153890222222224,-0.1696946866666666,0.0163760718888888
356,1778289895610,-0.06872054,0.28571886,0.8434501,1.8120728,-0.22201538,0.037216187
357,1778289895620,-0.0660490035555555,0.2967690011111111,0.8409820333333333,1.7926669555555554,-0.1653205033333333,0.0920715317777777
358,1778289895630,-0.0624967433333333,0.3132562366666666,0.8475985,1.7779896666666666,-0.104125979,0.1190541566666666
359,1778289895640,0.0610377477777777,0.3601286666666666,0.8796514111111111,1.7836727666666663,0.1224924717777777,0.1117841922222222
360,1778289895650,0.0829624244444444,0.3737281577777777,0.8494293944444444,1.7687547444444445,0.2174767388888888,0.0768669977777777
361,1778289895660,0.062680644,0.38036396,0.8226688129999999,1.74607849,0.254966737,0.0498367318
362,1778289895670,-0.0014417122777777,0.3673422333333333,0.8237219311111111,1.7387441,0.2245195144444444,0.0606519911111111
363,1778289895680,-0.0182002827222222,0.3634643666666666,0.8203863888888888,1.7448984777777778,0.2126820833333333,0.0709499786666666
364,1778289895690,-0.0404094327777777,0.3767525911111111,0.7413248111111111,1.7846679666666665,0.1219634988888888,0.1376478422222222
365,1778289895700,-0.0271899891111111,0.3965888377777778,0.6925130888888889,1.79491,0.0513034388888888,0.1626773444444444
366,1778289895710,0.0113712453333333,0.4321933733333333,0.65438632,1.7737274,0.0546162913333333,0.1703643799999999
367,1778289895720,0.0393028307777777,0.4632562277777778,0.6576675888888889,1.7258453111111112,0.1613125255555555,0.1550377755555555
368,1778289895730,0.0635350452,0.49331366,0.70216494,1.69115904,0.300079346,0.1299957303999999
369,1778289895740,0.0498642113333333,0.4803272666666667,0.7391976111111112,1.7165527,0.4876403833333333,0.088170372
370,1778289895750,0.0390985475555555,0.4747138999999999,0.7298961333333334,1.735612622222222,0.5261654355555555,0.07704502
371,1778289895760,0.00787307852,0.5079735166666667,0.6453570833333333,1.7385762333333334,0.5361073666666667,0.0933125799999999
372,1778289895770,0.0089712134266666,0.5113498266666667,0.5256059,1.7039574333333334,0.5058101944444444,0.1049092611111111
373,1778289895780,0.013648916,0.50512654,0.48114645,1.6783905,0.4736175499999999,0.10751343
374,1778289895790,0.0052703221333333,0.5576794466666667,0.4367284966666667,1.5795491444444445,0.1119503455555555,0.0959777844444444
375,1778289895800,-0.0001392111999999,0.5888376,0.41653304,1.4805069,-0.162361145,0.075294495
376,1778289895810,0.0059476265333333,0.6090000277777778,0.4125666,1.342651388888889,-0.3196614555555556,0.0614149311111111
377,1778289895820,0.0169168792222222,0.6215682777777778,0.4261799066666666,1.2713385555555554,-0.4223954944444444,0.0482177738888888
378,1778289895830,0.024022093,0.62813014,0.4384374,1.2384338,-0.4744720499999999,0.040405273
379,1778289895840,0.0176629677777777,0.6451206144444445,0.5453066555555556,1.1771206,-0.6328447166666666,0.0157809787244444
380,1778289895850,0.018529862,0.64728993,0.56461406,1.1526794,-0.6576996,0.00044250488
381,1778289895860,0.0692404047777777,0.6662715677777779,0.5242231077777778,1.1208987555555554,-0.6037835066666667,-0.0602094862488888
382,1778289895870,0.0886356768,0.678564685,0.474045452,1.0857773,-0.6077926710000001,-0.1124588028
383,1778289895880,0.0838426291111111,0.6854567777777778,0.4658396355555556,1.071772288888889,-0.6165127333333333,-0.1247083899999999
384,1778289895890,0.0682371471111111,0.7171306000000001,0.4788686222222222,1.0090383,-0.5547282,-0.1353658033333333
385,1778289895900,0.0628677968888889,0.7265675777777778,0.4728487555555555,0.9879150333333332,-0.5332438166666668,-0.1350097633333333
386,1778289895910,0.0347602766666666,0.72721792,0.5056341400000001,0.9379679277777778,-0.4930623333333332,-0.1138271744444444
387,1778289895920,0.0208220498888888,0.7347427388888889,0.5344333,0.9074300166666668,-0.4059448222222222,-0.08400133
388,1778289895930,0.0446182597777777,0.7521521422222222,0.5452800244444445,0.8868967666666667,-0.25592041,-0.0547587086666666
389,1778289895940,0.0715721693333333,0.76427348,0.54980842,0.85812886,-0.1419372566666666,-0.0545806876666666
390,1778289895950,0.0845475833333333,0.7722461166666666,0.5595708333333334,0.8426818833333333,-0.0877838143333333,-0.0609741199999999
391,1778289895960,0.0845888833333333,0.79307262,0.6093852755555556,0.8318532377777779,0.0969204393333333,-0.0870157866666666
392,1778289895970,0.0860395866666666,0.8003945511111111,0.60549359,0.8483666444444444,0.2520972344444445,-0.1049482533333333
393,1778289895980,0.0983916211111111,0.8052352222222222,0.5673526466666666,0.8674825111111111,0.3944278255555555,-0.1263682044444444
394,1778289895990,0.0906905033333333,0.8084892,0.5463097,0.8776651866666667,0.4416554766666667,-0.1378529866666666
395,1778289896000,0.0773242609999999,0.8119669420000001,0.5475426910000001,0.8837035999999999,0.446450804,-0.13984375
396,1778289896010,0.0164289919888888,0.8100211644444444,0.5372258599999999,0.9155324344444444,0.4259779222222222,-0.1163092722222222
397,1778289896020,-0.0006684901333333,0.8145495500000001,0.5271112222222222,0.9202626544444444,0.3973354777777778,-0.0978495273333333
398,1778289896030,-0.0018072392388888,0.8324202444444445,0.5266507777777778,0.9307454533333333,0.3388570133333333,-0.0565439846666666
399,1778289896040,0.0065450852055555,0.8421288888888889,0.5219865555555556,0.9409281488888888,0.3050621866666667,-0.0353563086666666
400,1778289896050,0.016619273,0.8420066833333333,0.5188133333333333,0.9496849866666668,0.2762417222222222,-0.0260060628888888
401,1778289896060,0.0161989606666666,0.8360953666666666,0.5318151777777778,1.0205840666666666,0.1506652826666666,-0.0284881593333333
402,1778289896070,0.0098667967222222,0.8343593277777778,0.5225548222222222,1.0637308333333335,0.0677490246666666,-0.026178996
403,1778289896080,-0.0048311718111111,0.83747728,0.5004409011111111,1.1140933333333334,-0.0186055511111111,-0.0101369223888888
404,1778289896090,-0.0084648337777777,0.8459381277777778,0.4690928888888888,1.1574079555555556,-0.0780266666666666,0.0024091931666666
405,1778289896100,-0.0047767316,0.85071087,0.45368996,1.1713104,-0.0904541,0.004180908
406,1778289896110,0.0108828400444444,0.8564468244444444,0.4406741133333333,1.2025638333333335,-0.0095469156666666,-0.0078938803333333
407,1778289896120,0.0202247652222222,0.8561758266666666,0.4287016111111111,1.2190721555555557,0.0302293564444444,-0.0138108996666666
408,1778289896130,0.028496034,0.8585212433333332,0.3938146633333333,1.2300228666666666,0.0971594916666666,-0.0283118357777777
409,1778289896140,0.0040633070444444,0.8526234111111111,0.3854360611111111,1.2319810999999998,0.1401282411111111,-0.0265367298888888
410,1778289896150,-0.0025804618,0.8505896,0.38486677,1.2325745,0.1481781,-0.025115967
411,1778289896160,-0.0321118953333333,0.8557142,0.3697355266666667,1.2378981111111111,0.2280697255555555,0.0146043567777777
412,1778289896170,-0.029305032,0.85763932,0.3573696655555556,1.2415636,0.2664201499999999,0.0327148436666666
413,1778289896180,0.0076824339,0.8730912319999999,0.30802455,1.21679992,0.242663578,0.0485046378
414,1778289896190,0.0140559203333333,0.8877675333333334,0.2874874,1.1851077222222224,0.1642778222222222,0.0413479274444444
415,1778289896200,-0.003123999,0.8988719388888889,0.26262106,1.1542765444444445,0.0966356075555555,0.0366193973333333
416,1778289896210,-0.0099029173333333,0.91766395,0.2354224266666666,1.100831811111111,-0.0136837425555555,0.030760023
417,1778289896220,-0.0111228945,0.92612445,0.22464328,1.0876923,-0.040908813,0.029220581
418,1778289896230,0.0136223012888888,0.9388831444444444,0.2450349866666666,1.0598195555555554,-0.1095021572222222,0.0203993055777777
419,1778289896240,0.0438395418,0.94442878,0.279066586,1.0162170199999998,-0.2220092779999999,0.00098266606
420,1778289896250,-0.0207778065555555,0.9235486555555557,0.1746112411111111,0.9918857133333332,-0.3391927055555555,0.0367397729666666
421,1778289896260,-0.0026749973,0.947656288888889,0.1275485375555555,0.9528859311111112,-0.4035763233333333,0.060640123
422,1778289896270,0.0096367655888888,0.9534864,0.1048782886666666,0.936609888888889,-0.4215664377777777,0.0630645751111111
423,1778289896280,6.325400000000102e-05,0.9482525666666668,0.0365153213333333,0.7860463333333334,-0.5000508666666666,0.0466156006666666
424,1778289896290,-0.017102494,0.9557373,0.014143025,0.7160949666666667,-0.5284576333333333,0.0501708986666666
425,1778289896300,0.006164696,0.9780277,0.0016145384666666,0.5225728466666667,-0.4549509599999999,0.0196329753333333
426,1778289896310,0.0371195228888888,0.9773768333333334,0.0214378282,0.3689982088888889,-0.3911488844444444,-0.0052880181111111
427,1778289896320,0.06150925,0.97996388,0.0496291678,0.27510986,-0.331729124,-0.0286285394
428,1778289896330,0.0516277262222222,0.9710719333333334,0.0566908306666666,0.1492597766666666,-0.1131795266666666,-0.0754784475555555
429,1778289896340,0.0430044106666666,0.9657298866666666,0.0479050602222222,0.1143442766666666,-0.0498521617777777,-0.0828162297777777
430,1778289896350,0.03819156,0.95652364,0.0372887174444444,0.0092875155555555,0.0956302242222222,-0.0802697077777777
431,1778289896360,0.0339203443333333,0.9543541666666666,0.0591995688888888,-0.0633917911111111,0.2099626366666666,-0.0752987344444444
432,1778289896370,0.0294593646666666,0.9556559,0.0712534755555555,-0.0996093744444444,0.2786085366666666,-0.0731065555555555
433,1778289896380,0.0135281115555555,0.9535678,0.0637817005555555,-0.1840006466666666,0.3933054611111111,-0.0522223587777777
434,1778289896390,0.0031416275555555,0.9527541333333333,0.0579515949999999,-0.2108713766666666,0.4267425533333333,-0.0435791013333333
435,1778289896400,-0.008641635,0.9507746211111112,0.0620333968888888,-0.3251478388888889,0.4726748955555555,0.0003356934444444
436,1778289896410,0.0026670476666666,0.9467878566666664,0.0766226586666666,-0.3971150766666667,0.4512481666666667,0.0253092449999999
437,1778289896420,0.00889085,0.9450385,0.0827241,-0.4207306,0.43899536,0.032943726
438,1778289896430,0.03207612,0.9294603333333332,0.1153046973333333,-0.4899698933333333,0.3598124133333333,0.0278015139999999
439,1778289896440,0.0383398445555555,0.9282806377777776,0.1178398791111111,-0.5006205244444444,0.3316429955555555,0.0212894015555555
440,1778289896450,0.0438886918,0.919706468,0.0968296896,-0.557029719,0.214537044,-0.0381698606
441,1778289896460,0.0402120663333333,0.9120103111111112,0.0888246777777777,-0.5847218722222222,0.1811964222222222,-0.0641174311111111
442,1778289896470,0.0289849579999999,0.9106681333333332,0.0866277173333333,-0.6478119,0.15883382,-0.1161905933333333
443,1778289896480,0.0129992640555555,0.9070477666666668,0.068106666,-0.71397232,0.1204817033333333,-0.1419932077777778
444,1778289896490,0.0029117689,0.9037931,0.05514473,-0.76426697,0.08319092,-0.14761353
445,1778289896500,-0.032843986,0.8887438,0.0564471466666666,-0.9274343,-0.02315267,-0.1009216333333333
446,1778289896510,-0.040355686,0.8852865977777777,0.0640535555555555,-0.9881541,-0.0590209966666666,-0.0742899586666666
447,1778289896520,-0.0256444075,0.8793269350000001,0.13055908,-1.0905075,-0.06248474,-0.0203170775
448,1778289896530,0.0001451736666666,0.8750357433333333,0.1985700866666666,-1.1640421555555551,0.0212877077777777,0.0129394532222222
449,1778289896540,0.0131618932777777,0.8734763333333333,0.2064882688888888,-1.1806166,0.0814208988888888,0.0093858507333333
450,1778289896550,0.0412545517777777,0.8596729333333334,0.2123176844444444,-1.1792551333333334,0.0520104288888888,-0.0367753776888888
451,1778289896560,0.040088496,0.8545749111111111,0.2060129988888889,-1.164872888888889,-0.0123257111111111,-0.0740610766666666
452,1778289896570,0.0268830503333333,0.8520803333333333,0.2025827511111111,-1.1484798777777778,-0.0885535326666666,-0.1194525822222222
453,1778289896580,0.0065995252222222,0.8463314833333333,0.2011453611111111,-1.1475304555555557,-0.1179114428888889,-0.1521199555555555
454,1778289896590,-0.0029459882,0.84155875,0.19865045,-1.1525574,-0.120285034,-0.168396
455,1778289896600,-0.02295942048,0.8305643249999999,0.185129387,-1.26840516,-0.0776718132,-0.151565552
456,1778289896610,-0.039433756,0.8205004142857143,0.1805896557142857,-1.358612057142857,-0.0287431977142857,-0.1378871357142857
457,1778289896620,-0.031501970625,0.80789395,0.20687226375,-1.549842825,0.059625624875,-0.0975494375
458,1778289896630,-0.0146485404444444,0.804977571111111,0.2275852822222222,-1.6606970666666667,0.0731947133333333,-0.0721554233333333
459,1778289896640,-0.0044252040888888,0.7983337955555556,0.2535368022222222,-1.720114777777778,0.0236002577777777,-0.0542856866666666
460,1778289896650,-0.00935281275,0.7540337575,0.3087206,-1.8689537,-0.1972389275,0.0192298885
461,1778289896660,-0.0108648656666666,0.7471356888888888,0.3053441088888889,-1.888839733333333,-0.2271576,0.036499023
462,1778289896670,0.03393680425,0.7225507,0.34813602,-1.967491175,-0.219608305,0.06610870075
463,1778289896680,0.05355313575,0.7011954,0.4113161175,-2.000781975,-0.2031059225,0.07077026
464,1778289896690,0.0487671158888888,0.6952867833333334,0.4961558888888888,-1.9982604555555556,-0.1831851544444444,0.0591634106666666
465,1778289896700,0.0330034688,0.6959784,0.5603680799999999,-1.97196652,-0.1617126499999999,0.0485046392
466,1778289896710,0.0212969756666666,0.6930092666666666,0.5999628333333333,-1.9444172888888889,-0.1421135833333333,0.04159546
467,1778289896720,0.0174870314444444,0.6799792333333333,0.6142668777777778,-1.872685733333333,-0.0746510833333333,0.0242513026666666
468,1778289896730,0.0223676318888888,0.6773758111111111,0.5944168022222223,-1.8614383,-0.0411563455555555,0.01365153
469,1778289896740,0.0300289991111111,0.6746641666666666,0.5774678022222222,-1.9182518555555557,0.1133134655555555,-0.0174255372222222
470,1778289896750,0.0421779599999999,0.6568755444444445,0.5802876333333333,-1.994003277777778,0.2679019499999999,-0.0510355627777777
471,1778289896760,0.0532956688888888,0.6366601088888889,0.5928301277777778,-2.0437740555555557,0.3351321688888888,-0.0718638088888889
472,1778289896770,0.0201412894,0.6131217560000001,0.70858422,-2.08392636,0.473934938,-0.1031921376
473,1778289896780,0.0047108205,0.5941307,0.7849672249999999,-2.03327175,0.524749755,-0.105537413
474,1778289896790,0.0183675784666666,0.5845256466666666,0.7942316066666667,-1.9332834555555556,0.4837324322222222,-0.0992635077777777
475,1778289896800,0.0264489126666666,0.5834003666666666,0.7723752155555555,-1.8549279,0.3452436633333333,-0.0973714188888889
476,1778289896810,0.027601834,0.5835227222222223,0.7526744666666666,-1.8085327333333336,0.2041575095555555,-0.1000400111111111
477,1778289896820,0.0111552132222222,0.5771641444444444,0.7034837222222222,-1.8007168444444446,-0.0613844128888888,-0.1180911588888888
478,1778289896830,-0.003678597,0.56711678,0.689937525,-1.8412552,-0.1279983499999999,-0.14122772
479,1778289896840,-0.0164516316666666,0.5503982777777777,0.6801340922222222,-1.9260084333333332,-0.0773145872222222,-0.1686299633333333
480,1778289896850,-0.0308919183333333,0.5227381733333334,0.71328589,-2.0258993,0.0597534176666666,-0.2014160166666666
481,1778289896860,-0.03394264,0.51500976,0.7336242,-2.053238,0.111953735,-0.21260071
482,1778289896870,-0.0430676666666666,0.4390407422222222,0.7857985222222221,-2.1753913333333332,0.3651343444444445,-0.2000003388888888
483,1778289896880,-0.0178489293333333,0.4193669488888888,0.8306777622222222,-2.208830133333333,0.4763963455555556,-0.1982828744444444
484,1778289896890,-0.0459281064444444,0.4437460888888889,0.9834581933333334,-2.133850077777778,0.4948679577777777,-0.1868540455555555
485,1778289896900,-0.062887362,0.4392067199999999,1.0819921,-1.98294065,0.376152035,-0.148414615
486,1778289896910,-0.0535893,0.4162896,1.1253364,-1.892395,0.30477905,-0.12631226
487,1778289896920,-0.0289937715555555,0.4220657955555555,1.0276317777777777,-1.5621660333333334,0.1396569144444444,-0.1188507077777777
488,1778289896930,-0.0364916461111111,0.4283976122222222,0.9837283333333332,-1.411666911111111,0.0497606063333333,-0.1171332444444444
489,1778289896940,-0.0873903966666666,0.39790286,0.8683432666666666,-1.2793324666666668,-0.0622151703333333,-0.0895690933333333
490,1778289896950,-0.1018709466666666,0.3818634222222222,0.8033293388888888,-1.2531738222222222,-0.0810953777777777,-0.0703904888888889
491,1778289896960,-0.0732596029999999,0.383060766,0.7284617130000001,-1.35092012,-0.140728759,-0.06101532
492,1778289896970,-0.0581850833333333,0.36918646,0.72378038,-1.504460666666667,-0.2523701966666666,-0.0583140066666666
493,1778289896980,-0.064978175,0.3482384166666666,0.80521451,-1.5814548222222222,-0.30628289,-0.0649397122222222
494,1778289896990,-0.0745501313333333,0.3239273555555556,0.9477167966666666,-1.6201595444444443,-0.328125,-0.0562981502222222
495,1778289897000,-0.051147792,0.3287540399999999,0.96059751,-1.6306915000000002,-0.31380208,-0.0576070146666666
496,1778289897010,-0.0397729175555555,0.3028434833333333,1.041949211111111,-1.5271809666666667,-0.30670166,-0.0909881579999999
497,1778289897020,-0.0662664195555555,0.2786003466666666,1.0558198111111112,-1.3870442666666667,-0.3140428366666666,-0.0927615688888889
498,1778289897030,-0.0897363344444444,0.2653261177777777,1.0456510444444445,-1.3028327222222222,-0.3157586044444444,-0.0781419542222222
499,1778289897040,-0.0888554405555555,0.2735693877777778,0.9643265333333332,-1.1283552222222222,-0.2495269833333333,-0.0245208737777777
500,1778289897050,-0.069867208,0.28181317,0.91962058,-1.08369136,-0.218334963,-0.00556640612
501,1778289897060,-0.0373588846666666,0.2668447366666666,0.90190172,-1.0928463333333331,-0.2441406255555555,-0.0059390596444444
502,1778289897070,-0.0325997808888888,0.25861477,0.8991356466666667,-1.099117688888889,-0.2505340588888888,-0.007003784
503,1778289897080,-0.03406396,0.25801817,0.8940918999999999,-1.1019592,-0.24864197,-0.007003784
504,1778289897090,-0.0287632225555555,0.2282840188888889,0.8723163444444445,-1.298507688888889,-0.2210066044444444,-0.0057542588888888
505,1778289897100,-0.0343491241111111,0.2059798144444444,0.8733062888888888,-1.3609992,-0.2069769977777777,0.0080939401111111
506,1778289897110,-0.0585516459999999,0.1659677133333333,0.87387645,-1.4685974,-0.1080220533333333,0.045379639
507,1778289897120,-0.065279616,0.153366224,0.8754466040000001,-1.51444094,-0.05625305,0.0620300284
508,1778289897130,-0.0614936607777777,0.146850065,0.8846555911111111,-1.546120588888889,-0.0431654195555555,0.0685696044444444
509,1778289897140,-0.068841869,0.1209804683333333,1.0162835466666666,-1.6954345777777775,-0.0610317648888888,0.1088205955555555
510,1778289897150,-0.090468078,0.1151774957777777,1.054437422222222,-1.6779175,-0.0702056879999999,0.1421407066666666
511,1778289897160,-0.069968347,0.0740800446666666,1.136345588888889,-1.5914527333333333,0.1087612591111111,0.1932695144444444
512,1778289897170,-0.029752823,0.06716459,1.1564943,-1.5138058,0.3366682255555555,0.1964060444444444
513,1778289897180,-0.0151499079999999,0.06728643,1.1568199,-1.4678802,0.4832000699999999,0.19380188
514,1778289897190,0.0357370883333333,0.0563178755555555,1.087697811111111,-1.3499298,1.0841284777777778,0.1174621588888888
515,1778289897200,0.0503809627777777,0.046718438,1.0500044777777775,-1.3157246666666669,1.2351023333333333,0.0599365243333333
516,1778289897210,0.0006654126,0.0318991124,1.01653552,-1.28966066,1.08156128,-0.0429016108
517,1778289897220,-0.035894707,0.032143004,1.0264934,-1.2841187,0.9524536,-0.07357788
518,1778289897230,-0.035894707,0.032143004,1.0264934,-1.2841187,0.9524536,-0.07357788
519,1778289897240,-0.1386840548888889,0.0106929043,1.027225111111111,-1.2726389888888887,0.6976776033333334,-0.04452006
520,1778289897250,-0.18367164,0.0026115705,1.029178,-1.2527008,0.1481781,0.03614807
521,1778289897260,-0.1101280435555555,0.0005501044822222,1.0624780888888887,-1.289633866666667,0.3451317711111111,0.1464589411111111
522,1778289897270,-0.0865359416666666,-0.0016192048466666,1.0663964333333331,-1.292351611111111,0.4040798644444444,0.1619025333333333
523,1778289897280,0.0025312064444444,-0.0171168384444444,1.0653382222222223,-1.304896011111111,0.5145077044444445,0.0939619277777777
524,1778289897290,0.0250654424444444,-0.0275707234444444,1.1004828555555557,-1.285137566666667,0.4331342877777777,0.0196872284444444
525,1778289897300,0.0209981602222222,-0.0325875103333333,1.1324815444444445,-1.2406293888888889,0.3324059388888888,-0.0175950791111111
526,1778289897310,-0.0280967026999999,-0.0578418520999999,1.16200531,-1.07649688,0.07019195574,-0.0780014029
527,1778289897320,-0.0922718583333333,-0.0827676533333333,1.1221628666666663,-0.9748399555555556,-0.1284993463555555,-0.0871971977777777
528,1778289897330,-0.130141962,-0.08793324,1.064931766666667,-0.9237060666666668,-0.33172607,-0.0551198333333333
529,1778289897340,-0.1319180944444444,-0.0775745805555555,1.0218286555555556,-0.9492153666666666,-0.3700748022222222,-0.0112101241666666
530,1778289897350,-0.12741633,-0.070361525,1.0020871,-0.9870961555555556,-0.3494211866666666,0.0147094726666666
531,1778289897360,-0.0257662486666666,-0.0721108633333333,0.9763799333333334,-1.2459564,-0.1508127866666666,0.0059611002666666
532,1778289897370,0.014924198,-0.0770324266666666,1.0035113666666666,-1.3547905666666666,-0.0694936133333333,-0.0242241752222222
533,1778289897380,0.0377301146666666,-0.0981436133333333,1.094707433333333,-1.4284667666666666,-0.1012827566666666,-0.1216939319999999
534,1778289897390,0.0266212185,-0.1110586265,1.17404978,-1.39943695,-0.2233428949999999,-0.192626955
535,1778289897400,0.019995078,-0.113072135,1.1933057,-1.3544312,-0.31575012,-0.22592163
536,1778289897410,-0.0289526408888888,-0.1347660933333333,1.2139151444444445,-1.0653873111111112,-0.6300082733333334,-0.2029537622222222
537,1778289897420,-0.1055870488888888,-0.1695849577777778,1.2404902111111111,-0.872160161111111,-0.8001556444444444,-0.1675652388888888
538,1778289897430,-0.1588865188888888,-0.1970134444444444,1.2563273,-0.5051795055555556,-0.8752543222222222,-0.0215115013888888
539,1778289897440,-0.0955673006666666,-0.18828194,1.2291013666666666,-0.3094024633333333,-0.8277893000000001,0.0563863108333333
540,1778289897450,-0.062985666,-0.18311635,1.2150273,-0.25134277,-0.8009796,0.07823181
541,1778289897460,0.0397639315555555,-0.1678081288888889,1.1769814333333333,-0.2224629711111111,-0.8022783133333333,0.0656840011111111
542,1778289897470,0.0647255057777777,-0.1670075988888889,1.1698635888888889,-0.2193264444444444,-0.8348287111111111,0.0614217133333333
543,1778289897480,0.0364935462,-0.155781492,1.1497417,-0.253799432,-0.99081116,0.0849395756
544,1778289897490,-0.0022681661111111,-0.1476734044444444,1.1199397,-0.2796952933333333,-1.046344333333333,0.0870412188888888
545,1778289897500,-0.0477585044444444,-0.1379113433333333,1.1113978666666666,-0.2909359433333333,-1.0726827222222224,0.0763854988888888
546,1778289897510,-0.059310696,-0.1406914188888889,1.1346782111111111,-0.27105205,-1.0288866022222225,0.0785149477777777
547,1778289897520,-0.05822604,-0.14638637,1.1444947,-0.2524109,-0.97088623,0.08354187
548,1778289897530,0.0672465126666666,-0.1397146122222222,1.2197458111111112,-0.3467508977777778,-0.5296359588888888,0.0804697668888888
549,1778289897540,0.11651897,-0.13198619,1.2527341,-0.38450623,-0.35836792,0.07395935
550,1778289897550,0.1894379833333333,-0.1265629122222222,1.3305609444444444,-0.46877881,0.2366502555555555,-0.0001373308888888
551,1778289897560,0.2559977,-0.1213703599999999,1.4119807,-0.5490875,0.86190796,-0.08157349
552,1778289897570,0.2249906209999999,-0.11997887,1.39733743,-0.4928420839999999,1.002523792,-0.1400573769999999
553,1778289897580,0.0404554049444444,-0.1223321377777778,1.2315287333333331,-0.2509935166666667,1.3745388666666665,-0.288114751111111
554,1778289897590,-0.0435152867777777,-0.1337083988888888,1.1390570666666666,-0.2019924555555555,1.3104417666666666,-0.247516211111111
555,1778289897600,-0.098970932,-0.1425759144444444,1.1148417888888889,-0.1858300122222222,1.1319461555555557,-0.1604037822222222
556,1778289897610,-0.1376254922222222,-0.1402296288888888,1.1383125444444444,-0.1447635166666666,0.87321472,-0.0652465822222222
557,1778289897620,-0.14535357,-0.1390634,1.1457157,-0.1400299,0.84646606,-0.056015015
558,1778289897630,-0.1396050344444444,-0.1526226244444444,1.1702566111111112,-0.0523800288888888,0.58375549,0.0015190973333333
559,1778289897640,-0.11734879,-0.166337135,1.19153635,0.0819763194,0.196965026,0.0799865719999999
560,1778289897650,-0.072015468,-0.17363858,1.1969671666666666,0.2266082766666666,-0.0954182966666666,0.0890604666666666
561,1778289897660,-0.0441796275555555,-0.1803364388888889,1.1754220444444443,0.3097602,-0.2100592722222222,0.0574561233333333
562,1778289897670,-0.03577338,-0.18348187,1.1577952,0.33721924,-0.23373413,0.03614807
563,1778289897680,-0.0512398215,-0.198461075,1.129667875,0.447734825,-0.3447761475,-0.0504150389999999
564,1778289897690,-0.0702799533333333,-0.1981660155555555,1.1214175444444443,0.4771202866666666,-0.3646884477777778,-0.06340366
565,1778289897700,-0.0957937271428571,-0.18004793,1.1039110285714284,0.5027073485714285,-0.2907191814285714,-0.0624673025714285
566,1778289897710,-0.0915398975,-0.1750319924999999,1.08961205,0.4920730625,-0.237052925,-0.05054473875
567,1778289897720,-0.0807493649999999,-0.1703731399999999,1.0824171285714286,0.4776785742857142,-0.2521362285714286,-0.0260249547142857
568,1778289897730,-0.0621450388888888,-0.1673475566666666,1.0956017111111112,0.47357178,-0.2975853777777778,-0.0069986979444444
569,1778289897740,-0.045277934,-0.1656932677777777,1.111655177777778,0.4729207377777777,-0.32309638,0.0021158854111111
570,1778289897750,-0.0056031849777777,-0.1562025355555555,1.149714877777778,0.4652303066666667,-0.2702941933333333,-0.0023905435
571,1778289897760,0.0009597016,-0.153952,1.1560873,0.46398926,-0.25076294,-0.007003784
572,1778289897770,0.0184769779555555,-0.1451378822222222,1.1950003888888887,0.4994947666666667,-0.1720547144444444,-0.0396169031111111
573,1778289897780,0.0203615396,-0.14304157,1.20926658,0.52406922,-0.1218170159999999,-0.0592575078
574,1778289897790,0.0089038121777777,-0.1449619433333333,1.2340360666666663,0.5632324333333334,-0.0705617261666666,-0.063105264
575,1778289897800,0.0061387716555555,-0.1376676655555555,1.2799046666666667,0.7182803766666667,0.0996483692222222,-0.0887925911111111
576,1778289897810,0.0035754198888888,-0.1255857586666666,1.2477575,0.7808956711111111,0.17901272,-0.1077948711111111
577,1778289897820,-0.0152722696666666,-0.1140074653333333,1.2215357,0.7879977833333334,0.2190772122222222,-0.1137101911111111
578,1778289897830,-0.0428779051111111,-0.100571298,1.2477716111111112,0.79155475,0.28026835,-0.1048329666666666
579,1778289897840,-0.0495867079999999,-0.097293986,1.26270369,0.7999725099999999,0.306686402,-0.097074891
580,1778289897850,-0.0595139388888888,-0.0905233811111111,1.3179917555555556,0.9563140866666668,0.3717125788888888,-0.0380689822222222
581,1778289897860,-0.0513109366666666,-0.08686241,1.3057894,1.000461148888889,0.3504062244444444,-0.026823255
582,1778289897870,-0.0371831213333333,-0.0785100846666666,1.2850720666666668,1.0327724777777778,0.3147769533333333,-0.0203128386666666
583,1778289897880,2.2467444444444423e-05,-0.0510819434444444,1.2677032,1.1231502777777778,0.10249329,-0.0267130535555555
584,1778289897890,0.0005514872222222,-0.0482890785555555,1.2721911444444445,1.1308441,0.08106995,-0.030975342
585,1778289897900,-0.0241250958888888,-0.0334545782222222,1.283010388888889,1.2247619333333333,-0.0529886870999999,-0.068791708
586,1778289897910,-0.0248708393333333,-0.028749569,1.2875933666666668,1.2643534,-0.09897359,-0.0819295266666666
587,1778289897920,-0.038619822,-0.0255775243333333,1.3652851666666668,1.4355061999999998,-0.1568552633333333,-0.1128234866666666
588,1778289897930,-0.0504039317,-0.0276149841999999,1.41453154,1.6366837,-0.144676209,-0.124447631
589,1778289897940,-0.067609099,-0.0275294195555555,1.3593460222222222,1.821543355555556,-0.1676161066666666,-0.1041191946666666
590,1778289897950,-0.0666321188888889,-0.0141870957777777,1.2684751,1.9100748666666665,-0.19732666,-0.0657755533333333
591,1778289897960,-0.0590934584444444,-0.0060518402222222,1.2340630555555554,1.9404347888888889,-0.2073889822222222,-0.0466613771111111
592,1778289897970,-0.0179569443333333,0.0298238533333333,1.156819933333333,1.9578348666666667,-0.2594655433333333,-0.0398508713333333
593,1778289897980,-0.0080724705714285,0.0410505171428571,1.140573,1.9598366571428572,-0.2920074571428571,-0.0422341488571428
594,1778289897990,-0.0445180206666666,0.0538239116666666,1.1318438,1.9936981166666667,-0.4750086666666666,-0.0312347416666666
595,1778289898000,-0.04068465775,0.0606217975,1.1360137375,2.0202045625,-0.48732758125,-0.016984939625
596,1778289898010,-0.0138944517142857,0.0712967834285714,1.1309145142857144,2.0363944000000003,-0.4590323271428572,-0.0130876812857142
597,1778289898020,0.0302458953333333,0.0966550666666666,1.1295656666666667,2.046254466666667,-0.3079427066666667,-0.0494384756666666
598,1778289898030,0.0476431071428571,0.1068241871428571,1.1241498428571428,2.040651642857142,-0.1670750228571428,-0.081041608
599,1778289898040,0.0435054341666666,0.1077395966666666,1.0413195166666669,2.0072022,-0.0929361999999999,-0.1215159113333333
600,1778289898050,0.0141641094444444,0.1211156162222222,1.0216390333333334,1.9739956333333335,-0.1450720911111111,-0.1235266811111111
601,1778289898060,-0.0088047825555555,0.13790149,1.0223980777777777,1.9576585444444443,-0.2021230088888889,-0.1076677122222222
602,1778289898070,-0.0007367562333333,0.1561244188888889,1.0658679222222225,2.0044776555555557,-0.3230929877777778,-0.0637563077777777
603,1778289898080,0.0111951359777777,0.15701948,1.0870601444444443,2.0476786222222225,-0.3621537999999999,-0.0531599261111111
604,1778289898090,0.0276007962222222,0.1769227977777777,1.081215411111111,2.167756888888889,-0.2672831244444444,-0.0533447251111111
605,1778289898100,0.0350450944444444,0.1855601066666666,1.0649998444444444,2.2094828888888887,-0.1973351377777777,-0.0591430655555555
606,1778289898110,0.0407130888888888,0.19061802,1.0508180777777778,2.2211439555555557,-0.1298709455555555,-0.0661231142222222
607,1778289898120,0.0602914826666666,0.2253819366666667,0.998114,2.2361670888888887,0.2738172766666666,-0.1070234511111111
608,1778289898130,0.061484672,0.22982909,0.9943986,2.239420611111111,0.3146514922222222,-0.1106940388888889
609,1778289898140,0.038760156,0.2388326144444444,0.93446952,2.2171698555555555,0.4341990166666666,-0.0969611277777777
610,1778289898150,0.0038467562222222,0.26574677,0.8194237088888889,2.1437835777777776,0.5271165666666666,-0.0753614611111111
611,1778289898160,-0.0013594476,0.27827457,0.78731614,2.1087494,0.54818726,-0.06613159
612,1778289898170,-0.0156111797777777,0.3068027644444444,0.77103215,2.0209197999999997,0.6021626822222221,-0.0173645015555555
613,1778289898180,-0.0071938729499999,0.318849434,0.76792552,1.9807007,0.6408660960000001,0.00354003908
614,1778289898190,0.0105987135,0.32598746,0.7405801,1.9585570999999995,0.6642914,0.0052490234
615,1778289898200,0.0086055142777777,0.3591115822222222,0.7216791855555555,1.8407813,0.6277855777777778,0.0138905842444444
616,1778289898210,0.0074256329999999,0.3771176,0.7160525,1.7737274,0.606781,0.017501831
617,1778289898220,-0.0368576893333333,0.3809280733333333,0.6985614777777778,1.7467362888888889,0.5030890444444444,0.051118639
618,1778289898230,-0.06054519,0.39017546,0.68749785,1.737503,0.4539031999999999,0.07130432
619,1778289898240,-0.0503757777777777,0.4137395655555556,0.6572481722222222,1.668911388888889,0.4214765666666666,0.1028476297777777
620,1778289898250,-0.0292104955555555,0.4325592522222222,0.6481093333333334,1.6190202333333332,0.4405364933333333,0.1025492366666666
621,1778289898260,-0.0030009471111111,0.4515153111111111,0.6375871533333334,1.5740475111111112,0.4172193666666666,0.0528903548444444
622,1778289898270,-0.0026622082222222,0.4751751555555555,0.6158932088888889,1.5441657333333334,0.2328677666666666,-0.0385437007111111
623,1778289898280,-0.01551699,0.4820626,0.6039074,1.5462952,0.13059998,-0.07357788
624,1778289898290,-0.0832014426666666,0.4971675866666667,0.5446295466666666,1.5595499444444445,-0.3304290777777778,-0.1183268235555555
625,1778289898300,-0.1083527788888888,0.5050451666666667,0.5234779333333334,1.5529191333333334,-0.5444878511111111,-0.1272633877777777
626,1778289898310,-0.0958594104,0.54131962,0.51863362,1.45211484,-0.7854309159999999,-0.109060666
627,1778289898320,-0.0812754724444444,0.5606494622222222,0.5266492222222223,1.3328772555555557,-1.0190718,-0.0859578433333333
628,1778289898330,-0.06261858,0.55674356,0.5411846,1.2533417,-1.093399,-0.0570678699999999
629,1778289898340,-0.0383486567111111,0.5938136555555555,0.5787966733333333,1.2262353,-1.0764719333333332,-0.0554131393333333
630,1778289898350,0.0119685314,0.6743122888888888,0.6551599133333332,1.1400061666666668,-0.9874013466666668,-0.0628763837777777
631,1778289898360,0.0879648666666666,0.6059621222222221,0.6880533266666666,1.2211541,-0.8519337933333333,-0.18265449
632,1778289898370,0.063478218,0.6045788333333333,0.7880897,1.3250731999999998,-0.81518046,-0.2548573866666667
633,1778289898380,0.0450385717777777,0.6105987,0.8256336666666667,1.451477,-0.7913971,-0.2818451
634,1778289898390,0.0545291264444444,0.5850550555555556,0.8654007333333333,1.8224267111111112,-0.6033698311111111,-0.3151007788888889
635,1778289898400,0.0459599048888888,0.5822079222222222,0.864777011111111,1.879715,-0.5596924,-0.32019043
636,1778289898410,-0.0276097791111111,0.6063827555555555,0.7336784333333334,2.0376146222222222,-0.1995256241666666,-0.2848036033333333
637,1778289898420,-0.06286278,0.6252028,0.6555259,2.0964966,0.0048828125,-0.26000977
638,1778289898430,-0.06762241,0.6319145,0.6286792,2.0943756,0.0693512,-0.24829102
639,1778289898440,-0.0377257614999999,0.693648168,0.397776541,1.88446045,0.424346928,-0.15315857
640,1778289898450,-0.0149330123333333,0.7483698222222223,0.2768843522222222,1.6796281888888889,0.6967281888888889,-0.12542894
641,1778289898460,0.0340558381777777,0.7694803677777778,0.2652780777777777,1.358100022222222,1.0693952777777778,-0.1480305977777777
642,1778289898470,0.0766838322222222,0.7658872955555556,0.3154184666666667,1.1920860666666666,1.1740281666666668,-0.1717020666666666
643,1778289898480,0.0485087386666666,0.7451157333333334,0.3916184,1.1430816666666666,1.1339009666666666,-0.1737162266666666
644,1778289898490,-0.0151768697777777,0.7242897022222222,0.4725233266666666,1.1894802444444443,1.0476701222222222,-0.1472676622222222
645,1778289898500,-0.0365184348888888,0.72095416,0.4897972599999999,1.225701222222222,1.0140567,-0.1311713355555555
646,1778289898510,-0.0880550816666666,0.7369946677777777,0.4603753888888888,1.4030083444444443,0.8218434666666666,-0.0375450988888888
647,1778289898520,-0.0950246266666666,0.7514342366666668,0.4146285833333333,1.4563937444444446,0.7323557555555555,-0.0036909317777777
648,1778289898530,-0.0842916649999999,0.783704755,0.2814349,1.4677322499999998,0.510050965,0.0596816998
649,1778289898540,-0.0732219666666666,0.8089231777777778,0.2116391688888889,1.3960300222222224,0.36354065,0.0876854777777777
650,1778289898550,-0.0670121633333333,0.8252479433333333,0.1992197366666666,1.307020422222222,0.2574818944444444,0.0962100555555555
651,1778289898560,-0.0622667111111111,0.8463588022222222,0.2245886666666666,1.2043372555555554,0.1542138,0.0914798311111111
652,1778289898570,-0.059283736,0.8584531444444444,0.2340795688888888,1.1552124222222222,0.1141509999999999,0.085681492
653,1778289898580,-0.0469590119999999,0.8722287266666666,0.2549057666666667,1.0734863133333332,0.1174570733333333,0.0599416123333333
654,1778289898590,-0.031990052,0.8839836533333334,0.28882922,0.9502766933333334,0.16362,-7.629366666666675e-05
655,1778289898600,-0.0275427258888888,0.8876034977777778,0.3038387933333333,0.93536377,0.17533875,-0.012863159
656,1778289898610,-0.0363011906666666,0.8883902022222222,0.3712403366666666,0.9310963866666666,0.2458292599999999,-0.0789133713333333
657,1778289898620,-0.0377660624444444,0.8892577755555556,0.3796192722222222,0.9524044555555556,0.2663065566666666,-0.1034732377777777
658,1778289898630,-0.0542809516666666,0.90041733,0.3263338,0.9875641,0.2092488566666666,-0.1071421293333333
659,1778289898640,-0.0703434828,0.911420679,0.26804901,0.995980836,0.145935058,-0.0924438496
660,1778289898650,-0.0754047544444444,0.91432896,0.2467846777777778,0.98945787,0.1128997822222222,-0.0798628093333333
661,1778289898660,-0.0853564088888888,0.9156982222222224,0.1641025777777777,0.9189673444444444,-0.0385470922222222,-0.0239359536111111
662,1778289898670,-0.0796617977777777,0.917352488888889,0.1392899822222222,0.8755272666666667,-0.1126437713333333,0.0005662705444444
663,1778289898680,-0.06168325,0.9370259666666668,0.1458119066666666,0.7414855966666667,-0.23479207,0.0233662926666666
664,1778289898690,-0.0514054733333333,0.9469377033333332,0.1539065444444444,0.6633080277777778,-0.2585788222222222,0.0240207255555555
665,1778289898700,-0.0460767355555555,0.9507476622222222,0.1604692533333333,0.6090375888888889,-0.2437845755555555,0.0186920173666666
666,1778289898710,-0.046633409375,0.9505006125,0.208443255,0.479957575,-0.15463257,0.00125122065
667,1778289898720,-0.043155850625,0.9461994525,0.2252827574999999,0.4462032287499999,-0.1369228375,-0.007942199625
668,1778289898730,-0.0480300126666666,0.9388430666666666,0.2433941844444444,0.4223107222222222,-0.1145951977777777,-0.0212690562222222
669,1778289898740,-0.052978016,0.9361306,0.25783464,0.4128418,-0.08085632,-0.030441284
670,1778289898750,-0.0561101373333333,0.93120868,0.23460841,0.4187011733333333,-0.0339864073333333,-0.033813476
671,1778289898760,-0.0647344866666666,0.92120308,0.1570794566666666,0.4197692866666667,0.0697021459999999,-0.0402018226666666
672,1778289898770,-0.0719550599999999,0.922159675,0.121833885,0.4032630937499999,0.0876598335,-0.0392284395
673,1778289898780,-0.0810048266666666,0.9232780166666666,0.06323972,0.3306528733333333,0.135218302,-0.0247599286666666
674,1778289898790,-0.0837296,0.9269789,0.0168138746111111,0.2261335599999999,0.1475847055555555,-0.003692627
675,1778289898800,-0.0867937966666666,0.9356973022222222,0.0003537743666666,0.0791812466666666,0.1442142066666666,0.0228220617777777
676,1778289898810,-0.0826456344444444,0.9352635,0.0106448582444444,-0.0573543955555555,0.1359337688888889,0.0403408473333333
677,1778289898820,-0.08128999,0.9346669,0.013166732,-0.08943176,0.13380432,0.044128418
678,1778289898830,-0.0695611688888889,0.9190745388888888,0.0620461836666666,-0.2134128155555555,0.1408420122222222,0.0451948377777777
679,1778289898840,-0.0593649664444444,0.9015161444444444,0.1268437533333333,-0.3026580822222222,0.1398942744444444,0.0423567024444444
680,1778289898850,-0.0580632413333333,0.9084309133333331,0.1738381933333333,-0.3062082933333333,0.1719716433333333,0.0274505613333333
681,1778289898860,-0.0581446414444444,0.91419345,0.1793299099999999,-0.3150295666666667,0.1980692577777777,0.014483982
682,1778289898870,-0.058470245,0.91441053,0.17314759,-0.3237915,0.20516968,0.009506226
683,1778289898880,-0.0641650288888888,0.9167153244444444,0.1750726966666666,-0.3324890122222222,0.1909061022222222,0.0075531008666666
684,1778289898890,-0.0810459474,0.923928335,0.1740502099999999,-0.359100346,0.149667358,0.00279235846
685,1778289898900,-0.0819942555555555,0.9433851022222224,0.1462866577777778,-0.4367014566666666,0.058873494,0.012527466
686,1778289898910,-0.0771406177777777,0.9451206222222224,0.1421374577777777,-0.4919196166666666,-0.0029144294444444,0.0169084337777777
687,1778289898920,-0.07348017,0.94308645,0.14349328,-0.5283203,-0.04197693,0.017501831
688,1778289898930,-0.07270712,0.9382869,0.1465035566666666,-0.5525851666666666,-0.0718061677777777,0.0179765489999999
689,1778289898940,-0.07116102,0.9286878,0.15252411,-0.6375122,-0.1762085,0.019638062
690,1778289898950,-0.0484233642222222,0.8872383244444444,0.2608177888888889,-0.7036726033333334,-0.2440762,0.0001034207888888
691,1778289898960,-0.0456714598888888,0.877082711111111,0.2993382333333333,-0.6762746000000001,-0.2635481111111111,-0.0190751816444444
692,1778289898970,-0.0480165337777777,0.8712797777777778,0.3520132822222222,-0.5669030055555555,-0.2865227633333333,-0.0441131597777777
693,1778289898980,-0.0483281392222222,0.8707103333333334,0.3627385033333333,-0.4833390966666666,-0.2888861833333333,-0.0577240011111111
694,1778289898990,-0.0492772987777777,0.8689205466666666,0.3640948366666666,-0.3882378444444445,-0.2822503066666667,-0.0745883546666666
695,1778289899000,-0.0748216386666666,0.8608663155555556,0.3100091755555555,-0.2096879755555555,-0.2445543077777777,-0.1041768393333333
696,1778289899010,-0.0939935466666666,0.860568008888889,0.2537398688888889,-0.1180742066666666,-0.2225409611111111,-0.1142374668888888
697,1778289899020,-0.1079737711111111,0.8664800333333333,0.1180979027777777,-0.1478424022222222,-0.2541503955555556,-0.0742340077777777
698,1778289899030,-0.1213554977777778,0.8536262933333334,-0.0302204922222222,-0.2820654955555556,-0.3483683333333333,-0.0065324566666666
699,1778289899040,-0.1297883566666666,0.8453830311111111,-0.0956143133333333,-0.4288313133333333,-0.4394463444444444,0.0463799388888888
700,1778289899050,-0.1124878066666666,0.8604323333333334,-0.0817312133333333,-0.9055938333333332,-0.6740417466666666,0.1755167633333333
701,1778289899060,-0.0860482272222222,0.8540189666666667,-0.0230490824444444,-1.0767483111111111,-0.7553558388888889,0.221856011111111
702,1778289899070,0.006531262,0.8469281066666666,0.1794517423333333,-1.2926483333333332,-0.7260538666666667,0.20232137
703,1778289899080,0.0476276763333333,0.8345760666666666,0.31506641,-1.374732111111111,-0.6648661333333333,0.1491767033333333
704,1778289899090,0.0544311012,0.81795848,0.387306942,-1.37291256,-0.6123321749999999,0.0983016986
705,1778289899100,0.029052532,0.8015063611111111,0.3788733377777778,-1.2923482222222222,-0.5089772544444444,-0.0019734702222222
706,1778289899110,0.0133378296111111,0.7984419777777778,0.3492608444444444,-1.2740037888888889,-0.51247152,-0.0316840281111111
707,1778289899120,-0.0230820935666666,0.7838807133333333,0.2992018733333333,-1.2535807333333333,-0.6713070555555556,-0.0428721115555555
708,1778289899130,-0.0551758409999999,0.7691969166666666,0.2595834633333333,-1.2770182,-0.7844696133333333,-0.024052938
709,1778289899140,-0.0661853611111111,0.7645733055555556,0.2475433788888889,-1.2910461,-0.82069397,-0.014465332
710,1778289899150,-0.0987528231111111,0.7597993444444444,0.2501604733333333,-1.346967933333333,-0.8861457044444445,0.0253160273333333
711,1778289899160,-0.1071594177777777,0.7609928666666667,0.2610889466666666,-1.4652150666666666,-0.8586832666666667,0.0778706866666666
712,1778289899170,-0.0727967098,0.75672392,0.321533302,-1.90836488,-0.48258056,0.223321536
713,1778289899180,-0.0024313135555555,0.7491148888888889,0.3808940322222222,-2.084493,-0.2997792566666666,0.2468922966666666
714,1778289899190,0.0591926622222222,0.712044998888889,0.46620516,-2.201963611111111,-0.1796332466666666,0.2350565577777777
715,1778289899200,0.0693895544444444,0.6721553933333334,0.5455105766666666,-2.224929766666667,-0.1350097666666666,0.2110290533333333
716,1778289899210,0.0741754422222222,0.6599127666666667,0.5839221444444445,-2.2087165,-0.0893198666666666,0.18647088
717,1778289899220,0.0582851497777777,0.6369712111111111,0.6087067622222223,-2.0939094333333332,0.0593482088888888,0.1121368399999999
718,1778289899230,0.0295544193333333,0.6240358777777778,0.6016710433333334,-2.0555521999999997,0.12936401,0.0911814366666666
719,1778289899240,-0.0063228313333333,0.6230863666666667,0.5768584233333334,-2.054133133333333,0.2357143822222222,0.0911204016666666
720,1778289899250,-0.0341324013333333,0.623452611111111,0.5483981533333334,-2.1296522444444443,0.3725941911111111,0.1226671044444444
721,1778289899260,-0.0507150351111111,0.6211753133333333,0.5382425655555556,-2.2180074,0.4547932866666666,0.15865072
722,1778289899270,-0.0426069133333333,0.60327742,0.6490988999999999,-2.3286183555555553,0.5557607044444445,0.2195451488888888
723,1778289899280,-0.0262273499999999,0.58658695,0.7216378555555556,-2.385138622222222,0.6685604544444445,0.2571241588888889
724,1778289899290,-0.0050815967499999,0.570533235,0.790733425,-2.38880616,0.8072601340000001,0.269012454
725,1778289899300,0.0360623449999999,0.5361486166666667,0.8627305722222222,-2.2662387111111113,1.039506691111111,0.24298604
726,1778289899310,0.0497294084444444,0.5235935277777778,0.8677743166666666,-2.2095404444444444,1.0753682333333332,0.2230987511111111
727,1778289899320,0.0864595572222222,0.4980623111111111,0.80579725,-1.978791977777778,0.9299621333333334,0.0930260577777777
728,1778289899330,0.0871100738888888,0.4951336088888889,0.779411941111111,-1.916832833333333,0.763665088888889,0.0385725249999999
729,1778289899340,0.012740545,0.4883545199999999,0.7577862466666666,-1.8782484111111113,0.3673892611111111,-0.0106760662222222
730,1778289899350,-0.0895467423333333,0.4708365466666666,0.7734878333333334,-1.8784840444444444,-0.00450982,-0.0208536788888888
731,1778289899360,-0.11338322,0.4644909,0.7835349,-1.8907928000000005,-0.10961914,-0.012329102
732,1778289899370,-0.0705649413333333,0.4520026844444444,0.8999629933333334,-1.9185520000000005,-0.1125267875555555,0.045266044
733,1778289899380,-0.0475827413333333,0.4433522333333333,0.9307956155555556,-1.9209798333333337,-0.0858357746666666,0.0590565986666666
734,1778289899390,0.006530741,0.4344311333333333,0.8935220866666668,-1.8787231,0.1478169746666666,0.0199839273333333
735,1778289899400,0.032442166,0.4213737999999999,0.8565473833333334,-1.8396606333333336,0.2115580266666666,-0.029551189
736,1778289899410,0.035005,0.4153128,0.8494292,-1.8279419,0.19877625,-0.04588318
737,1778289899420,-0.0419283996,0.3431808622222222,0.8483991933333334,-1.6353624333333334,-0.1410471626666666,-0.0651770688888889
738,1778289899430,-0.06920895,0.31830052,0.8447925,-1.57547,-0.2470397999999999,-0.06399536
739,1778289899440,-0.1142910744444444,0.3102870888888889,0.8090785444444444,-1.5061153777777778,-0.733927391111111,0.0306379535555555
740,1778289899450,-0.1187116133333333,0.3152492666666666,0.8305556333333333,-1.5513254666666667,-0.7954813533333334,0.0835520419999999
741,1778289899460,-0.1174102349999999,0.31598136,0.8405213,-1.5749359,-0.78660583,0.09953308
742,1778289899470,-0.0767204766666666,0.3086868977777778,0.8294441666666666,-1.6995154555555554,-0.6487087577777778,0.1223110633333333
743,1778289899480,-0.0184852726666666,0.2997924133333333,0.8497148800000001,-1.9165395333333335,-0.42370096,0.1341451033333333
744,1778289899490,0.0599530904444444,0.2540863855555555,0.9266192866666666,-2.1988983555555555,-0.0675472686666666,0.0861562088888888
745,1778289899500,0.0795041811111111,0.2251930244444444,0.9442995277777776,-2.2199012,-0.0375400117777777,0.0524190261111111
746,1778289899510,0.0653483673333333,0.1952544266666666,1.002900583333333,-2.1736196000000003,-0.140513102,0.0143025716666666
747,1778289899520,0.0408617186666666,0.1600285566666666,1.0912895666666664,-2.0360310666666668,-0.28112792,-0.0055796306666666
748,1778289899530,0.0320622938888888,0.1442193155555555,1.1239659222222222,-1.9634772,-0.3323804933333333,-0.0121476917777777
749,1778289899540,-0.0328033666666666,0.1051840255555555,1.1405627333333337,-1.7114766666666668,-0.32907104,0.0059661866666666
750,1778289899550,-0.0658531,0.08705598,1.14974195,-1.62394411,-0.2211029018,0.0489868167
751,1778289899560,-0.0209667049333333,0.0966965433333333,1.1428677,-1.5512034222222222,0.0850321462222222,0.1318444171111111
752,1778289899570,0.0397221048666666,0.1102013233333333,1.1517347,-1.5467072,0.2811584466666667,0.14321391
753,1778289899580,0.060019456,0.11439114,1.1577952,-1.5467072,0.33566284,0.14215088
754,1778289899590,0.1003708193333333,0.1002078464444444,1.1762892666666669,-1.4827948555555557,0.4075113955555556,0.1094699455555555
755,1778289899600,0.100574236,0.097509516,1.1535239666666668,-1.3979322222222224,0.4616021088888888,0.0583292655555555
756,1778289899610,0.0267199034444444,0.1061739622222222,1.001421908888889,-1.3258514,0.5728556233333334,-0.044652303
757,1778289899620,-0.0074754069999999,0.1008322644444444,0.955376611111111,-1.3834363777777776,0.6552971666666667,-0.0695020883333333
758,1778289899630,-0.0308915728888888,0.0880194811111111,0.9334659111111112,-1.4316711,0.72395325,-0.07836914
759,1778289899640,-0.0647882422222222,0.0478305731111111,0.9546177333333332,-1.5598500333333334,0.6768459722222222,-0.0701548262222222
760,1778289899650,-0.0774651866666666,0.026570408,1.0345059333333333,-1.6207478666666666,0.5623931833333333,-0.0485483803333333
761,1778289899660,-0.0497245699999999,0.0168893993333333,1.1403458666666666,-1.5571899333333334,0.3816477433333334,-0.0204925536666666
762,1778289899670,-0.0260920266666666,0.0113437656666666,1.169036188888889,-1.4716169666666667,0.2036336255555555,-0.0180087617777777
763,1778289899680,-0.016980652,0.008469327,1.1706089,-1.4311371,0.116760254,-0.022979736
764,1778289899690,-0.0377861115,0.010910578,1.1692664499999998,-1.20183565,-0.23719025,-0.037361145
765,1778289899700,-0.0447627418888888,0.0129854381111111,1.1525756666666664,-1.1330939333333334,-0.2987111466666666,-0.0418599433333333
766,1778289899710,-0.0899406162222222,-0.0208315554444444,1.014072901111111,-1.0278066444444445,-0.5195719444444444,-0.0075344506888888
767,1778289899720,-0.09606867,-0.0320444925555555,0.9788342688888888,-1.0378062,-0.5814785555555555,0.0185665554
768,1778289899730,-0.04028743975,-0.030839745375,0.99424794,-1.1698685,-0.672748575,0.0571784952499999
769,1778289899740,-0.0197866511,-0.042051105,1.01789028,-1.25535585,-0.71575928,0.065437315
770,1778289899750,-0.0016214269,-0.0581413828571428,1.065873128571429,-1.3346448714285712,-0.7198682485714285,0.0625457757142857
771,1778289899760,0.0280491053571428,-0.0751213685714285,1.1943869,-1.342871557142857,-0.6399819514285714,0.0470210487142857
772,1778289899770,0.0339761904285714,-0.0774225185714285,1.2133536142857142,-1.3345010142857143,-0.6268179742857143,0.0429905485714285
773,1778289899780,0.0545989984285714,-0.0930586078571428,1.2648144714285716,-1.1356702714285716,-0.6111362857142858,0.0085994174285714
774,1778289899790,0.0465566743333333,-0.1007064449999999,1.2517168333333335,-0.9491017666666668,-0.6030171666666666,-0.0054066977333333
775,1778289899800,0.0353437375555555,-0.1037576853333333,1.2235825222222223,-0.8674926666666667,-0.6039649166666666,-0.0046963163555555
776,1778289899810,-0.0043298046666666,-0.1147666903333333,1.1001039222222222,-0.7875383166666667,-0.6164025244444444,0.0470954049777777
777,1778289899820,-0.009699329,-0.1159054388888888,1.0786405222222222,-0.7886030377777778,-0.6137966566666666,0.0612996424444444
778,1778289899830,0.0242253362222222,-0.1143733366666666,1.0828022555555554,-0.8981408066666666,-0.4708624911111111,0.1082848477777777
779,1778289899840,0.0787050349999999,-0.1190102511111111,1.130095688888889,-1.0349680666666667,-0.2355567077777778,0.1237962511111111
780,1778289899850,0.1027990222222222,-0.1232406822222222,1.1588129666666669,-1.092200388888889,-0.1128743507333333,0.1163414816666666
781,1778289899860,0.0812400397777777,-0.1508466622222222,1.2504151444444445,-1.1458180777777778,0.1759897829777778,0.0972239166666666
782,1778289899870,0.0715044173333333,-0.162127,1.2859125,-1.1316172444444446,0.2906256777777777,0.0971069311111111
783,1778289899880,0.105109252,-0.155439612,1.34696425,-1.00704803,0.5275772080000001,0.0773696892
784,1778289899890,0.1247088411111111,-0.1500870955555555,1.369691922222222,-0.94169955,0.6268378322222222,0.0607079393333333
785,1778289899900,0.1286819333333333,-0.1424812033333333,1.355727033333333,-0.8031565333333334,0.6811625133333332,0.0073852533333333
786,1778289899910,0.0813622277777777,-0.1550501355555555,1.2545240666666666,-0.4518025688888889,0.70844522,-0.1135304777777777
787,1778289899920,0.0619055013333333,-0.1634563844444444,1.2321519555555556,-0.4188995333333333,0.6890919888888889,-0.1210462795555555
788,1778289899930,-0.0247894393333333,-0.1667646133333333,1.2333720666666668,-0.3584137066666666,0.5987803,-0.0963134786666666
789,1778289899940,-0.0466055838888888,-0.1660323477777777,1.245046433333333,-0.3400082155555555,0.5707888911111111,-0.0824076355555555
790,1778289899950,-0.050781745,-0.16944876,1.2484629,-0.33337402,0.56044006,-0.07785034
791,1778289899960,-0.0524092444444444,-0.1589684411111111,1.2576013555555556,-0.2237192777777777,0.2806854233333333,-0.0208519825955555
792,1778289899970,-0.052585355,-0.1518092999999999,1.246551211111111,-0.1683213977777777,0.1417863633333333,0.0115203859733333
793,1778289899980,-0.0349045867777777,-0.1476331355555555,1.250456411111111,-0.1254679355555555,0.1145646833333333,0.02075704
794,1778289899990,-0.0157114194,-0.151413534,1.28067834,-0.037498473,0.11542511,0.0084457402
795,1778289900000,-0.0323566153333333,-0.1547649766666666,1.3077694333333334,0.1092427546666666,0.0901285799999999,-0.0075327555333333
796,1778289900010,-0.0458337417777777,-0.1512260244444444,1.3002578555555555,0.2444186733333333,0.0669877777777777,-0.0129224987777777
797,1778289900020,-0.05066042,-0.14894818,1.2880003,0.31378174,0.05870056,-0.0155334469999999
798,1778289900030,-0.0610325633333333,-0.1375183366666666,1.1998141666666668,0.4561767599999999,0.0157267253333333,-0.0176544186666666
799,1778289900040,-0.0618465716666666,-0.13581047,1.1361155333333333,0.5417531333333333,-0.0648854596666666,-0.0078938800666666
800,1778289900050,-0.0595554186666666,-0.1357019366666666,1.0970116666666667,0.5956624333333332,-0.1592848033333333,0.0079108340888888
801,1778289900060,-0.0547283951111111,-0.1382236422222222,1.0699755222222225,0.6069030733333334,-0.20035807,0.020345052
802,1778289900070,-0.051148828,-0.14028442,1.0527289,0.60832214,-0.2118988,0.024963379
803,1778289900080,-0.0257123285555555,-0.1349829888888888,1.008242477777778,0.58885362,-0.2259809688888888,0.0259077284444444
804,1778289900090,-0.0082214948888888,-0.1322983133333333,0.9817216555555556,0.571338231111111,-0.2387017166666666,0.0275590682222222
805,1778289900100,0.00120203782,-0.1423338519999999,1.0310081800000002,0.45715942,-0.304040532,0.0162170408
806,1778289900110,0.0107888224222222,-0.1503306033333333,1.0891343,0.4430864111111111,-0.3057539233333333,-0.0007934569999999
807,1778289900120,0.0138526776666666,-0.1542361233333333,1.1403048999999998,0.4790700333333333,-0.29249573,-0.0192565923333333
808,1778289900130,0.0073304054444444,-0.1518637444444444,1.1596796111111112,0.540742661111111,-0.2537926588888888,-0.0266587998888888
809,1778289900140,0.0023955381555555,-0.1505350577777778,1.159679988888889,0.5655975388888889,-0.2341461188888888,-0.0267774792222222
810,1778289900150,0.0097852231333333,-0.14375511,1.1491859111111111,0.6219397888888889,-0.21496582,-0.0232764352222222
811,1778289900160,0.0204430426666666,-0.1306034066666666,1.1459324333333332,0.6475677555555556,-0.1810506222222222,-0.0232764351111111
812,1778289900170,0.0266258853333333,-0.12283454,1.1506371,0.6601715,-0.149922692,-0.0275980626666666
813,1778289900180,0.0308556253333333,-0.11510508,1.165361833333333,0.7024281666666666,-0.075358072,-0.0481872553333333
814,1778289900190,0.024753924,-0.11587735,1.1718905000000002,0.7305679300000001,-0.06754303,-0.0522689815
815,1778289900200,-0.0015099793333333,-0.1084068766666666,1.1718020777777778,0.8017951355555556,-0.1052483444444444,-0.0294308131111111
816,1778289900210,-0.0081540933333333,-0.1014385406666666,1.1699576333333337,0.8357645666666667,-0.1217041,-0.0068308512666666
817,1778289900220,-0.008316895,-0.099039026,1.169632,0.8448181,-0.12561035,0.0015106201
818,1778289900230,0.0018530383333333,-0.0946319671111111,1.183326722222222,0.8636338933333333,-0.0883755146666666,0.0173238120222222
819,1778289900240,0.0121448136666666,-0.0894656855555555,1.1967908888888887,0.87582906,-0.0468834768888888,0.0230662031111111
820,1778289900250,0.0229643983333333,-0.0731685633333333,1.2228775333333333,0.9151255333333334,0.1101837173333333,0.0068410238
821,1778289900260,0.0153982586666666,-0.0711350933333333,1.2252366,0.9303945,0.14657593,0.0018717447666666
822,1778289900270,-0.0020122106666666,-0.0529116493333333,1.2371958666666665,1.006200166666667,0.1039699988888888,0.0195736350666666
823,1778289900280,-0.0022965090222222,-0.042402978,1.230701088888889,1.090235388888889,0.0503540039999999,0.0417090511111111
824,1778289900290,0.00282559789,-0.0390237682,1.2120006,1.1148529,0.034729004,0.04786682
825,1778289900300,0.0113717638666666,-0.0121945871333333,1.1936318333333331,1.1445058333333331,0.0420023603333333,0.0539042153333333
826,1778289900310,0.0205641944444444,0.0018124241333333,1.2084647333333334,1.1751607555555554,0.062182956,0.0466223815555555
827,1778289900320,0.0378923993333333,0.0110326793333333,1.2383754,1.2336324,0.1504872666666666,0.0270945233333333
828,1778289900330,0.0483459386666666,0.0228285573333333,1.2487480666666666,1.2968444666666668,0.2467193633333333,-0.0043436679999999
829,1778289900340,0.0472555804,0.028409344,1.24536384,1.33755797,0.271966555,-0.0217102044
830,1778289900350,0.0129572675333333,0.0334039399999999,1.213278,1.4429050222222222,0.1796671566666666,-0.0352918822222222
831,1778289900360,0.0018120782999999,0.03409507,1.2048984,1.4605408,0.15563965,-0.0357666
832,1778289900370,-0.0187970508555555,0.0370248122222222,1.1827711111111112,1.493676088888889,0.09266493,-0.0210910373333333
833,1778289900380,0.0164016855555555,0.0704199411111111,1.1796661555555557,1.5269962,-0.0013207332333333,0.0015716551111111
834,1778289900390,0.02377789,0.07595175,1.188669,1.5494843,-0.044647217,0.0068359375
835,1778289900400,0.0401702418888888,0.0884252744444444,1.147897811111111,1.6172485111111112,-0.0715094685555555,-0.0279591881666666
836,1778289900410,0.0402922565555555,0.0939161235555555,1.1151129333333334,1.626244411111111,-0.0690188955555555,-0.0478464765555555
837,1778289900420,0.0287271008888888,0.1207219222222222,1.1257970555555556,1.6347063000000002,-0.0841759588888889,-0.0685543464444444
838,1778289900430,0.0227606373333333,0.1354604999999999,1.1396132333333333,1.6548275666666667,-0.09340583,-0.0754174099999999
839,1778289900440,0.023410808,0.13586698,1.1393695,1.6656036,-0.09257507,-0.07624817
840,1778289900450,0.0164829136666666,0.1551477788888889,1.0743279888888888,1.8189357888888888,-0.0528649223333333,-0.0922834622222222
841,1778289900460,0.014665996,0.15813058,1.0581660333333334,1.8344421,-0.052627563,-0.09275818
842,1778289900470,0.0142602006666666,0.1854111266666666,1.0351162333333332,1.8953501,-0.0829925546666666,-0.083699544
843,1778289900480,0.0102337056666666,0.1936683966666666,1.0306827333333333,1.9429287,-0.1457265233333333,-0.0711551248888889
844,1778289900490,-0.0148243043333333,0.1989568633333333,0.9819530666666666,1.9819844333333336,-0.2339019766666666,-0.0318654379999999
845,1778289900500,-0.0115563415555555,0.2116478066666666,0.9490864333333332,1.9858890111111112,-0.2536129422222222,-0.0075395371111111
846,1778289900510,0.0076432197777777,0.2316057266666666,0.9038544911111112,1.950854833333333,-0.2053273555555555,0.0028771295555555
847,1778289900520,0.0261944088,0.25081808,0.849893392,1.84797364,-0.11143494,0.0088653567999999
848,1778289900530,0.0338391163333333,0.26014706,0.8680183888888889,1.773364622222222,-0.0565372055555555,0.0065477159999999
849,1778289900540,0.0489432261111111,0.2747492777777778,0.9172092555555555,1.7497558777777775,0.0350748677777777,-0.0035163031111111
850,1778289900550,0.074623409,0.2883620666666667,0.9431061666666668,1.7705332666666669,0.1668785955555555,-0.032748752
851,1778289900560,0.0795857553333333,0.29173839,0.9302121666666668,1.7891744333333333,0.24831136,-0.0615081786666666
852,1778289900570,0.0485901419999999,0.31305299,0.8962072999999999,1.8055013,0.26428222,-0.0913340253333333
853,1778289900580,0.0309368524444444,0.3260291033333333,0.8912174555555556,1.8182237444444445,0.2486012766666666,-0.0950046117777777
854,1778289900590,0.0048218394,0.3301783,0.8569544,1.8365766888888888,0.2651740211111111,-0.0757700601111111
855,1778289900600,-0.0145159139599999,0.345341376,0.829905138,1.8360443,0.273880005,-0.0466842649999999
856,1778289900610,-0.021007665,0.3551518,0.82209563,1.8291168,0.26483154,-0.032043457
857,1778289900620,-0.0168990779999999,0.3902693133333333,0.7353460666666667,1.7397512222222222,0.2045728911111111,0.0137752958222222
858,1778289900630,-0.013482658,0.4030961,0.7001742888888889,1.674179111111111,0.19332886,0.0281016033333333
859,1778289900640,-0.0009529612555555,0.4284373444444445,0.7369056377777777,1.5311940333333334,0.1733907066666666,0.042002361
860,1778289900650,0.0074942441555555,0.4378342444444444,0.7951263155555556,1.503089011111111,0.1288282611111111,0.0474514444444444
861,1778289900660,0.0124837243333333,0.4427430244444444,0.83295476,1.5219115888888888,0.1171095122222222,0.0460306811111111
862,1778289900670,0.019067419,0.46507666,0.860973048,1.58282778,0.214648436,0.0151519777999999
863,1778289900680,0.019140628,0.4701177444444445,0.8781197,1.612038522222222,0.2367689311111111,0.0028805205333333
864,1778289900690,0.0074398043444444,0.4618461511111111,0.8748520777777778,1.7785763333333335,0.2458258744444444,-0.0128665502888888
865,1778289900700,0.0081452792444444,0.4760833577777778,0.7934179333333333,1.850721588888889,0.1936272511111111,-0.0200263133333333
866,1778289900710,0.0045657117777777,0.4976419888888889,0.7130687911111111,1.8729163444444443,0.1433817522222222,-0.0224507653333333
867,1778289900720,-0.0130886148888888,0.5360803888888889,0.6049652555555556,1.8067508222222224,0.0754987927777777,-0.0042860242222222
868,1778289900730,-0.0096172364,0.5407446111111112,0.5822137777777778,1.7852088,0.0752614336666666,-0.0040486653333333
869,1778289900740,-0.0224713265999999,0.5774883666666667,0.4693106633333334,1.5990193333333331,-0.0135701486666666,-0.0054016113333333
870,1778289900750,-0.0300983879999999,0.6036024999999999,0.436241135,1.46080015,-0.0691451999999999,-0.0014038086
871,1778289900760,-0.0056849312888888,0.6195209733333333,0.5553407288888889,1.2366010777777778,-0.0735253233333333,-0.0103742811888888
872,1778289900770,0.0003748591666666,0.60814595,0.6624006155555555,1.2311553666666666,-0.0609792066666666,-0.0185394286666666
873,1778289900780,0.0012289641666666,0.6036445333333333,0.6939653444444445,1.2435234555555554,-0.0540551066666666,-0.0227406818888888
874,1778289900790,0.0065894768714285,0.59994192,0.7382609285714284,1.357973371428571,-0.0240238739428571,-0.0382734022857142
875,1778289900800,0.016089389,0.6080365333333333,0.7321595,1.4646276166666663,0.0064926146666666,-0.051651
876,1778289900810,0.0050464045,0.6324324499999999,0.5969979375,1.52845005,0.068283082,-0.074386595
877,1778289900820,-0.0094953941333333,0.6542857666666666,0.5068950666666666,1.52889,0.11408488,-0.0911661766666666
878,1778289900830,-0.0306886746666666,0.6786101333333333,0.4488909333333333,1.4653252666666663,0.1192966013333333,-0.0912814655555555
879,1778289900840,-0.04721280875,0.7112318,0.423304605,1.2722511,0.138851164,-0.063728332
880,1778289900850,-0.031542089,0.7230285799999999,0.4373382466666666,1.1800164111111109,0.1529083266666666,-0.0536939826666666
881,1778289900860,-0.0014145791222222,0.7321266577777777,0.4843058799999999,1.0798848333333335,0.1382293733333333,-0.0522766113333333
882,1778289900870,0.0092565487555555,0.7354077511111111,0.5072339822222223,1.0386962666666666,0.115509034,-0.0579630536666666
883,1778289900880,0.0131347593333333,0.737550088888889,0.5186778244444444,1.0318298222222222,0.111133152,-0.0628746884444444
884,1778289900890,-0.0176628642,0.7476940000000001,0.5201961940000001,1.0237732,0.173526,-0.09606018
885,1778289900900,-0.0296709039999999,0.7452375666666666,0.5133620333333333,1.0220032,0.1904296866666666,-0.0980834966666666
886,1778289900910,-0.0380776688888888,0.7490884788888889,0.5110847222222222,1.0095113444444446,0.2708062044444444,-0.0950690366666666
887,1778289900920,-0.04146782,0.7613456233333333,0.5060406333333334,1.0019327933333333,0.3271484333333333,-0.0883178699999999
888,1778289900930,-0.0440441338888888,0.7675690777777777,0.5010508066666666,0.9985588955555555,0.3446061833333333,-0.0825754793333333
889,1778289900940,-0.063351195,0.7768429133333333,0.4806590866666667,0.9797465133333334,0.31063335,-0.039148966
890,1778289900950,-0.064205125,0.78017828,0.48346561,0.9753113,0.270416265,-0.0181961055
891,1778289900960,-0.0693582655555555,0.7861307688888889,0.5105830266666667,0.9990946333333331,0.1803181966666666,0.026738485
892,1778289900970,-0.06794801,0.7947817333333334,0.5394362666666667,1.0354919666666669,0.1208394366666666,0.0604705789999999
893,1778289900980,-0.0529386113333333,0.8060891666666666,0.5535508,1.089289333333333,0.0915374766666666,0.0807088206666666
894,1778289900990,-0.0319496117777777,0.8135730444444444,0.5348668000000001,1.1352793333333333,0.0721842466666666,0.080357872
895,1778289901000,-0.0131026146666666,0.8190913955555555,0.5048613055555555,1.1485392444444444,0.0679236533333333,0.0749138758888889
896,1778289901010,-0.005672142,0.83769502,0.4223697833333333,1.1309611,0.0793490944444444,0.0338321263333333
897,1778289901020,-0.0112042953333333,0.84290105,0.4028454866666667,1.1075235666666667,0.0836113833333333,0.0112219919777777
898,1778289901030,-0.0273932326666666,0.8413549833333334,0.3947914733333333,1.0833774,0.1127200655555555,-0.0091976587111111
899,1778289901040,-0.0351624094,0.8488807899999999,0.36751406,1.05068205,0.12020874,-0.0155258175
900,1778289901050,-0.0428506,0.86023015,0.33690968,1.0227203,0.11302185,-0.017120361
901,1778289901060,-0.0341458816666666,0.8681618133333333,0.3578981733333333,0.9703962777777778,0.0418260372222222,-0.0013241238888888
902,1778289901070,-0.02417971,0.8671855133333334,0.3623726333333333,0.9639435,0.0153706870666666,0.0034688314
903,1778289901080,-0.0118413314444444,0.8739504233333334,0.3413293644444444,0.9635874333333332,-0.0070088702666666,-0.0075378416666666
904,1778289901090,0.0008497843222222,0.8829264677777778,0.3351330455555555,0.9430491088888888,0.0227661129999999,-0.0335727266666666
905,1778289901100,0.0035073264533333,0.8848113066666667,0.3357702555555555,0.9365980355555557,0.035491943,-0.0416208902222222
906,1778289901110,-0.012770096956,0.882901798,0.35008763,0.937487796,0.0676391611999999,-0.0650604256
907,1778289901120,-0.0185125796666666,0.8831971166666667,0.3528813944444444,0.94695536,0.0742017944444444,-0.06961738
908,1778289901130,-0.0201941743333333,0.89464095,0.31502529,0.9552459666666668,0.1304219566666666,-0.0940043133333333
909,1778289901140,-0.0302279216666666,0.9093662444444444,0.2592718655555555,0.9396854,0.1852264411111111,-0.1199815555555555
910,1778289901150,-0.0396242873333333,0.9173933277777778,0.2243176777777777,0.919031788888889,0.2075992155555555,-0.13205126
911,1778289901160,-0.0772619406666666,0.9240090833333334,0.15264544,0.7915497,0.1790618866666666,-0.1371510799999999
912,1778289901170,-0.088000126,0.92514765,0.13861233,0.7526703,0.16148376,-0.13591003
913,1778289901180,-0.1137490928888888,0.9325653166666668,0.1391548277777777,0.6371510866666666,0.1025509288888888,-0.1117604566666666
914,1778289901190,-0.133176096,0.948065376,0.141907048,0.5185775749999999,0.0437850935,-0.086105345
915,1778289901200,-0.1356326399999999,0.9491064933333332,0.19059642,0.4643317311111111,-0.0169355601111111,-0.0622253404444444
916,1778289901210,-0.1189286791111111,0.9282810044444444,0.3000151755555555,0.4055141844444445,-0.14868164,0.0289204928888888
917,1778289901220,-0.1010444922222222,0.9230741111111112,0.3157704999999999,0.4178229444444444,-0.1749606644444444,0.0447828515555555
918,1778289901230,-0.0474463793333333,0.9225049666666668,0.3583855466666666,0.4945119266666667,-0.2055002866666666,0.0579884846666666
919,1778289901240,-0.014255535,0.9263282166666666,0.35586366,0.56595357,-0.1292741544444444,0.0429467092222222
920,1778289901250,0.0052151911111111,0.9323071444444444,0.3258317288888889,0.6043667277777778,-0.0480160175555555,0.0141296386666666
921,1778289901260,-0.0125471519999999,0.9414195333333334,0.3093718,0.6315917833333333,0.0088043213333333,0.0024108887033333
922,1778289901270,-0.0242538522,0.941293635,0.292064089,0.6440719500000001,0.0274322513,0.0029586791385
923,1778289901280,-0.0333318726666666,0.9446735133333332,0.2344870799999999,0.6337127666666666,-0.0189005533333333,0.013946533
924,1778289901290,-0.0401113102222222,0.9527546877777778,0.2157487944444444,0.6227620355555555,-0.0418107776666666,0.0166117348888888
925,1778289901300,-0.0445994233333333,0.9548429333333333,0.18864384,0.5660145933333334,-0.0612792986666666,0.0279795328888888
926,1778289901310,-0.0297523053333333,0.9512633533333336,0.1967388266666666,0.5188496666666667,-0.0748240166666666,0.0304616293333333
927,1778289901320,-0.0076516886666666,0.9485240622222224,0.2265689,0.499549,-0.070317584,0.0162540015111111
928,1778289901330,-0.0019560421911111,0.9498524366666666,0.2309337888888889,0.4850463844444444,0.013778687,-0.0231001112666666
929,1778289901340,-0.0008710419599999,0.94979817,0.2307436799999999,0.48208618,0.0294036869999999,-0.029373169
930,1778289901350,-0.0200438159451111,0.9556554155555556,0.2099183455555555,0.4920315166666666,0.0342491991111111,-0.0592583544444444
931,1778289901360,-0.0441379753333333,0.9599668777777778,0.2166295144444444,0.5013834666666667,0.0190955266666666,-0.0766550682222222
932,1778289901370,-0.0622528822222222,0.9618921444444444,0.2265272477777777,0.5119171166666666,0.0141245526666666,-0.0781962053333333
933,1778289901380,-0.083485635,0.95792556,0.202385038,0.5393478349999999,-0.0485809302,-0.0489150999
934,1778289901390,-0.0864692311111111,0.958286488888889,0.1808077355555555,0.5465393,-0.1108618811111111,-0.0246429445555555
935,1778289901400,-0.0764088744444444,0.9652276833333332,0.1578792933333333,0.5319824333333333,-0.1818796766666666,0.0068410236666666
936,1778289901410,-0.07388665,0.9682652566666666,0.1429644199999999,0.5094350266666666,-0.2010650666666666,0.0278015126666666
937,1778289901420,-0.07408989,0.96883506,0.13812391,0.50180054,-0.1953888,0.03135681
938,1778289901430,-0.0614533927777777,0.9734859888888888,0.1395884533333333,0.4374084488888889,-0.1580386655555555,0.026143392
939,1778289901440,-0.061399125,0.9738389,0.14349328,0.43148804,-0.15330505,0.023895264
940,1778289901450,-0.0577982985,0.9865289,0.135989085,0.39766694,-0.131462098,0.0190963745
941,1778289901460,-0.051758037,0.9971994333333332,0.1246200033333333,0.37254842,-0.1160176606666666,0.0134124753333333
942,1778289901470,-0.046633407,0.9990976,0.1209192899999999,0.3665161,-0.11282349,0.011642456
943,1778289901480,-0.050767357125,0.9939419,0.078895014,0.329561225,-0.09217644,0.00365066525
944,1778289901490,-0.052531779,0.989050511111111,0.0501958661111111,0.2938944444444444,-0.0786048055555555,0.0008680554888888
945,1778289901500,-0.052017925,0.9790540875,0.089542142625,0.153661725,-0.05948638875,0.0326175686249999
946,1778289901510,-0.0560117744285714,0.9765047142857144,0.1214243571428571,0.1260724735714285,-0.034750803,0.0472586494285714
947,1778289901520,-0.04730418825,0.982807125,0.147001935,0.10991668675,0.0216827395,0.05065536475
948,1778289901530,-0.0340119665714285,0.9833732428571428,0.1446267371428571,0.1036158974285714,0.0643354144285714,0.0381971087142857
949,1778289901540,-0.0253459387777777,0.9818912000000002,0.13973794,0.0986514633333333,0.0924360485555555,0.0266164146777777
950,1778289901550,-0.0196243683333333,0.9763597333333331,0.11904758,0.0685882566666666,0.1641591416666666,-0.0183766679666666
951,1778289901560,-0.026173255,0.9772546,0.10468939,0.0555674222222222,0.1854671944444444,-0.0292629662222222
952,1778289901570,-0.0450953949999999,0.972251716,0.102955916,-0.0078216552,0.1457336444,-0.0280944825999999
953,1778289901580,-0.0604086608888888,0.964929548888889,0.1231822733333333,-0.0481177436666666,0.0990007184444444,-0.0162404381111111
954,1778289901590,-0.0672829811111111,0.9618107377777778,0.1328902444444444,-0.0548672148888888,0.0839046894444444,-0.0076005726666666
955,1778289901600,-0.0692499111111111,0.963994558888889,0.1209185942222222,-0.0703769255555555,0.0884043366666666,0.0154910615555555
956,1778289901610,-0.0602201086666666,0.9670048566666666,0.1127833413333333,-0.0802629266666666,0.0884653722222222,0.0188666448888888
957,1778289901620,-0.0465663505555555,0.9724415911111112,0.10356343,-0.0985497388888888,0.0676320393333333,0.0116390655555555
958,1778289901630,-0.0471491197777777,0.9773764666666666,0.0924178966666666,-0.1231638566666666,0.0656178793333333,0.0002797446666666
959,1778289901640,-0.050636158,0.98040252,0.0831135812,-0.140988156,0.0682800288,-0.00476074212
960,1778289901650,-0.0510126413333333,0.979370521111111,0.0701821322222222,-0.2275627955555555,0.0775129524444444,-0.0077158606888888
961,1778289901660,-0.0561106553333333,0.97798721,0.0684462699999999,-0.2690480466666666,0.0960998515555555,-0.0095553926111111
962,1778289901670,-0.0660083875555555,0.96667855,0.0589275455555555,-0.3881717233333333,0.1831529377777777,-0.0065884060111111
963,1778289901680,-0.070591728,0.9653768166666666,0.0733266966666666,-0.4548187233333333,0.2097880066666666,0.0027567545666666
964,1778289901690,-0.07372385,0.96411588,0.1052172033333333,-0.50222778,0.2220408166666666,0.0155436196666666
965,1778289901700,-0.0786182755555555,0.9705289088888888,0.1614051066666667,-0.5874430333333334,0.2280731233333333,0.047149658
966,1778289901710,-0.0635948773333333,0.9807522666666668,0.1809568933333333,-0.6160295277777778,0.2048102511111111,0.0616455088888888
967,1778289901720,-0.0536297426666666,0.9596823833333332,0.22704331,-0.6279805577777777,0.2114393444444444,0.0447794605555555
968,1778289901730,-0.0579824644,0.94150054,0.241336172,-0.62589418,0.220187374,0.0303863528
969,1778289901740,-0.06164333,0.9375958,0.2383093,-0.6241913,0.21528625,0.032943726
970,1778289901750,-0.0503215116666666,0.9607812444444446,0.2696305111111111,-0.6102803555555556,0.2016720222222222,0.0421244304444444
971,1778289901760,-0.0403964716666666,0.968590888888889,0.3077040355555555,-0.5591464444444445,0.20616828,0.0383402504444444
972,1778289901770,-0.0274893233333333,0.9717642999999998,0.3386179033333333,-0.4149288622222222,0.1989000122222222,0.0111643476666666
973,1778289901780,-0.02592957,0.97335048,0.3351608666666666,-0.3575795533333333,0.1719106044444444,-0.0014461939999999
974,1778289901790,-0.0383351766666666,0.9724550633333332,0.3173039966666666,-0.2767384866666666,0.1089426666666666,-0.018722534
975,1778289901800,-0.05814464,0.9736755533333334,0.2817120866666667,-0.2276238311111111,0.05319892,-0.0247599282222222
976,1778289901810,-0.0664508539999999,0.97483902,0.259933858,-0.204165646,0.0193939212,-0.0260772704
977,1778289901820,-0.076489406,0.9706248733333334,0.1948676366666666,-0.2025197366666666,-0.062220258,-0.0167694093333333
978,1778289901830,-0.0726250233333333,0.9702857777777776,0.1642385877777777,-0.2159593388888888,-0.1173197455555555,-0.0083075631555555
979,1778289901840,-0.0638943835555555,0.9499343422222224,0.1023569288888888,-0.25123257,-0.1740197044444444,-0.0089636906222222
980,1778289901850,-0.0616028846666666,0.9453651533333332,0.052745736,-0.2998199533333333,-0.2136688233333333,-0.0022074380666666
981,1778289901860,-0.0540638779999999,0.9468837722222224,0.0254788414,-0.3398844488888889,-0.2363908577777778,0.00116984049
982,1778289901870,-0.0439077724444444,0.92011858,0.0031741182444444,-0.4852905488888889,-0.2338985855555555,-0.0091908773211111
983,1778289901880,-0.0516608755,0.908199022,-0.00262385864,-0.52788851,-0.229087828,-0.0063613891899999
984,1778289901890,-0.0539963049999999,0.8977331333333333,-0.0274694493333333,-0.6811777800000001,-0.2170410166666666,0.0322367348999999
985,1778289901900,-0.0498194511111111,0.8768251877777778,-0.033096482,-0.8186035044444444,-0.1917707633333333,0.0638410773333333
986,1778289901910,-0.0465921033333333,0.8740589433333334,-0.0304660735555555,-0.8664211555555555,-0.1761457633333333,0.0739050966666666
987,1778289901920,-0.0070141352222222,0.8634286111111111,-0.018031951,-1.0366906333333334,-0.0580834288888888,0.0647905133333333
988,1778289901930,0.001202349,0.8580323,-0.016730227,-1.0609589,-0.03453064,0.05744934
989,1778289901940,-0.0318270784444444,0.835973,0.0048278880555555,-1.1042735,0.003829956,0.0485687253333333
990,1778289901950,-0.04679621,0.8237029,0.0304543228333333,-1.238856,0.0389912913333333,0.0427144366666666
991,1778289901960,-0.0495750751111111,0.807174511111111,0.0546300577777777,-1.333011188888889,0.0689375122222222,0.0395151768888888
992,1778289901970,-0.0435584736,0.79110018,0.068629397,-1.36951145,0.09197998,0.035449218
993,1778289901980,-0.0401393055555555,0.7852088611111111,0.0735173251111111,-1.3865746888888888,0.1007063122222222,0.0323571093333333
994,1778289901990,-0.038376138,0.7700503166666667,0.084309602,-1.4423201,0.1347978377777777,0.0224202475555555
995,1778289902000,-0.04150826,0.7648028,0.08699376,-1.4700165,0.15776062,0.019104004
996,1778289902010,-0.0361394273333333,0.76760882,0.059415948,-1.707980688888889,0.3549567344444445,0.0019276936444444
997,1778289902020,-0.0195429673333333,0.7608162366666666,0.066982089,-1.9058838,0.47059121,-0.0192515052
998,1778289902030,-0.0125466333333333,0.7490203599999999,0.0989130333333333,-1.9760131999999997,0.5034332,-0.027236938
999,1778289902040,-0.0141604804444444,0.70823608,0.2601261344444444,-2.2198368,0.4602932433333333,-0.0316280792222222
1000,1778289902050,-0.0150687665,0.7006568,0.295582125,-2.2578608333333334,0.4460907016666666,-0.0339965825
