id,timestamp,acc_x,acc_y,acc_z,gyro_x,gyro_y,gyro_z
0,1778289919570,0.072617075,0.1224574361111111,1.062274588888889,-0.0417344831111111,-0.0487230087777777,-0.0908118353333333
1,1778289919580,0.064825939375,0.118813425625,1.0642762375,-0.051748275,0.040847777625,-0.102550506
2,1778289919590,0.0455942088888888,0.0806837175555555,0.9954298355555556,-0.0713144933333333,0.2332153333333333,-0.11512756
3,1778289919600,0.024713742,0.0768870813333333,0.9739804533333332,-0.084991455,0.23215739,-0.10731506
4,1778289919610,0.0111115397,0.0777695805,0.973569825,-0.09624939,0.214227294,-0.0949951144
5,1778289919620,-0.0296577681111111,0.0660267033333333,1.0167031555555557,-0.1263563377777777,0.1702457,-0.0265435108888888
6,1778289919630,-0.0281305715,0.062421819,1.028795825,-0.12338256875,0.14777183625,-0.0080070492375
7,1778289919640,0.0087544903333333,0.0158723201222222,1.0506542666666667,-0.045218574,0.0071411134444444,0.0614200197111111
8,1778289919650,0.0440211473333333,0.0603723673999999,1.0115923444444443,0.0556284606666666,-0.1659037256666666,0.0476837173333333
9,1778289919660,0.0094326586,0.1136313966666666,0.9371683666666666,0.072850546,-0.3299509666666667,-0.0100250246666666
10,1778289919670,-0.0175769010666666,0.1304172677777778,0.985505288888889,-0.0335625541111111,-0.2991214344444444,-0.0033348931111111
11,1778289919680,-0.0104720333333333,0.1257800077777777,0.9958910888888888,-0.0733337394444444,-0.2606557233333333,0.0055423313333333
12,1778289919690,0.0501766806666666,0.0787038255555555,1.018004711111111,-0.1251135911111111,-0.1786244733333333,-0.01890564
13,1778289919700,0.0585016986666666,0.07260273,1.0352243555555556,-0.1142222088888889,-0.1661936466666666,-0.0397321915555555
14,1778289919710,-0.0030559051111111,0.0524947945555555,1.0506414777777775,-0.0867665633333333,-0.1447770877777777,-0.0460662846666666
15,1778289919720,-0.0066893944466666,0.0690362976666666,1.0587493666666663,-0.08357239,-0.1128184006666666,-0.0215606693333333
16,1778289919730,0.0217032885166666,0.09032325,1.0889577555555556,-0.0750478123333333,-0.0702056886666666,-0.013921102
17,1778289919740,0.05379669,0.0873411366666666,1.1164684,-0.0114898683333333,0.0615386953333333,-0.0448150626666666
18,1778289919750,0.0521693633333333,0.0773893099999999,1.1117908666666667,0.0247921411111111,0.1040869811111111,-0.0610894077777777
19,1778289919760,0.0308824127777777,0.0834900599999999,1.098638811111111,0.0955166266666666,0.1378173866666666,-0.0637512188888888
20,1778289919770,0.0171883025,0.09340136,1.06603015,0.160482786,0.150418096,-0.0577026359999999
21,1778289919780,0.0169714922222222,0.0963166733333333,1.0361604222222225,0.1753523077777777,0.1334448955555555,-0.0528021911111111
22,1778289919790,0.0083348688888888,0.0997330933333333,0.9875659244444444,0.1720411522222222,0.0025295686666666,-0.0441029877777777
23,1778289919800,0.004863836,0.10060068,0.98048836,0.17050171,-0.023864746,-0.04374695
24,1778289919810,-0.0122616437777777,0.0975096906666666,1.0152396744444443,0.1357048888888888,-0.321726478,-0.0118577748888888
25,1778289919820,-0.0187970512222222,0.0945809844444444,1.041855522222222,0.12558492,-0.4194386766666667,-0.0002593993333333
26,1778289919830,0.0025446859999999,0.0909606286666666,1.0952766666666665,0.1373036688888888,-0.5101097988888889,0.0112253824444444
27,1778289919840,0.0681687082222222,0.0921133763333333,1.2401100555555555,0.2300991455555555,-0.7056342111111111,0.023662991
28,1778289919850,0.0720738811111111,0.0916522761111111,1.2584416777777778,0.2625291588888889,-0.6567518333333333,0.0166778565555555
29,1778289919860,0.07440487,0.09007545875,1.266111775,0.3296318075,-0.4651565625,0.00365066525
30,1778289919870,0.0800058938888888,0.0918012544444444,1.266768033333333,0.3620758066666666,-0.3692525333333333,-0.0020938449333333
31,1778289919880,0.081741065,0.09266953,1.2657919,0.36917114,-0.3562317,-0.0032806396
32,1778289919890,0.0657023138888888,0.1411150142222222,1.3340320444444442,0.524641251111111,-0.27562459,-0.0239291724444444
33,1778289919900,0.0681429583333333,0.1546196199999999,1.376498088888889,0.5455932577777778,-0.1950174931111111,-0.0246412493333333
34,1778289919910,0.1115847922222222,0.1511212833333333,1.4397222444444444,0.6966281444444444,0.2725118026666667,-0.0450625955555555
35,1778289919920,0.10309663,0.1252516833333333,1.3595902000000002,0.8577118,0.4602372911111111,-0.06032308
36,1778289919930,0.0819364284,0.1509257519999999,1.31333316,0.961032106,0.362078858,-0.0560028084
37,1778289919940,0.0666910531111111,0.1903873111111111,1.2904684222222222,1.00371805,0.2845255566666667,-0.0396677653333333
38,1778289919950,0.0664470206666666,0.1992819533333333,1.2561109333333331,1.0079159,0.2735748311111111,-0.0242207841111111
39,1778289919960,0.0742839804444444,0.1962988077777777,1.2095632111111112,0.999337077777778,0.2458818255555555,-0.0274793826666666
40,1778289919970,0.0730370444444444,0.2068472322222222,1.1963970333333334,0.9836578377777776,0.1864064555555555,-0.0390218094444444
41,1778289919980,0.0673553922222222,0.2398757911111111,1.2596211666666666,0.9634077088888888,0.2190704311111111,-0.0552978504444444
42,1778289919990,0.0431122577777777,0.2454898655555555,1.3245822222222223,0.972291731111111,0.4689975377777777,-0.0774332666666666
43,1778289920000,0.03622446,0.24532741,1.338765,0.97584534,0.5354004,-0.0826416
44,1778289920010,0.0695259177777777,0.2096409566666666,1.3852980666666663,1.1332075,0.8472256333333333,-0.0507354746666666
45,1778289920020,0.0602652166666666,0.1915130833333333,1.3725655666666663,1.2391408333333334,0.8608398333333334,-0.03807068
46,1778289920030,0.0238478849999999,0.2610348214285714,1.1809815142857143,1.4762856285714283,0.5856955285714286,0.0402548642857142
47,1778289920040,0.0477653207142857,0.2963184628571428,1.1096994,1.5019291285714285,0.4002620094285714,0.0404815665714285
48,1778289920050,0.1199362599999999,0.35271287,1.0074564,1.4829102,0.049102783,0.010040283
49,1778289920060,0.054067338,0.33591266,1.0284315888888889,1.3859728000000002,-0.0022735598888888,0.00175645612
50,1778289920070,-0.0068174587142857,0.3051906585714286,1.1795865428571428,1.3251015857142858,0.3516431514285714,-0.0053296770314285
51,1778289920080,0.062338606,0.2725397,1.2655478,1.381307625,1.17136386625,-0.0561370817124999
52,1778289920090,0.0791787486666666,0.2617201,1.2186888,1.4239586888888889,1.197816633333333,-0.0741170222222222
53,1778289920100,0.0350181317777777,0.2705470011111111,1.1941197,1.498592777777778,0.8238457455555555,-0.0739423966666666
54,1778289920110,-0.0744803086,0.267438335,1.21207397,1.57484132,0.4102325409999999,-0.0226119997599999
55,1778289920120,-0.1149697599999999,0.26436278,1.2199082,1.6016846,0.27441406,-0.0016784668
56,1778289920130,-0.1249343733333333,0.23902168,1.2469986666666668,1.6893921,0.13006592,0.1142629033333333
57,1778289920140,-0.1094509155555555,0.2212602122222222,1.2719465555555556,1.728390177777778,0.1821424733333333,0.1526133277777777
58,1778289920150,-0.1155800133333333,0.1952554633333333,1.3338825333333333,1.9505614666666664,0.47770182,0.2161814366666666
59,1778289920160,-0.1040283333333333,0.1956215,1.3429133666666666,2.176337277777778,0.6878560333333333,0.2568342355555555
60,1778289920170,-0.09654411,0.2002992,1.3344938,2.2738647,0.75271606,0.2667694
61,1778289920180,-0.0890992973333333,0.2568790833333333,1.0593591333333334,2.5952267,0.815272011111111,0.29062568
62,1778289920190,-0.092393704,0.2878337333333333,0.9059691666666668,2.6831105666666666,0.75609335,0.3056538933333333
63,1778289920200,-0.0950242833333333,0.37287422,0.68368685,2.598597233333334,0.35306803,0.3209228533333333
64,1778289920210,-0.09101092,0.3915577333333333,0.65971525,2.4876251666666667,0.0659688302666666,0.32678732
65,1778289920220,-0.0913907903333333,0.3850629433333333,0.6904665022222223,2.449039088888889,0.0319366455333333,0.3285641222222222
66,1778289920230,-0.0785781806666666,0.3675320166666667,0.7238206599999999,2.408984733333333,0.2207336471111111,0.3201599111111111
67,1778289920240,-0.062253058,0.37431163,0.6844461,2.3905182,0.3005066,0.31045532
68,1778289920250,-0.034345185,0.4089926229999999,0.612157074,2.28771364,0.357394408,0.314501952
69,1778289920260,-5.806933333333345e-05,0.4571693088888888,0.5365345211111111,2.124972888888889,0.2100847055555555,0.3033430322222222
70,1778289920270,0.0037252598666666,0.4640434533333333,0.5346362033333334,2.0801154444444445,0.1030832966666666,0.2991994233333333
71,1778289920280,-0.0193386867555555,0.4469181577777777,0.5708380266666667,2.010925266666667,-0.3389502688888888,0.2851240333333333
72,1778289920290,-0.033006268,0.44329815,0.5841388799999999,2.0157165333333333,-0.4611612999999999,0.2776082333333333
73,1778289920300,-0.0588091566666666,0.4516373277777778,0.5964224511111111,2.0618150444444443,-0.5708245166666667,0.2579023611111111
74,1778289920310,-0.0489929993333333,0.4634337233333332,0.5686815,2.0685102444444445,-0.4798583999999999,0.2418653733333333
75,1778289920320,-0.039556194,0.46681005,0.5554619,2.0554962,-0.40576172,0.2364196799999999
76,1778289920330,0.0105178316666666,0.49674692,0.4593030199999999,1.982396422222222,-0.1796993655555555,0.1833869077777777
77,1778289920340,0.0146127656666666,0.5081093533333333,0.4289584411111111,1.9267679666666664,-0.1447855599999999,0.1586558033333333
78,1778289920350,0.0017878138,0.54568822,0.392675352,1.81271666,-0.150747678,0.1219024656
79,1778289920360,-0.0169396916666666,0.5654483166666666,0.3847034533333333,1.7600555333333334,-0.1566772433333333,0.1082305906666666
80,1778289920370,-0.025400205,0.56992275,0.37803376,1.734848,-0.16342163,0.10432434
81,1778289920380,-0.0432436031111111,0.6054335888888889,0.3837952466666666,1.6561346888888888,-0.1809946722222222,0.1171061177777777
82,1778289920390,-0.0408164376666666,0.6156710944444445,0.3757000866666666,1.5488382777777778,-0.1470252199999999,0.128706188
83,1778289920400,0.0396690466666666,0.6374048111111111,0.4166076277777777,1.3876834222222223,0.0166219077777777,0.0926632346666666
84,1778289920410,0.0539600113333333,0.6413912133333334,0.4663413366666666,1.3662567333333333,0.085510254,0.0569203693333333
85,1778289920420,-0.0007633716222222,0.6474788411111111,0.5236000544444445,1.3744218333333331,0.1242048513333333,0.0350765655555555
86,1778289920430,-0.0364235519,0.6460689333333334,0.5232468233333334,1.4340769,0.1426747633333333,0.065261842
87,1778289920440,-0.050904624,0.6449708,0.5204398,1.4626617,0.14978027,0.0814209
88,1778289920450,-0.0040564108,0.6848133329999999,0.421487559,1.53510744,0.215283206,0.13361206
89,1778289920460,0.003969117,0.7270009888888889,0.3596609955555555,1.5191243333333333,0.1669921866666666,0.1362762433333333
90,1778289920470,-0.0036518085555555,0.7552849555555556,0.3620743355555555,1.4658033666666668,0.0881059422222222,0.1430291077777777
91,1778289920480,0.0046196336666666,0.7668373333333334,0.40406547,1.4507751666666666,0.049280802,0.1302490233333333
92,1778289920490,0.00742667,0.7727355333333333,0.42700706,1.4584096333333332,0.0499928786666666,0.1155090333333333
93,1778289920500,-0.0014002343777777,0.784151198888889,0.3623188922222222,1.4669342333333333,0.1515452033333333,0.0853169766666666
94,1778289920510,-0.0016036504,0.78705278,0.3326794433333333,1.4546865333333332,0.19006856,0.0769755033333333
95,1778289920520,-0.0094549526222222,0.7965977833333333,0.2427709744444444,1.3560808222222225,0.1481153755555555,0.0817684588888889
96,1778289920530,-0.0286685142222222,0.7994319333333333,0.2180256077777777,1.3209279333333332,0.1362219944444444,0.0853220622222222
97,1778289920540,-0.0379157311111111,0.8048285777777777,0.2037073388888889,1.2690853333333334,0.1282908122222222,0.0976342102222222
98,1778289920550,-0.0162751774444444,0.8567450888888889,0.1510322766666666,1.017211908888889,0.1150343133333333,0.1369883222222222
99,1778289920560,-0.0038279187777777,0.8725271955555556,0.1454731633333333,0.9443020333333334,0.1376444488888889,0.1243235266666666
100,1778289920570,0.0362659363333333,0.8915094977777778,0.1740689166666666,0.7847510333333334,0.1223110644444444,0.0471530492222222
101,1778289920580,0.0364957942222222,0.8911707833333333,0.1857839088888889,0.7098270000000001,0.1223720966666666,-0.008417766
102,1778289920590,0.01003766967,0.8822317309999999,0.2203103019999999,0.6227554399999999,0.122183228,-0.069535827
103,1778289920600,-0.0105390890888888,0.8794414533333333,0.2544446744444444,0.5934041333333333,0.0668640146666666,-0.0897420266666666
104,1778289920610,-0.0152307903333333,0.8802412933333333,0.2561262666666667,0.5871938000000001,0.0194600426666666,-0.0947113066666666
105,1778289920620,-0.0294133926666666,0.9010272222222222,0.2185954122222222,0.5615081766666666,-0.1634792746666666,-0.0822279177777777
106,1778289920630,-0.0321523356666666,0.9077796866666668,0.20503654,0.54973348,-0.2335510266666666,-0.0734100333333333
107,1778289920640,-0.0238546236666666,0.9121732866666667,0.2349744533333333,0.5247073666666666,-0.3960045777777778,-0.0500250922222222
108,1778289920650,-0.0119362124444444,0.924389977777778,0.3224016655555555,0.5323977955555556,-0.4539998444444444,-0.0307328966666666
109,1778289920660,-0.0052651376,0.9334474,0.37620303,0.5525173577777777,-0.4286668622222222,-0.0251736118888888
110,1778289920670,0.0192220293333333,0.9494321,0.3628610333333333,0.6237691133333334,-0.2472229,-0.0345255536666666
111,1778289920680,0.0260828672222222,0.960374222222222,0.3412213533333333,0.6305151944444445,-0.1181504977777777,-0.0474819608888888
112,1778289920690,0.0188293694444444,0.9618656888888888,0.33023827,0.6212802333333334,-0.0193667933333333,-0.0559997559999999
113,1778289920700,0.009988985,0.96078104,0.33007511,0.6184387,0.018753052,-0.0559997559999999
114,1778289920710,0.009988985,0.96078104,0.33007511,0.6184387,0.018753052,-0.055999756
115,1778289920720,-0.0443966973333333,0.96301828,0.2748775066666666,0.5870158,0.161142988,-0.0089569097333333
116,1778289920730,-0.0607344382222222,0.9574593511111112,0.2744978044444444,0.5812801777777777,0.2326897522222221,0.0200415712888888
117,1778289920740,-0.053548342,0.9591136266666668,0.2555159999999999,0.5903981333333334,0.3179117899999999,0.0663299533333333
118,1778289920750,-0.0332779513333333,0.9635740844444444,0.2470288777777777,0.5921088222222222,0.3434210944444444,0.0848541244444444
119,1778289920760,-0.02112899,0.9654178,0.2474630199999999,0.59020996,0.34365845,0.086746216
120,1778289920770,-0.0107705030666666,0.9638457777777778,0.2269071177777778,0.6060757022222222,0.3759646922222222,0.0727216935555555
121,1778289920780,-0.0192173626666666,0.9667611666666668,0.1911252733333333,0.6141866,0.3956705733333334,0.0556742366666666
122,1778289920790,-0.0430538393333333,0.9883194666666666,0.1026139266666666,0.5744221933333332,0.2873738666666667,0.0453796393333333
123,1778289920800,-0.0456028477777777,0.9889829444444443,0.04452787,0.5332336422222222,0.1529727533333333,0.0352037217777777
124,1778289920810,-0.04370453,0.9827453,0.0269556379999999,0.50393677,0.05177307,0.026031494
125,1778289920820,-0.0464977402222222,0.9801695,0.0164613106666666,0.44398329,-0.0313229024444444,0.0239546035555555
126,1778289920830,-0.0471899084444444,0.9717499355555554,-0.0110490977777777,0.3236575644444444,-0.2200503833333333,0.024902344
127,1778289920840,-0.0264575527777777,0.948402222222222,0.0730968363333333,0.2337053066666666,-0.3677690322222222,0.0566270604444444
128,1778289920850,0.0001850963333333,0.9542731333333332,0.0839031133333333,0.1969553633333333,-0.4221038733333333,0.0649058033333333
129,1778289920860,0.0134589802222222,0.9593848055555556,0.0866418838888888,0.1763017455555555,-0.4482048755555555,0.0677439388888889
130,1778289920870,0.0196959182222222,0.9562929666666666,0.0958217055555555,0.0825602222222222,-0.4485490622222222,0.0538465708888888
131,1778289920880,0.0174450353333333,0.9530115333333332,0.0959710266666666,0.06149292,-0.4273630799999999,0.0470987953333333
132,1778289920890,0.0027479300666666,0.9450390333333334,0.08805249,-0.0137973355555555,-0.2855071988888889,0.0305209688888888
133,1778289920900,0.0022329090777777,0.942354538888889,0.082411975,-0.0635138599999999,-0.1747216122222222,0.0201043026666666
134,1778289920910,0.01823744018,0.94006052,0.072106718,-0.118618774,-0.045922854,-0.0014678954
135,1778289920920,0.0281438144444444,0.9292303111111112,0.06322572,-0.2314673533333333,0.1759914833333333,-0.0483178033333333
136,1778289920930,0.0190324397777777,0.922505311111111,0.0690838222222222,-0.2830759666666667,0.2657131633333333,-0.0677269828888888
137,1778289920940,0.0093510846444444,0.92758901,0.0595654445555555,-0.3611331544444444,0.3602210122222222,-0.0861256931111111
138,1778289920950,-0.0132382828666666,0.93002963,0.0457898456666666,-0.4308522566666666,0.39016215,-0.0913340233333333
139,1778289920960,-0.0421051995555555,0.9314939688888888,0.0382781458888888,-0.4968973666666667,0.3864390033333333,-0.083521524
140,1778289920970,-0.0453318571111111,0.930924872222222,0.0396071764444444,-0.5683288499999999,0.3047688799999999,-0.0681966137777777
141,1778289920980,-0.04370453,0.93027437,0.041234504,-0.60928345,0.24298096,-0.0592041
142,1778289920990,-0.04370453,0.93027437,0.041234504,-0.60928345,0.24298096,-0.0592041
143,1778289921000,-0.0350653496,0.932104508,0.0467985956,-0.640812685,0.1728363054,-0.0553146359999999
144,1778289921010,-0.029305896,0.9333246,0.05050799,-0.6641388,0.114089966,-0.05281067
145,1778289921020,-0.0219023847111111,0.9190472844444444,0.0650429828888888,-0.6827240044444445,0.0842624237777777,-0.0516272657777777
146,1778289921030,0.0007139433,0.8865869399999999,0.076337494,-0.75315518,-0.0358886722222222,-0.0524546311111111
147,1778289921040,-0.0004927262444444,0.8874552055555556,0.0344680294444444,-0.8126305466666667,-0.1122250044444444,-0.0527428527777777
148,1778289921050,-0.0150884682499999,0.8868011925,-0.0001652644499999,-0.86787414,-0.1739425675,-0.0588035585
149,1778289921060,-0.0289388129999999,0.88262135,-0.0020873897749999,-0.9717331,-0.2087020899999999,-0.0655975335
150,1778289921070,-0.0540766693333333,0.86901574,0.0150384353499999,-1.1562906666666666,-0.2298278833333333,-0.0805053699999999
151,1778289921080,-0.061276246,0.8640129599999999,0.022930179,-1.2010345,-0.2273407,-0.08529663
152,1778289921090,-0.0672157505555555,0.8362431555555555,0.0805544447777777,-1.4479980222222222,-0.2013549833333333,-0.0709838855555555
153,1778289921100,-0.0589990933333333,0.8274032666666665,0.1156712633333333,-1.5436960666666668,-0.2227223716666666,-0.0559209183333333
154,1778289921110,-0.0514194724444444,0.8085033555555555,0.2139989344444444,-1.6074320666666666,-0.2848052955555555,-0.0277811685555555
155,1778289921120,-0.0491958955555555,0.7996087022222222,0.24372013,-1.6173740222222222,-0.3456403933333333,-0.0091959634444444
156,1778289921130,-0.0476707249,0.791881167,0.252832057,-1.60998842,-0.411837768,0.0100433348
157,1778289921140,-0.0413191891111111,0.7648983777777778,0.2774541544444444,-1.5961863555555555,-0.3811442011111111,0.0462629522222222
158,1778289921150,-0.0343228557777777,0.7603426888888889,0.2761254855555555,-1.5935822,-0.3384162033333333,0.0543128117777777
159,1778289921160,0.002747929,0.7516236666666667,0.2580783299999999,-1.6425832,-0.2074483266666666,0.0608215333333333
160,1778289921170,0.0307740494444444,0.75814525,0.2811554022222222,-1.7428351444444443,0.0271453811111111,0.0318162707777777
161,1778289921180,0.0496075664444444,0.7550819022222223,0.3535735533333333,-1.8838060222222224,0.3459642133333333,-0.0227508548888888
162,1778289921190,0.051966984,0.75199074,0.36753926,-1.9067688000000005,0.3953247,-0.0315094
163,1778289921200,0.0456215133333333,0.7357741444444444,0.4096250999999999,-1.9215037,0.4283447233333333,-0.0467783613333333
164,1778289921210,-0.0060656667777777,0.6993685555555555,0.4668828111111111,-1.915478211111111,0.4584011522222223,-0.0825246182222222
165,1778289921220,-0.033535633,0.67848776,0.4425043533333333,-1.8844096333333331,0.3448944,-0.0647023533333333
166,1778289921230,-0.0421594663333333,0.6565224733333334,0.4065463933333333,-1.8473002,0.159011836,-0.038426718
167,1778289921240,-0.0334272716666666,0.6460011866666666,0.3592137311111111,-1.8425038666666664,0.0116475426666666,-0.016062419
168,1778289921250,-0.0307695569999999,0.6449708,0.34899074,-1.8460541,-0.029190063,-0.009140015
169,1778289921260,-0.0203475393,0.63866163,0.319580928,-2.02223969,-0.221261594,0.00450592048
170,1778289921270,-0.012261816,0.6266393111111112,0.3467253166666666,-2.102773,-0.2718387155555555,0.0090399846666666
171,1778289921280,-0.0133874306666666,0.5885668244444444,0.4748694422222221,-2.3404558,-0.3256412133333333,0.0065511066444444
172,1778289921290,-0.01486561,0.5629813466666668,0.5696856022222223,-2.458458822222222,-0.3042161666666667,-0.0001390245333333
173,1778289921300,-0.014784382,0.55796456,0.5890203,-2.4766846,-0.2949829,-0.0016784668
174,1778289921310,0.020604808,0.5185088111111111,0.6678233888888889,-2.4965752777777777,-0.2634294277777778,-0.0607961011999999
175,1778289921320,0.0292960438888888,0.5046516400000001,0.6979915222222223,-2.485092188888889,-0.2681054011111111,-0.0773688422222222
176,1778289921330,-0.0280039993333333,0.4616423766666667,0.7376916333333333,-2.3817037,-0.2956899,-0.0796203633333333
177,1778289921340,-0.0551758423333333,0.4420366666666667,0.7513991333333333,-2.341523922222222,-0.2975260411111111,-0.0708024777777777
178,1778289921350,-0.054687437,0.4403288,0.7544903,-2.3323517,-0.29605103,-0.06666565
179,1778289921360,-0.036342151,0.4204384666666667,0.8410905333333333,-2.183093588888889,-0.2713080522222222,0.046032378
180,1778289921370,-0.0263220575555555,0.4114487633333333,0.8598697888888888,-2.1287655222222224,-0.2637939466666666,0.08728536
181,1778289921380,-0.0049720942,0.4113834739999999,0.8660253600000001,-2.07870788,-0.26846008,0.134683226
182,1778289921390,0.0361978426666666,0.4152720088888889,0.8876648333333333,-2.0522393222222224,-0.2405954966666666,0.1438005255555555
183,1778289921400,0.0677893566666666,0.4116927999999999,0.9114194066666664,-2.0299886333333337,-0.1556040433333333,0.1101837166666666
184,1778289921410,0.0713822314444444,0.4093608644444444,0.9167344933333336,-2.0223541333333332,-0.1156565333333333,0.0926055899999999
185,1778289921420,0.0714091957777777,0.4073672977777777,0.9184302422222222,-2.021640333333333,-0.0667775444444444,0.0723097047777777
186,1778289921430,0.0468413193333333,0.3738232066666667,0.9531951866666666,-1.9662475333333331,0.2273610333333333,-0.0645243323333333
187,1778289921440,0.0002265746666666,0.34034617,0.9438387766666668,-1.8952331333333332,0.2445882133333333,-0.1007486966666666
188,1778289921450,-0.0505785015555555,0.3139610255555556,0.9173449166666666,-1.8547516,0.2167154966666666,-0.09258016
189,1778289921460,-0.0714866206666666,0.2955212033333333,0.8998272833333334,-1.8545786666666664,0.20019531,-0.060979208
190,1778289921470,-0.0722460174444444,0.2872231433333333,0.89844433,-1.871090355555556,0.1999562544444444,-0.0413309734444444
191,1778289921480,-0.0030077379999999,0.282411229,0.955533628,-1.9661621,0.2413955629999999,-0.0123245241
192,1778289921490,0.0198454117777777,0.2709123644444444,0.9880270444444444,-2.009746988888889,0.2201453277777777,-0.017534044
193,1778289921500,0.0115750066666666,0.2537469666666667,1.0420720666666667,-2.0190395777777774,0.1158582877777777,-0.0250566266666666
194,1778289921510,0.0092028001111111,0.2400252888888889,1.0666128222222222,-1.9765523333333332,0.0604654939999999,-0.031682332
195,1778289921520,0.010721593,0.23226956,1.0698122,-1.9563140999999995,0.043777466,-0.034698486
196,1778289921530,-0.0189455076666666,0.2089624433333333,1.0583963666666667,-1.8063388666666669,-0.0448760997777777,-0.0454745823333333
197,1778289921540,-0.0404903155555555,0.19305763,1.0464373444444444,-1.7317708444444444,-0.0917510988888889,-0.0464172372222222
198,1778289921550,-0.06615771,0.17755983,0.9922023,-1.6560804777777778,-0.1944953022222222,-0.0155843104444444
199,1778289921560,-0.0608567977777777,0.1761497411111111,0.9796613888888888,-1.6748962333333333,-0.2339070666666666,0.0031127926666666
200,1778289921570,-0.051148828,0.17821051,0.9881769,-1.6940697333333334,-0.2399427688888888,0.0087941484444444
201,1778289921580,-0.0276374346666666,0.13570523,1.0735146333333334,-1.7636769333333333,-0.1298726399999999,0.0123443603333333
202,1778289921590,-0.032070934,0.12077723,1.0982868,-1.7806040222222224,-0.0715179448888888,0.0136447481666666
203,1778289921600,-0.0221915042999999,0.106140818,1.12900931,-1.7532623,0.0629516604,0.0318847658
204,1778289921610,-0.0139169692222222,0.0983501427777777,1.1279528555555554,-1.740883711111111,0.0929056804444444,0.0397593173333333
205,1778289921620,-0.0048052483333333,0.0910828194444444,1.1213090777777777,-1.7323659333333332,0.0937364364444444,0.0436655666666666
206,1778289921630,0.019873065,0.0869066583333333,1.1281431,-1.6814168222222223,0.0282728408888888,0.0266706679999999
207,1778289921640,0.018896945,0.088154115,1.1322923,-1.6713562,0.016082764,0.021224976
208,1778289921650,-0.0298342226666666,0.0433286346666666,1.1145158,-1.6404572,0.0052524142,0.0195702448888888
209,1778289921660,-0.0400169447777777,0.0290919374444444,1.1224751666666668,-1.6357235555555554,0.0223015678888888,0.0219370524444444
210,1778289921670,-0.0429240136,0.0221123336,1.16843686,-1.59017638,0.1163269024,0.0351867671999999
211,1778289921680,-0.041386936,0.0076420103333333,1.213616677777778,-1.5079532,0.3674485944444444,0.053726196
212,1778289921690,-0.0409258368888888,0.0022450069777777,1.212585977777778,-1.488959388888889,0.4861111144444444,0.0539618595555555
213,1778289921700,-0.0053731534444444,-0.0095776592,1.1935234444444442,-1.4996575444444444,0.74028862,0.0377994113333333
214,1778289921710,0.0215009103333333,-0.0132927222222222,1.1879643111111111,-1.5243378,0.8800150333333333,0.0107523599999999
215,1778289921720,0.0133243489333333,-0.0201666953333333,1.2168574333333335,-1.5655263333333334,1.1172078333333333,-0.0940043106666666
216,1778289921730,-0.0108788651555555,-0.038742356,1.2210743888888889,-1.5642886777777778,1.2159203444444444,-0.1710561111111111
217,1778289921740,-0.02503468,-0.049372524,1.2177119,-1.5557709,1.2294159,-0.20088196
218,1778289921750,-0.0937362122222222,-0.0868898922222222,1.219149177777778,-1.4149119222222224,0.9510277666666666,-0.26313782
219,1778289921760,-0.1244328357777777,-0.0996084833333333,1.2135088222222223,-1.342471677777778,0.7984585333333333,-0.2792341477777778
220,1778289921770,-0.1485548211111111,-0.1260743333333333,1.1175940333333334,-1.1824476555555554,0.1798299,-0.2718421122222222
221,1778289921780,-0.16536731,-0.1519442844444444,1.0866803,-1.0941501444444444,-0.3435669,-0.2429589166666666
222,1778289921790,-0.18428136,-0.16835064,1.1181363,-1.0684052,-0.5527649,-0.21632385
223,1778289921800,-0.1639155722222222,-0.1492604688888889,1.194214111111111,-0.972117111111111,-0.9838477333333332,-0.1349029566666666
224,1778289921810,-0.1278765588888889,-0.1117161433333333,1.2727743,-0.8915150944444444,-1.2284427666666664,-0.0922309055555555
225,1778289921820,-0.0388500268888888,-0.0672022698888888,1.3311449666666668,-0.7422637966666666,-1.4845225333333334,-0.0877838139999999
226,1778289921830,-0.0276453152,-0.0591835668,1.3286609400000002,-0.6303741439999999,-1.6237945799999998,-0.0917968744
227,1778289921840,-0.033210028,-0.05962282,1.3199723,-0.59117126,-1.6595917,-0.09222412
228,1778289921850,-0.057263056,-0.0819142344444444,1.2459952555555556,-0.5094994466666667,-1.7149776555555556,-0.0204942488888888
229,1778289921860,-0.0708355814444444,-0.0971000911111111,1.200844677777778,-0.46653748,-1.7362823,0.03933716
230,1778289921870,-0.0104442068888888,-0.1075536366666666,1.2179011888888889,-0.4201354933333333,-1.552049411111111,0.1445634588888888
231,1778289921880,0.029188201,-0.1129369859999999,1.2406664555555555,-0.3998955555555555,-1.4397226555555551,0.1826731322222222
232,1778289921890,0.082555079,-0.1059938779999999,1.3157005666666666,-0.28544108,-1.0390675866666668,0.2154693633333333
233,1778289921900,0.1443020966666666,-0.0861439733333333,1.3657730666666668,-0.16133626,-0.6198883033333333,0.1978912366666666
234,1778289921910,0.1700500266666666,-0.0750530522222222,1.3787215,-0.1076575368888888,-0.4557783311111111,0.1743960911111111
235,1778289921920,0.1552430033333333,-0.0489660386666666,1.3368114333333334,0.0414225246666666,-0.1779734266666666,0.0863952633333333
236,1778289921930,0.1340912,-0.0422947906666666,1.3014233000000002,0.1045108362222222,-0.0799085824444444,0.0534278011111111
237,1778289921940,0.0716861328,-0.0476643504,1.19933394,0.1510040276,0.0218383768,0.0537231444
238,1778289921950,0.0485770068888888,-0.0428647694444444,1.1286982333333333,0.1610870366666666,0.15634155,0.0824890113333333
239,1778289921960,0.056603726,-0.036681753,1.1136209,0.15664673,0.19717407,0.09420776
240,1778289921970,0.105781828,-0.0424171512222222,1.1222441888888888,0.16079542,0.36347622,0.0881093333333333
241,1778289921980,0.1430954322222222,-0.0476781407777777,1.1248072555555555,0.1709781177777777,0.5104861666666667,0.0697580968888888
242,1778289921990,0.1356784372222222,-0.0535085911111111,1.1046868777777776,0.18872918,0.6471405,0.0319349500888888
243,1778289922000,0.1126962383333333,-0.0619015286666666,1.0798607333333332,0.2102712,0.7619527333333334,-0.0057627358666666
244,1778289922010,0.0867447188888888,-0.0722059183333333,1.057949677777778,0.2235921211111111,0.7827199333333332,-0.0222066238888888
245,1778289922020,0.0475597533333333,-0.0868622388888888,1.0565116444444445,0.2035268144444444,0.7231225,-0.0249905054444444
246,1778289922030,0.0317217914,-0.091911416,1.06201489,0.185574341,0.6956695519999999,-0.0211151123
247,1778289922040,0.01617079,-0.1017231833333333,1.1167540333333337,0.1758202488888889,0.6049397777777777,-0.0103725858333333
248,1778289922050,0.0074664197777777,-0.106523072,1.1374853666666669,0.17451986,0.5422125955555556,-0.0030890571111111
249,1778289922060,0.003765701,-0.107946984,1.1407119,0.18115234,0.53274536,-0.0016784668
250,1778289922070,0.0086053415,-0.1147670341111111,1.1475323222222222,0.2608676477777777,0.4967617477777778,0.0247768827333333
251,1778289922080,0.0142320305,-0.118685685,1.143369811111111,0.3156110966666666,0.46716987,0.0369669596666666
252,1778289922090,-0.0021883202222222,-0.1090993833333333,1.1334979444444444,0.3396436911111111,0.4091712066666667,0.0320061584444444
253,1778289922100,-0.0069745573333333,-0.1058315933333333,1.1351791666666666,0.3425445566666666,0.3992309533333333,0.031356812
254,1778289922110,-0.008194016,-0.1047739,1.1372945,0.3491753466666666,0.3926628955555555,0.0299919973333333
255,1778289922120,-0.0387283555555555,-0.0968004133333333,1.2409373666666663,0.4359859877777777,0.3566097777777777,0.0367906357777777
256,1778289922130,-0.0469448386666666,-0.0922177622222222,1.2551201444444444,0.5020887588888888,0.3637695333333333,0.0503506135555555
257,1778289922140,-0.0441312353333333,-0.0812018483333333,1.2128512833333334,0.6042378783333333,0.3659337366666667,0.0721893283333333
258,1778289922150,-0.036301192,-0.075039746,1.1848047666666668,0.6326497466666666,0.33921814,0.0869242333333333
259,1778289922160,-0.035436631,-0.0619726885,1.1751235,0.6385536375,0.32527923625,0.095933915
260,1778289922170,-0.0388404725714285,-0.0533130988571428,1.1866467142857144,0.6430184714285714,0.3463897785714285,0.0970153814285714
261,1778289922180,-0.0386602643333333,-0.049495403,1.1992449,0.6500447666666667,0.3686828666666666,0.09384664
262,1778289922190,-0.0325313428888888,-0.0450337328888888,1.2183621444444446,0.6729515666666666,0.4077453577777777,0.0764448383333333
263,1778289922200,-0.026864386,-0.0375766466666666,1.240327966666667,0.6935475666666666,0.4134317999999999,0.0554962156666666
264,1778289922210,-0.0278007556666666,-0.0309878363333333,1.2853157,0.7278137266666667,0.38111877,0.0301055906666666
265,1778289922220,-0.045278108,-0.0317467147777777,1.3425194888888887,0.8140411288888889,0.2938791866666667,0.0066697861666666
266,1778289922230,-0.0622534013333333,-0.0339969065555555,1.3786397555555556,0.9124603166666666,0.2065836566666666,-0.0064697265333333
267,1778289922240,-0.080703278,-0.0222949406,1.38443966,1.119119295,0.0384506232,-0.00636291501
268,1778289922250,-0.0947942466666666,0.0024492873333333,1.3516994666666668,1.2450527555555555,-0.0629306362222222,-0.0015530056333333
269,1778289922260,-0.1087734311111111,0.0176353155555555,1.2760412222222224,1.3538309333333334,-0.1527709966666666,0.0182189943
270,1778289922270,-0.09019743,0.0287262366666666,1.2120165333333333,1.3812272666666667,-0.1976301422222222,0.050586276
271,1778289922280,-0.0647744133333333,0.0390983756666666,1.1752450666666665,1.3674977666666668,-0.19679769,0.0595804833333333
272,1778289922290,-0.0114205001333333,0.058677981,1.127465011111111,1.2649451777777778,-0.1685112877777778,0.0369144007777777
273,1778289922300,-0.0060784554222222,0.0604674201111111,1.1247537,1.2290836,-0.1633029544444444,0.0242496067777777
274,1778289922310,-0.0259297444888888,0.0653208886666666,1.2171149333333335,1.1954057555555555,-0.1286841511111111,-0.0192532012222222
275,1778289922320,-0.05030803,0.0623648744444444,1.3128802444444445,1.281339888888889,-0.1225280755555555,-0.0456441237777777
276,1778289922330,-0.05651766,0.0584600484444444,1.3485670222222224,1.3394555333333331,-0.1254848888888889,-0.05215454
277,1778289922340,-0.0817633622222222,0.0492536204444444,1.4766029333333333,1.6808132555555555,-0.1370798755555555,-0.0509202743333333
278,1778289922350,-0.0901699533333333,0.0492266591111111,1.5025001999999998,1.784973122222222,-0.1269005688888889,-0.0460679796666666
279,1778289922360,-0.0799194799999999,0.0410654804444444,1.4558027333333332,2.2050391555555553,0.0147789846666666,-0.0120900471
280,1778289922370,-0.0604898888888888,0.0451737227777777,1.3725246555555557,2.4024064888888885,0.0659705271111111,0.0057796900222222
281,1778289922380,-0.04882968,0.050326005,1.3204591,2.4954376,0.083724976,0.014297485
282,1778289922390,-0.0259427064444444,0.0801004327777777,1.1617680555555556,2.602086377777778,-0.0031585693333333,0.0056576198888888
283,1778289922400,-0.028573288,0.08998486,1.1252135,2.6227417,-0.0393219,0.003112793
284,1778289922410,-0.0694528404,0.11192578,1.07530472,2.62828368,-0.155642702,0.0431701672
285,1778289922420,-0.086170934,0.12195676,1.0474824,2.6238098,-0.19697571,0.06277466
286,1778289922430,-0.0706055535555555,0.1354333688888888,1.0485120666666663,2.608769777777778,-0.2052663177777777,0.0672149655555555
287,1778289922440,-0.0611544066666666,0.1536834233333333,1.0634675666666666,2.5680491333333335,-0.1634267166666666,0.0631357833333333
288,1778289922450,-0.0673375933333333,0.1579140266666666,1.0647290444444444,2.547400588888889,-0.1189202195555555,0.0603569886666666
289,1778289922460,-0.0517729024444444,0.1798786244444444,1.0868569222222222,2.5994873333333333,0.0102183026666666,0.0624237063333333
290,1778289922470,-0.0338207966666666,0.1926511466666666,1.0833579000000002,2.6953583,0.0755564386666666,0.0601145426666666
291,1778289922480,-0.0285328453333333,0.2129080599999999,1.0591553333333334,2.797741333333333,0.0550808383333333,0.0635443804444444
292,1778289922490,-0.056639504,0.2345887033333333,1.0080667,2.9024353333333335,0.0157233342222222,0.0793999588888889
293,1778289922500,-0.07042841,0.24130039,0.9872001,2.94339,0.0022277832,0.08886719
294,1778289922510,-0.0947128466666666,0.2573669633333333,0.8644386333333334,3.0284271,-0.0847676566666666,0.1574096666666666
295,1778289922520,-0.0932080511111111,0.2736644377777777,0.8255930844444445,3.0305582666666666,-0.0916900613333333,0.1790669733333333
296,1778289922530,-0.0720883632,0.307976172,0.7729420659999999,3.00996404,-0.0876861576,0.210845948
297,1778289922540,-0.0428229458888888,0.3388277188888888,0.7123501999999999,2.968838177777778,-0.0447692872222222,0.2329237222222222
298,1778289922550,-0.028938813,0.35124767,0.68176144,2.944458,-0.011627197,0.24121094
299,1778289922560,-0.0116648761111111,0.3706366366666667,0.6298860511111112,2.8347286666666665,0.0731353781111111,0.2362348799999999
300,1778289922570,-0.0035296212222222,0.3787851888888889,0.6096974222222222,2.748736933333334,0.1295996811111111,0.2303738088888888
301,1778289922580,0.0223814574444444,0.4330741011111111,0.6122597333333333,2.6660665000000003,0.0924224866666666,0.2060597766666666
302,1778289922590,0.0224084185555555,0.4409114033333333,0.6241100444444444,2.642037288888889,0.0688086611111111,0.19688755
303,1778289922600,0.021458741,0.44338056,0.6213578,2.6424408,0.06135559,0.19647217
304,1778289922610,-0.0276232636666666,0.49690958,0.5572387,2.5768737666666666,0.1395297566666666,0.1733313699999999
305,1778289922620,-0.0271623373333333,0.5037296333333333,0.5462831055555556,2.5587632777777776,0.15432739,0.17143589
306,1778289922630,0.0193433526666666,0.5357556333333333,0.51059703,2.4973958666666665,0.1485392233333333,0.15438843
307,1778289922640,0.0417298222222222,0.5506694444444444,0.4672764977777777,2.4766845777777777,0.1319630933333333,0.1384684255555555
308,1778289922650,0.04867258,0.55625516,0.43587404,2.4645538,0.123672485,0.124557495
309,1778289922660,0.01582185502,0.588470932,0.345134186,2.34119262,0.0847900385,0.101281738
310,1778289922670,0.0031278010333333,0.6020702111111111,0.3167478233333333,2.2648705333333337,0.062123616,0.0911797411111111
311,1778289922680,0.0147612227111111,0.6352635444444446,0.2607638677777777,2.0849659999999997,-0.0368245453333333,0.0989990233333333
312,1778289922690,0.0253910461111111,0.6547880066666667,0.24256773,2.003056844444444,-0.0846506766666666,0.0974629711111111
313,1778289922700,0.037444434,0.6718175399999999,0.2475838266666666,1.890311344444444,-0.1435326488888889,0.0820685488888888
314,1778289922710,0.0024491135555555,0.6918029533333333,0.2277612255555555,1.7510613333333334,-0.1940188955555555,0.0744340691111111
315,1778289922720,0.0042119366666666,0.70194438,0.2472583944444444,1.7154948,-0.2026621499999999,0.0768025706666666
316,1778289922730,0.0287806773333333,0.71936712,0.26560299,1.6404503666666663,-0.21005927,0.0741390633333333
317,1778289922740,0.0340644286,0.7619236,0.20620425,1.53786928,-0.2179595959999999,0.0451995845999999
318,1778289922750,0.0054870458111111,0.77764345,0.1887394088888889,1.424023111111111,-0.1957363588888888,0.018029107
319,1778289922760,-0.0147429030333333,0.7899002500000001,0.1704623866666667,1.3053080333333336,-0.0953063983333333,0.0124664307777777
320,1778289922770,-0.0025263673333333,0.8036758355555556,0.1649573677777777,1.1853485333333331,0.0144805906666666,0.0038248699999999
321,1778289922780,0.0044972722666666,0.8124752766666666,0.15410961,1.0166778666666667,0.1401926686666666,-0.0206807453333333
322,1778289922790,-0.0018620249644444,0.8112005333333333,0.1423951322222222,0.9358333977777776,0.1787177199999999,-0.0257093642222222
323,1778289922800,0.0155204465177777,0.8211796577777778,0.1716420922222222,0.7737375911111111,0.2397359266666666,-0.0379570858888888
324,1778289922810,0.018775102,0.8268749200000001,0.18718017,0.6983388466666667,0.2158203133333333,-0.0387878416666666
325,1778289922820,0.018287215,0.8282582,0.18998669,0.6770325,0.19717407,-0.037368774
326,1778289922830,0.0281434693333333,0.8568258044444444,0.2014300055555555,0.6100480888888888,0.1620296877777777,-0.0511542415555555
327,1778289922840,0.0231188536,0.8661235079999999,0.214148153,0.56651916,0.153669737,-0.060801696
328,1778289922850,-0.0137263426666666,0.8620328666666667,0.28571126,0.5518053,0.2186669233333333,-0.0566609688888888
329,1778289922860,-0.0213742286666666,0.8701957466666667,0.3174652333333333,0.5783183,0.2552439366666666,-0.0451761866666666
330,1778289922870,-0.0175504576666666,0.8784934666666666,0.3280815733333333,0.6002739977777778,0.2554202599999999,-0.0377163346666666
331,1778289922880,-0.0086962473333333,0.8957392888888889,0.3331394933333333,0.6595187699999999,0.1750505222222222,-0.0315093996666666
332,1778289922890,-0.0136452863333333,0.8990340333333333,0.3367054066666666,0.6757965,0.1638081866666666,-0.0311533613333333
333,1778289922900,-0.0343086823333333,0.9040777666666666,0.33564772,0.7429046666666667,0.1922098799999999,-0.0109100342666666
334,1778289922910,-0.035162614,0.9106272,0.3214927833333333,0.7826690666666667,0.2099660266666666,0.0066680905333333
335,1778289922920,-0.0216851413333333,0.9218403166666664,0.2986325844444444,0.8017900222222223,0.2037556966666666,0.020874023
336,1778289922930,-0.014092387,0.9308161644444444,0.2809252,0.8131561288888889,0.1843397322222222,0.0355563692222222
337,1778289922940,-0.015394111,0.9322264,0.27821392,0.81552124,0.16894531,0.044143677
338,1778289922950,-0.0068518508,0.9482392444444444,0.2649941111111111,0.8256954733333334,0.1165805388888889,0.0495215515555555
339,1778289922960,-0.0034958333999999,0.9577308,0.2253751,0.8280334500000001,0.0555038435,0.0372085565
340,1778289922970,-0.0087773033333333,0.9588692333333332,0.181390691111111,0.8156924722222222,-0.1080881762222222,-0.0012088354444444
341,1778289922980,-0.01002476,0.9591945,0.17485546,0.81285095,-0.14265442,-0.009140015
342,1778289922990,-0.01319753,0.9563633,0.169754574,0.814236448,-0.193466188,-0.016381836
343,1778289923000,-0.0372774833333333,0.9396691666666668,0.13779935,0.8255818755555555,-0.4526468922222222,-0.0507371677777777
344,1778289923010,-0.0440572666666666,0.9352493444444444,0.1283354122222222,0.82724,-0.4979790588888889,-0.0484924308888888
345,1778289923020,-0.0341182288888888,0.9346942111111112,0.0887033527777777,0.8197835333333333,-0.6451009233333332,-0.0267130536666666
346,1778289923030,-0.0274751513333333,0.9424772333333332,0.0447731116666666,0.7794850666666666,-0.7773641,-0.0050557456
347,1778289923040,-0.0255096037777777,0.9458533833333332,0.0239602208888888,0.747348361111111,-0.8353000166666666,0.0047081840777777
348,1778289923050,-0.0125466333333333,0.9516288833333332,-0.0206768773333333,0.6408674444444444,-0.9138997222222224,0.0147128635555555
349,1778289923060,-0.0053060971777777,0.9606457222222224,-0.0363236602222222,0.5724538066666667,-0.917984,0.012700399
350,1778289923070,-0.0030688674,0.966883,-0.047238473,0.5284271,-0.9091034,0.010574341
351,1778289923080,0.0063959363,0.9612559555555557,-0.0266156896222222,0.3913082444444444,-0.7850036611111111,0.0021684435555555
352,1778289923090,0.013650471,0.9572424,-0.0062372824,0.3265686,-0.6710205,-0.0075378419999999
353,1778289923100,0.0085647275,0.95317498,-0.0299094033333333,0.2715250622222222,-0.2232530377777778,-0.0365363226666666
354,1778289923110,0.0170901543999999,0.949847916,-0.0470907062,0.2467742899999999,-0.0477325449999999,-0.0498291016
355,1778289923120,0.006461956,0.947425577777778,-0.1559510755555555,0.0738016772222222,0.2952982611111111,-0.09630161
356,1778289923130,-0.0092795349444444,0.9462728444444444,-0.1767770988888889,-0.0638631183333333,0.4400533066666667,-0.1051890059999999
357,1778289923140,-0.0120993606111111,0.9459742,-0.1744995988888888,-0.1525811088888889,0.5044437044444444,-0.1067318375555555
358,1778289923150,-0.0304166491111111,0.9521440466666669,-0.0907888388888888,-0.3824988466666666,0.6034579888888889,-0.0988515222222222
359,1778289923160,-0.0377655457777777,0.9501372111111112,-0.0558068277777777,-0.4356435133333333,0.6259460466666666,-0.093109132
360,1778289923170,-0.0504571776666666,0.9437376666666668,-0.0168116286666666,-0.5563710533333334,0.6302083133333334,-0.0693257653333333
361,1778289923180,-0.0516501955555555,0.9401313222222222,0.0059398497777777,-0.6298777277777777,0.5917375177777777,-0.0542924668888888
362,1778289923190,-0.0435422466666666,0.93633538,0.059090344,-0.7130296444444445,0.5080006844444445,-0.0415598557777777
363,1778289923200,-0.03304262625,0.9387699375,0.121879379,-0.7474975500000001,0.4286117499999999,-0.0400238049999999
364,1778289923210,-0.0261674778571428,0.9407501914285714,0.1539011171428571,-0.7552185,0.3873291,-0.04109192
365,1778289923220,-0.0110620385,0.94688560875,0.2212417475,-0.684312825,0.23286819375,-0.0640640265
366,1778289923230,-0.0165326876666666,0.9527275466666668,0.2282228466666666,-0.6362610000000001,0.1680653866666666,-0.07518514
367,1778289923240,-0.04074493075,0.9515068025,0.2031048175,-0.5629425,0.051242828,-0.083431245
368,1778289923250,-0.0494248255,0.93816000125,0.16950068375,-0.52858352,-0.0519561764999999,-0.076107025
369,1778289923260,-0.052491166,0.93088406,0.1510589,-0.52085876,-0.07925415,-0.07357788
370,1778289923270,-0.070770602,0.9168255,0.076671284,-0.5270416179999999,-0.272616572,-0.0332061766
371,1778289923280,-0.07897084,0.9111146,0.06686024,-0.53364563,-0.3376007,-0.017654419
372,1778289923290,-0.0692761788888888,0.9023021555555556,0.0543856788888888,-0.5542992466666666,-0.4056549022222222,0.0112253818444444
373,1778289923300,-0.0545783833333333,0.8966078622222222,0.0475521499999999,-0.6408776277777777,-0.63633728,0.1189405611111111
374,1778289923310,-0.0347151696666666,0.8982614933333335,0.052582935,-0.6964518333333333,-0.6571757,0.1568806933333333
375,1778289923320,-0.0026891692666666,0.8927570222222223,0.0754961783333333,-0.8441738333333333,-0.5569186711111112,0.2169969377777777
376,1778289923330,-0.0010748035733333,0.8843507666666667,0.08345619,-0.87701924,-0.4984436,0.22647095
377,1778289923340,0.0059078766888888,0.8782087055555555,0.0834294005555555,-0.9117533377777778,-0.4087236166666666,0.2265336788888888
378,1778289923350,0.0156293272222222,0.8590362622222222,0.0872524777777777,-0.9368438733333334,-0.33989461,0.2133331299999999
379,1778289923360,0.01718908,0.83862984,0.0962688,-0.94963074,-0.30828857,0.19166565
380,1778289923370,-0.0020650955555555,0.8387383733333333,-0.0221811522666666,-1.0731998044444444,-0.0777774388888889,0.1100039999999999
381,1778289923380,-0.0148384765555555,0.8546430233333333,-0.0744906768888889,-1.1716190111111109,0.051713732,0.06105889
382,1778289923390,-0.0030685218166666,0.8254099111111111,-0.0473456218888888,-1.463677288888889,0.2319166422222222,0.0055406362222222
383,1778289923400,-0.0002208713533333,0.81727481,-0.0295837986666666,-1.5329216666666667,0.2662455266666667,-0.0029805501111111
384,1778289923410,-0.0008710419599999,0.81483483,-0.015266566,-1.5610962,0.28240967,-0.0037994385
385,1778289923420,0.001983331494,0.7653763170000001,0.1718775734,-1.67086489,0.437986764,0.0238998416
386,1778289923430,0.0136359543888888,0.7552704444444445,0.18503748,-1.705549488888889,0.4669884666666666,0.0459120013333333
387,1778289923440,0.016985145,0.7548777977777779,0.0740459984444444,-1.812201644444444,0.32193841,0.0701124417777777
388,1778289923450,-0.0092107503333333,0.7502408466666667,0.0110513451333333,-1.9351806666666669,0.2337493899999999,0.08194987
389,1778289923460,-0.022919292,0.7330346666666667,-0.0325137151,-2.114674877777778,0.1972368055555555,0.0933753111111111
390,1778289923470,-0.024505314,0.69662928,-0.034628066,-2.3877360333333333,0.1632639566666666,0.1066335039999999
391,1778289923480,-0.0249118,0.68218917,-0.029420998,-2.4713593,0.15029907,0.110183716
392,1778289923490,-0.017102494,0.6418381233333332,0.032244624,-2.6884358666666666,0.1463962122222222,0.1114281542222222
393,1778289923500,0.0118181734999999,0.568397635,0.1950511875,-2.7632445999999997,0.1441802999999999,0.103530885
394,1778289923510,0.0692673666666666,0.5204473633333333,0.5005765488888889,-2.6330448,0.0267367903333333,0.0701158333333333
395,1778289923520,0.0830834046666666,0.5107805266666666,0.5471647000000001,-2.5146840666666663,-0.1113993336666666,0.0506998706666666
396,1778289923530,0.0838154944444444,0.50490982,0.5557339333333333,-2.458345211111111,-0.1956770166666666,0.042414348
397,1778289923540,0.0119405333333333,0.5162714,0.5012137888888888,-2.426325477777778,-0.4040527377777778,0.0484568277777777
398,1778289923550,-0.0443557366666666,0.5287997,0.4607682333333333,-2.4651489333333334,-0.4824676566666667,0.0654449466666666
399,1778289923560,-0.0544432313333333,0.51863134,0.4806186466666666,-2.757320866666667,-0.30373636,0.1434461788888889
400,1778289923570,-0.0071774553333333,0.5076753877777778,0.5149081422222221,-2.898059433333333,-0.1553107333333333,0.15734863
401,1778289923580,0.026339686,0.50414973,0.5282496,-2.9539337,-0.07766724,0.15332031
402,1778289923590,0.17370256,0.427223356,0.709219126,-3.19600687,0.4868804939999999,-0.095155336
403,1778289923600,0.17908,0.40624255,0.759617,-3.224619644444444,0.5632782,-0.1641896577777777
404,1778289923610,0.10854738,0.3528756833333333,0.9220767,-3.0228067999999997,0.32855733,-0.3104248066666666
405,1778289923620,0.0369159324444444,0.3216500333333333,0.971023361111111,-2.797856666666666,0.0440690755555555,-0.3495466444444444
406,1778289923630,-0.016980652,0.30341345,0.96499,-2.69133,-0.10057068,-0.35002136
407,1778289923640,-0.122602958,0.2864502722222222,0.9847051377777776,-2.526575733333333,-0.1992848733333333,-0.2449086533333333
408,1778289923650,-0.14169364,0.28425366,0.98964053,-2.4372745,-0.234853111111111,-0.18264771
409,1778289923660,-0.0592025428,0.2896970399999999,0.9561073,-2.40233456,-0.0366516126,-0.0583557142
410,1778289923670,-0.0122619897666666,0.2874272466666666,0.9333447833333334,-2.4220072,0.0237172446666666,-0.026184082
411,1778289923680,0.0738904537111111,0.2909245522222222,0.9841360166666668,-2.472605333333333,0.0989379857777777,-0.0750088148888889
412,1778289923690,0.0850907766666666,0.2664249488888889,0.9521508022222224,-2.5120239333333334,0.1282958933333333,-0.14779663
413,1778289923700,0.068684771,0.2490697833333333,0.9377378233333334,-2.536346466666666,0.1236775666666666,-0.1914723699999999
414,1778289923710,-0.0148244763333333,0.1761502633333333,1.0175984444444444,-2.5114848,0.1311340333333333,-0.2550404833333333
415,1778289923720,-0.0441658023333333,0.1468224155555555,1.094421911111111,-2.3969099555555555,0.1693691666666666,-0.2935655311111111
416,1778289923730,-0.1009770923333333,0.1078007706666666,1.153484,-2.187647533333333,0.1939799,-0.30386352
417,1778289923740,-0.1428329033333333,0.0807924237777777,1.1036694111111112,-2.017796855555555,0.1364542666666666,-0.2467532677777777
418,1778289923750,-0.1516757779999999,0.0694599972,1.0339125,-1.8902588,0.06188965,-0.17958069
419,1778289923760,-0.1040132957777777,0.0725068057777777,0.9765557333333332,-1.9992676,-0.16217041,-0.0556488041999999
420,1778289923770,-0.0879731604444444,0.07661522,1.0289333333333333,-2.073599944444444,-0.2526092511111111,0.0181596544222222
421,1778289923780,-0.0256843302,0.0721684173333333,1.1851298666666663,-2.0862681,0.0405832933333333,0.0290476483333333
422,1778289923790,0.0152764171333333,0.065863734,1.2626178666666668,-2.034367888888889,0.3380313455555555,-0.0010257293333333
423,1778289923800,0.042447742,0.05959949,1.2950776,-1.9941254,0.4656219499999999,-0.025650024
424,1778289923810,0.0157236892222222,0.0495253027777777,1.2361512222222222,-1.8511386555555551,0.6325208944444444,-0.0502641471111111
425,1778289923820,0.0002750004,0.0393670512,1.1930371999999998,-1.78000184,0.7130920359999999,-0.0577087412
426,1778289923830,-0.0709707366666666,0.0008083060222222,1.1648870888888887,-1.7678731333333333,0.5066969066666667,-0.0531633166666666
427,1778289923840,-0.1029696026666666,-0.0099573572666666,1.1664599666666666,-1.7566324666666668,0.3957892533333333,-0.0481957331111111
428,1778289923850,-0.13144334,-0.015814077,1.1728051,-1.7453918,0.32980347,-0.043762207
429,1778289923860,-0.2032769933333333,-0.0472438292222222,1.277451477777778,-1.5755343777777775,-0.2163289388888889,0.1206529392222222
430,1778289923870,-0.1987752244444444,-0.0494947131111111,1.3261682777777777,-1.490432711111111,-0.3230319544444444,0.1759304466666666
431,1778289923880,-0.07238151,-0.0033675106666666,1.3696377666666666,-1.2948371,-0.2289920344444444,0.2087266722222222
432,1778289923890,0.0019748799999999,0.0242927376666666,1.3319714666666664,-1.2425791666666666,-0.1195627826666666,0.1772969533333333
433,1778289923900,0.07917927,0.045200855,1.268598,-1.2819977,-0.023330688,0.12295532
434,1778289923910,0.045071758,0.029946733,1.22991515,-1.43086245,0.1841278049999999,0.0302810668
435,1778289923920,0.0062865383333333,0.0040358273333333,1.2082342,-1.478888633333333,0.2608540777777777,-0.0045182968666666
436,1778289923930,-0.090278839,-0.04379993,1.2099420666666667,-1.4460398333333333,0.18013,-0.0292002356666666
437,1778289923940,-0.1398630722222222,-0.0610332553333333,1.2301180555555555,-1.3519456555555556,0.0217590311111111,-0.0066494409999999
438,1778289923950,-0.13075169,-0.0575888366666666,1.2730718333333335,-1.177958133333333,-0.2113596633333333,0.041473388
439,1778289923960,-0.1078640233333333,-0.0448842382222222,1.3090025,-1.1183607111111111,-0.2249111622222222,0.0630747466666666
440,1778289923970,-0.0839245752,-0.0298235415999999,1.33844706,-1.10574801,-0.111697387,0.083923339
441,1778289923980,0.0080084013333333,0.0002656334666666,1.3537194666666668,-1.1481272666666666,0.34223429,0.1036122633333333
442,1778289923990,0.0349640377777777,0.0108418797777777,1.3522010444444446,-1.1577114444444443,0.5793151888888889,0.0877499044444444
443,1778289924000,0.0625015813333333,0.03438058,1.276449122222222,-1.0978224111111112,0.9661271555555556,-0.0518612344444444
444,1778289924010,0.0406985707777777,0.0303266037777777,1.2031497333333332,-1.0846218444444444,1.0329945444444446,-0.1562550844444444
445,1778289924020,0.0222450972222222,0.0239944393777777,1.1875299,-1.085862888888889,1.011096488888889,-0.1844245033333333
446,1778289924030,-0.12447397,-0.0239911571333333,1.2123159555555556,-1.0376892,0.6916452999999999,-0.2587585366666667
447,1778289924040,-0.1576385422222222,-0.0376309138888888,1.2276639333333332,-0.9776255111111112,0.5248124833333333,-0.2587619311111111
448,1778289924050,-0.1819767311111111,-0.0560031588888888,1.2393918777777777,-0.818128788888889,0.1957566961111111,-0.1972181533333333
449,1778289924060,-0.1556726466666666,-0.0472713078888888,1.213996688888889,-0.6884612944444445,-0.0890248631111111,-0.1186218255555555
450,1778289924070,-0.13180886,-0.035339415,1.1915978,-0.6620635970000001,-0.180990602,-0.0914230348
451,1778289924080,-0.1148603547777777,-0.0297937813333333,1.1776322777777777,-0.6968655222222222,-0.2704840699999999,-0.1008097335555555
452,1778289924090,0.0244697112222222,0.0122118702222222,1.0584779666666666,-0.7979532777777778,-0.2981804766666667,-0.1718275322222222
453,1778289924100,-0.0531679553333333,-0.0433122168888888,1.056105588888889,-1.0119527333333334,-0.2861022933333333,-0.3065185533333333
454,1778289924110,-0.1056001866666666,-0.0755278051111111,1.105838788888889,-1.1068793444444445,-0.2585856144444444,-0.3458760533333333
455,1778289924120,-0.1268066,-0.09049659,1.1402235,-1.1227417,-0.24438477,-0.34469604
456,1778289924130,-0.130723489,-0.155892089,1.32746418,-0.7660919199999999,-0.46856232,-0.230709836
457,1778289924140,-0.1331926833333333,-0.1698562922222222,1.358573466666667,-0.6257951533333332,-0.5686933766666668,-0.1949039011111111
458,1778289924150,-0.14177504,-0.1751432033333333,1.363251166666667,-0.25454712,-0.7162882500000001,-0.081034342
459,1778289924160,-0.1371650844444444,-0.1688656533333333,1.3578821555555554,-0.0218471955555555,-0.723153,0.0039520272222222
460,1778289924170,-0.1123524899999999,-0.1571376922222222,1.3314423777777775,0.2074924044444444,-0.6195882,0.0918426511111111
461,1778289924180,-0.0675819683333333,-0.1535577766666666,1.2443549444444446,0.3134257,-0.4187316866666666,0.1314849866666666
462,1778289924190,-0.0338612359999999,-0.15033095,1.1740671,0.3332468677777778,-0.3065846788888888,0.1385226811111111
463,1778289924200,-0.0234112745999999,-0.152255338,1.08295612,0.298867802,-0.0179550189999999,0.106501773
464,1778289924210,-0.0343491246666666,-0.1572054466666667,1.0565936333333334,0.2788085933333333,0.0684611,0.09384664
465,1778289924220,-0.0613852944444444,-0.17586285,1.0543015444444446,0.2476721844444444,0.18362427,0.0858086475555555
466,1778289924230,-0.045900798,-0.1818554166666666,1.0754267666666666,0.25927226,0.1824442566666666,0.069702148
467,1778289924240,-0.03516248625,-0.17937904,1.091260225,0.282020575,0.15537262125,0.05345726
468,1778289924250,-0.0552971625,-0.1642629625,1.097087,0.36065674,0.0618934624999999,0.02842712425
469,1778289924260,-0.0667269953333333,-0.15968688,1.0923073,0.3853352866666666,0.0333099356666666,0.0258483886666666
470,1778289924270,-0.089893082,-0.1435486899999999,1.0596535875000002,0.41144752625,0.02547645575,0.0499248505
471,1778289924280,-0.0743339244444444,-0.1353894711111111,1.0582613111111112,0.4078725166666667,0.0693461096666666,0.0718332919999999
472,1778289924290,-0.0601781119999999,-0.13039964,1.0600518,0.40219116,0.08958435,0.07609558
473,1778289924300,-0.0447888386666666,-0.1238918872222222,1.096727188888889,0.3758612711111111,0.1617923333333333,0.0536058211111111
474,1778289924310,-0.0390534411111111,-0.1210577183333333,1.1381350555555556,0.3594122977777778,0.2168358733333333,0.0335998537777777
475,1778289924320,-0.0537106235,-0.12521305625,1.147087575,0.40658951,0.155239106575,0.02748489375
476,1778289924330,-0.0830929088888888,-0.1317151988888888,1.1445492222222222,0.4996642999999999,-0.0009613036999999,0.0302886959999999
477,1778289924340,-0.084901702,-0.127837851,1.14217678,0.4996642999999999,-0.0009613037,0.0302886959999999
478,1778289924350,-0.0477173711111111,-0.107011478,1.1506228777777778,0.5899793888888889,-0.2909545786,0.0746154757777777
479,1778289924360,-0.0357319035555555,-0.1025100577777777,1.1580799444444445,0.6198052333333334,-0.3908521777777778,0.0834893099999999
480,1778289924370,-0.0411830019999999,-0.0907407955555555,1.1861334444444445,0.6251288444444445,-0.3819766555555556,0.0707651766666666
481,1778289924380,-0.0476916186666666,-0.0906588733333333,1.211245,0.6315883999999999,-0.31551616,0.0634867355555555
482,1778289924390,-0.0487358311111111,-0.0915670711111111,1.227068211111111,0.63656616,-0.281662,0.06277466
483,1778289924400,-0.0359087038888888,-0.0767610844444444,1.309152011111111,0.716688388888889,-0.0205501944444444,0.0608774811111111
484,1778289924410,-0.0282072414444444,-0.0650462622222222,1.3369749000000002,0.7583550466666666,0.0992380811111111,0.054014418
485,1778289924420,-0.0211293,-0.05249614,1.34740382,0.79315186,0.17959595,0.04573059
486,1778289924430,-0.0221737204444444,-0.0465250444444444,1.3394960555555555,0.8754136777777778,0.2491963722222222,0.0200415713333333
487,1778289924440,-0.0844350757777777,-0.0446269011111111,1.274862411111111,1.0788167444444443,0.10308838,0.0473921024444444
488,1778289924450,-0.0841369504444444,-0.0355557938888888,1.241236677777778,1.1424967666666666,0.0443810361111111,0.0838470455555555
489,1778289924460,-0.0646397811111111,-0.0266614878888888,1.2256982111111112,1.1659342555555556,0.0382232665555555,0.1060977513333333
490,1778289924470,-0.0090201231944444,-0.0029340635777777,1.2059570444444443,1.1953430444444446,0.0419498021111111,0.1135508216666666
491,1778289924480,0.0029931698333333,0.0040762689333333,1.200303033333333,1.2024434666666666,0.0387522383333333,0.1095258927777777
492,1778289924490,0.0054875644444444,0.0091611491111111,1.1936587,1.2076517444444446,0.0306345622222222,0.0945570222222222
493,1778289924500,-0.0114887671111111,0.0131741637777777,1.1651307888888889,1.217125788888889,0.0202178955555555,0.0602281377777777
494,1778289924510,-0.012099706,0.018598301,1.1625549,1.2224579,0.00541687,0.05105591
495,1778289924520,-0.0409256655555555,0.0243471783333333,1.1700388555555554,1.2606777555555555,-0.0660620798888888,0.0269690617777777
496,1778289924530,-0.051107869,0.0225033,1.1884245666666666,1.2827538333333337,-0.0900878904444444,0.0207587346666666
497,1778289924540,-0.057778597,0.03194028,1.2244635666666666,1.3770904333333334,-0.0684305833333333,0.025136312
498,1778289924550,-0.059649783,0.03706491,1.2230408666666666,1.4635518,-0.0966644266666666,0.0306447353333333
499,1778289924560,-0.0624697814444444,0.0383256733333333,1.2170617888888888,1.4932606666666668,-0.1274397077777777,0.0337253155555555
500,1778289924570,-0.0675000453333333,0.0498780383333333,1.2172645,1.6141103333333335,-0.2756296833333333,0.07289632
501,1778289924580,-0.0604905775555555,0.0559250405555555,1.2164781777777778,1.6586727666666667,-0.3272366,0.0879855671111111
502,1778289924590,-0.0413591098888888,0.0739175861111111,1.191367,1.741765377777778,-0.3758205833333333,0.1010674346666666
503,1778289924600,-0.0369928398,0.079173357,1.1807857199999998,1.76520084,-0.380413818,0.10229492
504,1778289924610,-0.036260232,0.08071137,1.1757339,1.7715912,-0.37434387,0.10005188
505,1778289924620,-0.0160847226666666,0.1094683666666666,1.134095022222222,1.768692,-0.3058742933333333,0.0846676283333333
506,1778289924630,-0.0003560210222222,0.1190541488888888,1.1231257555555556,1.7617102666666666,-0.2617289177777778,0.0707041396666666
507,1778289924640,0.0300696131111111,0.1236098422222222,1.1928174444444446,1.8449147333333331,-0.2821960466666666,-0.0054066976666666
508,1778289924650,0.0084432313333333,0.1312839966666666,1.247364011111111,1.9583672444444444,-0.2769283733333333,-0.0491417788888888
509,1778289924660,-0.0266606236666666,0.13562278,1.2579805666666666,2.061347111111111,-0.2632022444444444,-0.061687894
510,1778289924670,-0.0401109621111111,0.1386873266666666,1.2612618333333332,2.157521533333333,-0.2639126277777778,-0.0525190562222222
511,1778289924680,-0.0609912577777777,0.1516910844444444,1.2477982444444444,2.318372977777778,-0.2448527133333333,-0.0185428196
512,1778289924690,-0.0371630047999999,0.17577066,1.13465874,2.44057924,-0.1720458984,0.0131317144799999
513,1778289924700,-0.0246408088888888,0.1906309888888889,1.0284714955555556,2.5198245666666663,-0.10571628,0.0392795146666666
514,1778289924710,-0.0247773422222222,0.2115118055555555,0.9426453844444443,2.4925995333333333,-0.106959024,0.0711263043333333
515,1778289924720,-0.0123843506666666,0.2390626433333333,0.91780654,2.4822421555555554,-0.099149916,0.0956285288888889
516,1778289924730,-0.0030285993333333,0.248052,0.9123559644444446,2.485321,-0.089920044,0.1048584
517,1778289924740,0.0338520781111111,0.2750071311111111,0.8496868833333333,2.501771666666667,-0.1366085444444444,0.0827229811111111
518,1778289924750,0.0352891246666666,0.29145376,0.82433232,2.5018310666666665,-0.1545359266666666,0.066151938
519,1778289924760,0.0098526251666666,0.3062466,0.7675073933333333,2.4860297555555553,-0.0864783388888889,0.0463273784444444
520,1778289924770,0.0046332867333333,0.3193307166666667,0.7270073933333333,2.4447207555555557,-0.09583198,0.0331895611111111
521,1778289924780,0.0079147300777777,0.3272492522222222,0.7235365266666667,2.423950111111111,-0.1355421316666666,0.0310584175555555
522,1778289924790,0.00781604598,0.347781852,0.6619442799999999,2.39296264,-0.0117156978,0.0329528807999999
523,1778289924800,0.0254857538333333,0.3664603133333333,0.6080562466666666,2.359912444444445,0.0576934817777777,0.0321892628888888
524,1778289924810,0.0237773706666666,0.4066485366666666,0.5993110833333333,2.258590666666666,0.2083587666666666,0.0171508786666666
525,1778289924820,0.0151811891111111,0.4184447611111111,0.5906066999999999,2.1956210666666665,0.3281995944444444,0.0098690455333333
526,1778289924830,0.009012173,0.41153,0.5814547,2.1577454,0.4080963,0.0063171387
527,1778289924840,0.0067754621777777,0.4467689933333333,0.5955693944444445,2.136327177777778,0.5667690533333334,0.0198143854888888
528,1778289924850,0.0098806233333333,0.4657376622222223,0.5916507544444445,2.1320089666666666,0.6410437444444443,0.0259128148888888
529,1778289924860,0.0018372764,0.4953149,0.509189036,2.11332708,0.6445953400000001,0.0213317869999999
530,1778289924870,-0.0064317117222222,0.5149966444444445,0.4529176044444444,2.0833588,0.6168975866666666,0.027089437
531,1778289924880,-0.0023101621666666,0.5237015244444445,0.4176653,2.0637105333333334,0.5848202144444444,0.027862549
532,1778289924890,-0.0099027446,0.5581548244444444,0.2878268266666667,1.9373643444444444,0.3888685455555555,0.026201036
533,1778289924900,-0.0007371013333333,0.5714966333333334,0.2609531044444445,1.901087422222222,0.3369072844444444,0.027264065
534,1778289924910,0.0443460611111111,0.6164835722222223,0.1748950188888889,1.658910111111111,-0.0127343055555555,-0.0004340278888888
535,1778289924920,0.0375664495555555,0.6324284833333333,0.1259756482222222,1.5178832666666666,-0.2077992766666666,-0.0210316976666666
536,1778289924930,-0.0257662513333333,0.62388741,0.1664483313333333,1.3009270444444443,-0.3903215166666667,-0.0314449727777777
537,1778289924940,-0.04211799,0.62117577,0.17851537,1.0674591,-0.5687561,-0.04269409
538,1778289924950,-0.0685173033333333,0.6180436633333334,0.2679625733333333,1.0070902466666665,-0.6115417466666666,-0.034347533
539,1778289924960,-0.1098167868888888,0.6479000277777778,0.5776722866666666,0.8683675266666666,-0.5796949599999999,0.0126461454444444
540,1778289924970,-0.0545647286666666,0.6948396888888888,0.6821953833333333,0.8719228122222222,-0.3732198,0.0222371422222222
541,1778289924980,0.0055134888888888,0.7269876888888889,0.7395625022222222,0.89967854,-0.1875050855555555,0.0143534341111111
542,1778289924990,0.0501766838888888,0.7473261755555556,0.7615682133333334,0.9419352,-0.0190684006666666,-0.0167744956666666
543,1778289925000,0.0598307318888888,0.7525327311111112,0.7618938133333333,0.9666730888888888,0.0585191508888888,-0.0357089571111111
544,1778289925010,0.0251202276,0.7532915866666667,0.7079170533333333,1.0200449833333334,0.1334431933333333,-0.0583190913333333
545,1778289925020,-0.0209463803799999,0.75135501,0.6731835349999999,1.04918522,0.13039398,-0.0393371585
546,1778289925030,-0.0501177486666666,0.7487628288888889,0.6425913555555556,1.0950944777777776,0.0429501002222222,0.0231306273333333
547,1778289925040,-0.0351216553333333,0.7516646,0.6379537333333334,1.1258697777777775,-0.0166541206666666,0.057510375
548,1778289925050,-0.0239087183333333,0.7555559588888889,0.6428075333333333,1.1414948,-0.04624939,0.072891235
549,1778289925060,0.0154381809999999,0.7935202499999999,0.6695181066666667,1.2354125666666669,-0.0986175533333333,0.089940389
550,1778289925070,0.0309904275555555,0.8052622122222222,0.670087231111111,1.2571936555555554,-0.1119944255555555,0.084260728
551,1778289925080,0.033269656,0.8198514611111111,0.6978561999999999,1.357974588888889,-0.11441379,0.0601755755555555
552,1778289925090,0.027439376,0.8264275,0.7150757,1.4173889,-0.103759766,0.04786682
553,1778289925100,0.0261213032,0.83089376,0.69184158,1.43997192,-0.0606170658,0.0380645741599999
554,1778289925110,0.0128229817777777,0.8510359555555556,0.5240604777777778,1.514217777777778,0.2634565483333333,-0.0248124863555555
555,1778289925120,0.0138531963333333,0.8527443433333333,0.5044136466666667,1.5091857666666668,0.3099161733333333,-0.0311431883333333
556,1778289925130,0.0368072257777777,0.8708725733333333,0.4658925044444444,1.5081159444444443,0.4333072222222222,-0.0507405584444444
557,1778289925140,0.039925867,0.8763371466666667,0.4560490366666667,1.5086517,0.46011861,-0.0563659656666666
558,1778289925150,0.0322520565555555,0.8775310133333334,0.4456635922222223,1.5068817,0.47468567,-0.0602722169999999
559,1778289925160,-0.0035971956666666,0.8651919733333334,0.4161864433333333,1.5876617333333334,0.3496856666666667,-0.04322815
560,1778289925170,-0.0153531513333333,0.86315799,0.3856792333333333,1.606952222222222,0.30234273,-0.0334625246666666
561,1778289925180,-0.0188848108,0.87218801,0.28621786,1.61383211,0.113774112,0.0078094484999999
562,1778289925190,-0.0211699485555555,0.8760927788888888,0.2376314855555555,1.5939314444444443,0.0546145966666666,0.0225931806666666
563,1778289925200,-0.0219832669999999,0.8799433277777777,0.1878714766666666,1.561618411111111,0.0778062588888888,0.0212334528888888
564,1778289925210,-0.0224308859999999,0.8829270166666666,0.1107094266666666,1.482615122222222,0.09946357,0.0211690265555555
565,1778289925220,-0.022959733,0.8823173,0.09724561,1.4664001,0.09970093,0.021759033
566,1778289925230,-0.0401116535555555,0.8873199222222222,0.0687855244444444,1.4200032333333334,0.0840776243333333,0.0321773947777777
567,1778289925240,-0.165587248,0.879021332,1.2442999999996706e-05,1.31502992,0.0123489379999999,0.0876541142
568,1778289925250,-0.0194335675555555,0.9458387366666666,0.1176919333333333,1.1130303444444445,-0.1773851177777777,0.2538113055555555
569,1778289925260,0.03676713,0.9634111422222222,0.1449721377777778,1.109595411111111,-0.1821187355555555,0.2638753277777778
570,1778289925270,0.0408611998571428,0.95161135,0.1100930330857142,1.0921848714285716,-0.2323564828571428,0.2575770857142857
571,1778289925280,-0.060574742625,0.92633875,0.0253702626999999,0.9062004125,-0.5812721225,0.2486686725
572,1778289925290,-0.0393982027857142,0.9380664214285714,0.0638615942857142,0.8776833714285714,-0.5807756742857143,0.2503422328571428
573,1778289925300,0.0314415040999999,0.92873603,0.1002469719999999,0.855465708,-0.5465942399999999,0.209469606
574,1778289925310,0.0589636646666666,0.9208774666666666,0.1012717633333333,0.8075324188888888,-0.4680853866666667,0.1382971888888889
575,1778289925320,0.054286133,0.9379613,0.11225398,0.7694876542857143,-0.3725956485714286,0.1140616271428571
576,1778289925330,0.0581083486666666,0.9420697466666668,0.12116297,0.6981608,-0.082280476,0.0681050633333333
577,1778289925340,0.0729824255555555,0.9375273777777776,0.1259352066666666,0.6777987888888889,-0.0339847142222222,0.0608300131111111
578,1778289925350,0.0526012878,0.96595472,0.106494212,0.64187927,0.105252078,0.0120666503999999
579,1778289925360,0.034150547,0.9711127333333334,0.081421684,0.5974985833333333,0.1952260366666666,-0.0125122066666666
580,1778289925370,0.033174254,0.969689,0.076377936,0.5838318,0.20996094,-0.013931274
581,1778289925380,0.038530124,0.9744347944444444,0.0746833798888889,0.5386098277777778,0.2709757466666667,-0.0431603335555555
582,1778289925390,0.027018545,0.9726725022222222,0.07983549,0.4843410922222222,0.2864769788888888,-0.05973138
583,1778289925400,0.0019486107999999,0.9656618355555556,0.1103829664444444,0.4050377733333333,0.2476637066666666,-0.0547027597777777
584,1778289925410,0.0031964128666666,0.9614317333333332,0.13259281,0.38230896,0.2310994466666666,-0.034347534
585,1778289925420,0.0084428853333333,0.960089922222222,0.1597373444444444,0.3804134822222222,0.2117445222222222,-0.0194363062222222
586,1778289925430,0.0126238866,0.964075756,0.202702354,0.4212646519999999,0.2428772,-0.0135040282
587,1778289925440,0.0147885293333333,0.9687531333333332,0.2146366666666666,0.4574178066666666,0.2871907566666666,-0.0144602456666666
588,1778289925450,0.0235746473333333,0.9827458,0.1612687533333333,0.5046386599999999,0.3340657566666666,-0.0311533609999999
589,1778289925460,0.027072296,0.9875049,0.1408086,0.5161743,0.34152222,-0.037902832
590,1778289925470,-0.0062416032222222,0.980848218888889,0.0723367511111111,0.5338151588888889,0.3648427311111111,-0.0624559155555555
591,1778289925480,-0.0189736793333333,0.9774179566666668,0.049897224,0.5250549233333334,0.34241231,-0.0577799453333333
592,1778289925490,-0.043135761,0.9744486133333334,0.0131262914333333,0.49469503,0.2618052133333333,-0.039494832
593,1778289925500,-0.0574529943333333,0.97094994,-0.0118497992333333,0.4528045633333334,0.0959828693333333,-0.0068308510666666
594,1778289925510,-0.0632288333333333,0.9677773733333334,-0.028811786,0.43380737,0.0296359593333333,0.0064849853111111
595,1778289925520,-0.0590530164444444,0.965391,-0.0521861277777777,0.3496500644444444,-0.1354319264444444,0.0414683022222222
596,1778289925530,-0.047926906,0.96341626,-0.058536818,0.302920533,-0.222064211,0.0588897704
597,1778289925540,-0.041385382,0.9617563,-0.05736589,0.29141235,-0.23692322,0.0622406
598,1778289925550,0.0128369805,0.9647261466666666,-0.0698539353333333,0.1119079593333333,-0.27455648,0.0517730706666666
599,1778289925560,0.0185175914444444,0.9686852333333332,-0.0556307186666666,0.0556945797777777,-0.2623087533333333,0.038930258
600,1778289925570,0.0197109532222222,0.9611325866666668,-0.0601730992222222,0.0028347436666666,-0.1883341455555555,0.0155453157777777
601,1778289925580,0.0206869,0.9579468622222224,-0.0686743983333333,-0.0162845187777777,-0.1596340622222222,0.0062510174444444
602,1778289925590,0.0255135791111111,0.9486184177777778,-0.0854868894444444,-0.0600806338888888,-0.1186794711111111,-0.0249989825555555
603,1778289925600,0.0104285498,0.932567368,-0.0857497272,-0.14993286,-0.04112854,-0.0846588148
604,1778289925610,-0.0057535427777777,0.9279275555555556,-0.0863138651111111,-0.1718699155555555,-0.0257602268888888,-0.089387682
605,1778289925620,-0.017224336,0.9160779333333332,-0.102963898,-0.2207590688888888,-0.0532735185555555,-0.0724555122222222
606,1778289925630,-0.0232716825555555,0.9137463111111112,-0.12947157,-0.2898813866666667,-0.1042989083333333,-0.051035562
607,1778289925640,-0.024790475,0.9162412,-0.14449497,-0.31793213,-0.12561035,-0.04269409
608,1778289925650,-0.0375629938888888,0.92052456,-0.1863640877777778,-0.4898512088888889,-0.2662845211111111,0.0021091037777777
609,1778289925660,-0.0388239311111111,0.9205921322222222,-0.1985126988888889,-0.5281422911111111,-0.2962900811111111,0.0103335911111111
610,1778289925670,-0.023041134,0.9074131233333332,-0.1741881633333333,-0.72983298,-0.4242299366666666,0.0340118406666666
611,1778289925680,-0.0160176667777777,0.9106947433333332,-0.1564671266666666,-0.7889540111111111,-0.4442918533333333,0.0396355518888888
612,1778289925690,-0.008803746,0.93100697,-0.1313158,-0.8244629,-0.42440796,0.033477783
613,1778289925700,0.0449706506666666,0.8782360188888889,-0.1208211217777777,-0.9641892866666666,-0.4395582444444444,-0.0237528487777777
614,1778289925710,0.056176761,0.8695650800000001,-0.1077027805,-1.03826292,-0.425045778,-0.059628296
615,1778289925720,0.07691525,0.8618429333333333,-0.1073702633333333,-1.1782413444444444,-0.3743387822222222,-0.1454315155555555
616,1778289925730,0.071084798,0.8565282133333333,-0.0951141533333333,-1.2637075,-0.3416748,-0.2070973733333333
617,1778289925740,0.0422455333333333,0.84941004,-0.0794131066666666,-1.3507080333333332,-0.3031514466666667,-0.2662150066666667
618,1778289925750,0.0215817921111111,0.8499522,-0.0698535922222222,-1.427697111111111,-0.2572869166666667,-0.3062828888888889
619,1778289925760,0.0105987135,0.853884,-0.06334497,-1.4886475,-0.216156,-0.33351135
620,1778289925770,-0.0397316121666666,0.8380745777777778,-0.0955337744444444,-1.5629255777777775,-0.1535407152222222,-0.3402557344444444
621,1778289925780,-0.1003801555555555,0.816678911111111,-0.1374849888888888,-1.7239074666666667,-0.0520985933333333,-0.3327941866666666
622,1778289925790,-0.127001652,0.7949685759999999,-0.151938334,-2.20696714,0.11856995,-0.2131317119999999
623,1778289925800,-0.1172878733333333,0.7605725866666666,-0.1059736566666666,-2.562616966666667,0.16770935,-0.068252562
624,1778289925810,-0.1088678,0.748939,-0.08140509,-2.6641693,0.1758728,-0.021377563
625,1778289925820,-0.0072000949999999,0.6813356785714285,0.1052463135714285,-2.8652735714285713,0.1257324228571428,0.0680302214285714
626,1778289925830,0.02389999125,0.6582720525,0.1871495875,-2.88667295,0.11928177,0.076225281
627,1778289925840,0.0821081462857142,0.6417801499999999,0.4348639257142857,-2.6867654571428576,0.0860879071428571,0.0246473041428571
628,1778289925850,0.083815386,0.647387634,0.542917656,-2.4767914,0.0846893307999999,-0.04386901852
629,1778289925860,0.079666115,0.6491207,0.55302143,-2.4431305,0.085861206,-0.055480957
630,1778289925870,0.0166124571428571,0.6710851571428572,0.5200909257142857,-2.2236109999999996,-0.0180075511428571,-0.0958077591428571
631,1778289925880,-0.0523278466666666,0.6837757,0.4746789866666666,-2.132431,-0.0757141126666666,-0.10376994
632,1778289925890,-0.121204714,0.68621665,0.4371434449999999,-2.16558072,-0.175878904,-0.0057754513
633,1778289925900,-0.1495174611111111,0.6713566222222221,0.4114551511111111,-2.2394307777777778,-0.1900499155555555,0.1058637824444444
634,1778289925910,-0.15182261,0.6666924,0.4067097,-2.2556458,-0.18579102,0.12776184
635,1778289925920,-0.0279628658333333,0.6424489111111111,0.3768397144444444,-2.4727817222222224,-0.0329844155555555,0.2420383088888888
636,1778289925930,0.0167817289444444,0.62962248,0.3810155277777778,-2.5695969888888888,0.0498741977777777,0.2489047666666666
637,1778289925940,0.0454994976666666,0.5647167266666666,0.5007936766666666,-2.7390950000000003,0.095453896,0.2010854066666666
638,1778289925950,0.0508005827777777,0.545748051111111,0.5556658666666666,-2.778923855555556,0.0693562824444444,0.1822085911111111
639,1778289925960,0.0839788116666666,0.5549548133333333,0.7999255266666667,-2.634521533333333,-0.1456553109999999,0.088521322
640,1778289925970,0.0781791229999999,0.56005122,0.946515592,-2.465767,-0.27926635,0.0190963745
641,1778289925980,0.0451197986666666,0.5602694333333332,0.9528284777777776,-2.3031074,-0.3169962488888889,-0.02357822
642,1778289925990,-0.0272713893333333,0.5601613666666667,0.8769266666666666,-2.1874694666666668,-0.2530771866666667,-0.0418090823333333
643,1778289926000,-0.046796209,0.56463582,0.8001707666666666,-2.135101333333333,-0.0595550546666666,-0.0208536786666666
644,1778289926010,-0.0438270625555555,0.5551848711111111,0.6669013333333333,-2.2390187444444445,0.1674092626666666,0.0401085746666666
645,1778289926020,-0.0270009174444444,0.5178985722222222,0.610293611111111,-2.379806533333334,0.2834659222222222,0.0884602848888889
646,1778289926030,-0.0122896410622222,0.49803536,0.5977925888888889,-2.4582197555555556,0.3229421066666667,0.1113637266666666
647,1778289926040,0.0171075060844444,0.4619004111111111,0.7188448222222221,-2.6606190666666665,0.3528900133333333,0.1119639093333333
648,1778289926050,0.0306121125555555,0.4299020733333333,0.8230304222222222,-2.6860673888888886,0.3074934199999999,0.0940280477777777
649,1778289926060,0.040862756,0.404513435,1.0377197,-2.50225835,0.005691525,0.063308715
650,1778289926070,0.0379748383333333,0.4023778233333333,1.2445582333333334,-2.140243566666667,-0.34202576,0.0166117353333333
651,1778289926080,0.016497432,0.4059169466666666,1.2506597,-1.965952588888889,-0.4352942611111111,-0.0033942331111111
652,1778289926090,-0.084544126,0.4137801888888888,1.0900433,-1.5384216,-0.700851448888889,0.0003323024444444
653,1778289926100,-0.0936556733333333,0.4116108833333333,1.0338967,-1.4945068,-0.7360077,0.008972168
654,1778289926110,-0.0738052466666666,0.4166556566666666,0.8919355666666667,-1.6472574888888891,-0.9422403966666668,0.16468472
655,1778289926120,-0.0363691095555555,0.4153406222222222,0.8945253555555556,-1.724789111111111,-0.9473334388888888,0.2191314711111111
656,1778289926130,0.0033720036666666,0.4019849966666667,0.941032588888889,-1.7626139555555556,-0.8865610666666667,0.2532196066666666
657,1778289926140,0.096970301,0.349538882,1.01138602,-1.72919618,-0.6180129900000001,0.268901063
658,1778289926150,0.1350403633333333,0.3515050155555556,1.0480651333333333,-1.6889292666666669,-0.5263112333333333,0.2511494966666666
659,1778289926160,0.1640427766666666,0.3475059855555555,1.1244004555555556,-1.4796617444444446,-0.2697109655555555,0.1272922086666666
660,1778289926170,0.1436913344444444,0.3383541722222222,1.1235197222222222,-1.3842570333333333,-0.16554769,0.074859618
661,1778289926180,0.12823449,0.33331043,1.1133783,-1.3586884,-0.1378479,0.0617218
662,1778289926190,0.0552342562222222,0.32311371,1.0266555222222222,-1.3676266,-0.0023210293333333,0.0558573402222222
663,1778289926200,0.042082213,0.32183912,1.0072123,-1.3879852,0.06455994,0.059051514
664,1778289926210,0.081827081,0.304120716,1.00715061,-1.49493869,0.253326418,0.0773666385
665,1778289926220,0.0886160733333333,0.2971082533333333,1.0000935133333335,-1.5176493444444443,0.2956034344444445,0.0768551294444444
666,1778289926230,0.0920865922222222,0.2715908955555555,0.9754446422222222,-1.5499657777777778,0.3838416155555555,0.0598720973333333
667,1778289926240,0.1035167711111111,0.2546833388888889,0.97844125,-1.5014394,0.3172047933333333,0.0281473793333333
668,1778289926250,0.1112725,0.24606001,0.98500377,-1.4748077,0.27548218,0.014297485
669,1778289926260,0.0439534,0.1988345166666666,0.93753356,-1.4249216666666669,-0.0165863,-0.0112660723333333
670,1778289926270,0.014162209,0.176600962,0.92130417,-1.43981627,-0.146321105,-0.00945434541
671,1778289926280,0.0245104982777777,0.1663887111111111,1.0647561522222222,-1.5423838666666667,-0.4214545388888889,0.0383995890333333
672,1778289926290,0.0687656513333333,0.15823929,1.135953233333333,-1.5178290444444444,-0.4452379033333333,0.0381028922222222
673,1778289926300,0.0929541755555555,0.1536426444444444,1.1634097,-1.5055219666666668,-0.4432237422222223,0.0348476844444444
674,1778289926310,0.1165741035555555,0.1536837688888889,1.1640463666666667,-1.413197788888889,-0.3645223088888889,-0.0158827037777777
675,1778289926320,0.1099711206666666,0.1531955366666666,1.1518571333333334,-1.3675062333333332,-0.3363511888888889,-0.0342339411111111
676,1778289926330,0.0634372577777777,0.1339150922222222,1.0655153777777775,-1.3065474,-0.28397115,-0.0398542622222222
677,1778289926340,0.0346867558,0.113536896,1.00865226,-1.30692136,-0.158200072,-0.0209564214
678,1778289926350,0.034393713,0.10841206,1.0053815,-1.3273908444444444,-0.06754557,-0.0100758873
679,1778289926360,0.1057809562222222,0.0938758566666666,1.0381528999999998,-1.4155036111111112,0.2491997588888888,-0.0261789960888888
680,1778289926370,0.1283967666666666,0.0840456966666666,1.0673312666666666,-1.4653930333333334,0.3367258666666666,-0.0524597166666666
681,1778289926380,0.1179973244444444,0.0648597866666666,1.1801540666666668,-1.4501342333333334,0.27423604,-0.1046549473333333
682,1778289926390,0.1021203373333333,0.0537007726666666,1.2493982666666663,-1.4185282,0.21973165,-0.1247151706666666
683,1778289926400,0.09065058,0.049714718,1.2615192,-1.3922424,0.18919373,-0.13110352
684,1778289926410,0.0482247878888888,0.044210219,1.267214788888889,-1.1813235666666668,0.0523037393333333,-0.1069013799999999
685,1778289926420,0.0259610247777777,0.0420682172222222,1.2348638777777778,-1.1387735822222222,0.0202857124444444,-0.1015184157777777
686,1778289926430,0.0111545221111111,0.0349498666666666,1.0774061888888888,-0.9512871822222222,-0.0142873133333333,0.0319993762222222
687,1778289926440,0.0342856982222222,0.0332822711111111,1.066870888888889,-0.9618835666666666,-0.0075429281999999,0.057978312
688,1778289926450,0.05522043,0.026773652,1.112319533333333,-0.9767914000000002,0.0357869459,0.0776824933333333
689,1778289926460,0.0742566708888888,0.0206858627777777,1.176479211111111,-0.9585673222222222,0.1252119244444444,0.0788709822222222
690,1778289926470,0.08662201,0.018354097,1.2097793,-0.9405823,0.18013,0.07556152
691,1778289926480,0.07871544,0.00641864606,1.22649802,-0.847579968,0.283462524,0.062884522
692,1778289926490,0.0603732311111111,-0.0002089463666666,1.2214265444444443,-0.7778862944444445,0.3631235711111111,0.0678083633333333
693,1778289926500,0.06303077,0.0029376925999999,1.1928177666666668,-0.71846517,0.4304758666666666,0.0728912366666666
694,1778289926510,0.0729964266666666,0.008835372,1.1599105333333335,-0.6823679466666666,0.4397091333333333,0.0643717466666666
695,1778289926520,0.0741894448888888,0.01013675,1.1466771111111111,-0.6650322588888888,0.4340871177777777,0.0559709351111111
696,1778289926530,0.0603865386666666,0.0055814086666666,1.1303796666666668,-0.64443971,0.3706410733333333,0.0132395427033333
697,1778289926540,0.0488208646666666,0.0003746864444444,1.1356269888888888,-0.6296403777777777,0.3090922111111111,-0.0029178195694444
698,1778289926550,0.0102599753888888,-0.0095513894444444,1.1584875888888888,-0.5453084322222223,0.1144493966666666,-0.0056389702555555
699,1778289926560,-0.0075023675,-0.0098769936666666,1.1751642333333332,-0.49263509,0.013239542,-0.0032755533666666
700,1778289926570,-0.013050853,-0.0093724117,1.1805291,-0.470103452,-0.0259490967999999,0.0001312256399999
701,1778289926580,0.0001990952888888,-0.0113273477777777,1.1582167,-0.3746897366666666,-0.2431386288888889,0.0320010715555555
702,1778289926590,0.0102463220888888,-0.0091715188888888,1.146311588888889,-0.3553890644444444,-0.3273518844444444,0.0365549721111111
703,1778289926600,0.0082940822222222,-0.0160582800444444,1.1312349222222222,-0.3355051666666667,-0.4682006844444444,0.0528988294444444
704,1778289926610,0.023656047,-0.0153676683333333,1.1405905333333335,-0.3317786311111111,-0.4698588066666666,0.0577511246666666
705,1778289926620,0.031831916,-0.014473295,1.1457157,-0.32432556,-0.43133545,0.068099976
706,1778289926630,0.0552204326666666,-0.017319736,1.1679651333333334,-0.2536621,-0.2349701,0.0414733893333333
707,1778289926640,0.0539921596,-0.0206468052,1.16584984,-0.225363154,-0.188024908,0.0333770754
708,1778289926650,0.0359812913333333,-0.0378612886666666,1.1311931333333334,-0.1377207433333333,-0.1792195666666666,0.0258433023333333
709,1778289926660,0.0237784086666666,-0.0465665226666666,1.1158176666666666,-0.0995483383333333,-0.21082052,0.034011841
710,1778289926670,0.009297336,-0.0518539566666666,1.090029666666667,-0.0658162436666666,-0.28964742,0.0769805923333333
711,1778289926680,0.0153035501111111,-0.0528572116666666,1.0812300666666668,-0.0651618113333333,-0.316816541111111,0.1069827616666666
712,1778289926690,0.021702943,-0.053887945,1.0798198,-0.06918335,-0.32321167,0.119766235
713,1778289926700,0.053607101,-0.0527754646666666,1.1029237222222223,-0.1120334188888888,-0.20520189,0.14687432
714,1778289926710,0.067707956,-0.052911133,1.1281425,-0.124572754,-0.13465881,0.15066528
715,1778289926720,0.0921137242222222,-0.0556236333333333,1.138162877777778,-0.103685166,0.0553181993333333,0.1194695344444444
716,1778289926730,0.113306484,-0.0594200986666666,1.1449835666666666,-0.0484110513333333,0.1982472766666666,0.0771636966666666
717,1778289926740,0.104276164,-0.0597856253333333,1.1387603,-0.0141499833333333,0.21262614,0.0602976486666666
718,1778289926750,0.0643650224,-0.0622589712,1.11986978,0.0652587888,0.168310552,0.0421112052
719,1778289926760,0.0587999966666666,-0.0608438366666666,1.1052418333333334,0.1032206216666666,0.1181742373333333,0.040583292
720,1778289926770,0.0613090818888888,-0.0589859588888888,1.1035611222222224,0.1348130977777777,0.0532531746666666,0.042885674
721,1778289926780,0.0643459776666666,-0.0584978988888888,1.1132421222222222,0.1538696311111111,0.0436604822222222,0.0409901933333333
722,1778289926790,0.0685485831111111,-0.0583217888888888,1.1234109777777777,0.17103577,0.04750061,0.037734985
723,1778289926800,0.083870625,-0.0526406588888888,1.1118181555555555,0.21033393,0.1342756511111111,0.0161404081111111
724,1778289926810,0.089890495,-0.0467835933333333,1.1022184222222222,0.2251247833333333,0.1710866333333333,0.0013427733111111
725,1778289926820,0.0680335619999999,-0.0435567623333333,1.0796575333333334,0.2695719433333333,0.1929168733333333,-0.031860352
726,1778289926830,0.0507456612,-0.0407336524,1.06029476,0.29908142,0.194406126,-0.0403442383999999
727,1778289926840,0.04732869,-0.03961063,1.0519962,0.30858611625,0.188587185,-0.039489746
728,1778289926850,0.0419598523333333,-0.0338747183333333,1.0218157,0.3105824766666666,0.1362864166666667,-0.0352274573333333
729,1778289926860,0.0346993555,-0.034241282,1.02496825,0.30632019,0.118087765,-0.0285720825
730,1778289926870,0.0117846201428571,-0.0405523365714285,1.0586387714285714,0.3107321542857142,0.1598118371428571,0.0047127862857142
731,1778289926880,0.0246732999999999,-0.0350962523333333,1.0647689666666666,0.3251444466666667,0.1819102,0.0198109946666666
732,1778289926890,0.0412011475555555,-0.0282217602222222,1.0655152111111112,0.3447350388888888,0.1672380277777777,0.0253787574444444
733,1778289926900,0.043668754,-0.027164066,1.0655425,0.34840393,0.16096497,0.025497437
734,1778289926910,0.0498111559999999,-0.0273268673333333,1.0703016,0.36136373,0.15155538,0.0201670333333333
735,1778289926920,0.0525767146666666,-0.0253742813333333,1.0790058666666669,0.4013705733333333,0.1091189902222222,-0.0070614284444444
736,1778289926930,0.0300254378,-0.0224778596,1.08233276,0.41210632,0.0793640143999999,-0.009561157
737,1778289926940,0.0089717318666666,-0.022038398,1.1057301333333334,0.4290110266666667,0.0292256676666666,0.0050710043333333
738,1778289926950,0.0174732054333333,-0.0158965156666666,1.140182466666667,0.4622141466666667,-0.0116119381666666,0.0258433026666666
739,1778289926960,0.028618394,-0.0098764753333333,1.1582426,0.4860026,-0.0215555823333333,0.0340118406666666
740,1778289926970,0.0441561253333333,0.0007803084,1.1666222,0.5252329666666666,0.0136566162222222,0.0364447699999999
741,1778289926980,0.0503389686666666,0.0041566329666666,1.1638965666666667,0.5418040111111111,0.0447879366666666,0.0359700528888888
742,1778289926990,0.0358589306666666,0.0134321932333333,1.1567385,0.5606282333333333,0.1142103417777777,0.0290442574444444
743,1778289927000,0.0159680655,0.018781065,1.1570027,0.57051085,0.14684296,0.0324172985
744,1778289927010,0.0050530805777777,0.0208757997777777,1.1635441000000002,0.5698581222222221,0.1388804155555555,0.0449015311111111
745,1778289927020,0.0011619077333333,0.023845292,1.1806963333333331,0.5676625566666667,0.1485341399999999,0.0839080806666666
746,1778289927030,0.0037790085555555,0.0253632207777777,1.1872854888888889,0.5664215066666667,0.1570587166666666,0.0986429839999999
747,1778289927040,0.0239814775555555,0.0369563741111111,1.2084376555555556,0.5748918222222222,0.1853451222222222,0.12396749
748,1778289927050,0.037810996,0.045200855,1.2211293,0.5822296,0.20570374,0.13627625
749,1778289927060,0.0437904231111111,0.0464481388888888,1.2247901,0.5958997811111111,0.2084859255555555,0.1316019733333333
750,1778289927070,0.0800470311111111,0.0644944388888889,1.2728691666666667,0.7980685755555555,0.2220323377777777,0.0697597933333333
751,1778289927080,0.0631123488888888,0.070256965,1.2699670555555556,0.9089152044444444,0.2299024822222222,0.0524156366666666
752,1778289927090,0.025283548,0.0818898656666666,1.2524483666666668,1.0328369333333332,0.2697957333333333,0.0377400726666666
753,1778289927100,0.0173838196,0.0934254724,1.2194683400000002,1.09142456,0.30924682,0.027194214
754,1778289927110,0.014720436,0.0988380322222222,1.1888583444444445,1.1145053333333332,0.3312852599999999,0.0193328851111111
755,1778289927120,-0.0163164821111111,0.1030141933333333,1.1376072222222222,1.1211276444444445,0.3702240044444444,-0.0005459255888888
756,1778289927130,-0.0200585056666666,0.1068920555555555,1.1389632444444444,1.1223093666666668,0.37489828,-0.0041554769333333
757,1778289927140,-0.0129807714444444,0.1222953266666666,1.1557893777777777,1.1691877888888889,0.2765333422222222,-0.0120934378888888
758,1778289927150,-0.0126285523333333,0.1276916366666666,1.1682902,1.212509133333333,0.1719665566666667,-0.0171254476666666
759,1778289927160,-0.0332375073333333,0.1302136866666666,1.1465141111111112,1.2315063,0.12580872,-0.019256592
760,1778289927170,-0.04533151,0.1322475,1.110286,1.3026936999999998,-0.1607615183333333,0.0128885903333333
761,1778289927180,-0.048585474,0.13306099,1.0959278,1.3087311,-0.22094727,0.026031494
762,1778289927190,-0.0212790011111111,0.1510130988888888,1.1384206,1.3362562555555555,-0.3332061744444444,0.0568593348888889
763,1778289927200,-0.00598561372,0.157613335,1.16124956,1.36466218,-0.354627992,0.068740845
764,1778289927210,0.0176769663555555,0.1726650655555555,1.1594365444444443,1.4411824666666666,-0.2617797866666667,0.0578053793333333
765,1778289927220,0.0288764233333333,0.1797972344444444,1.1675718333333334,1.509416366666667,-0.1816474077777777,0.0350155299999999
766,1778289927230,0.037689675,0.18345854,1.1802495,1.5585327,-0.13252258,0.014297485
767,1778289927240,0.0292825636666666,0.1912953333333333,1.1675851000000002,1.6399112222222223,-0.0958930111111111,-0.0046403673999999
768,1778289927250,0.0180290126666666,0.2029828444444444,1.1035608444444445,1.781834911111111,-0.0355292417777777,-0.0328080911111111
769,1778289927260,-0.0102824424444444,0.2174912222222222,1.0134225666666667,1.832900966666667,0.0122375488888888,-0.0274827743333333
770,1778289927270,-0.015191386,0.22787702,0.9627123866666668,1.817574388888889,0.048692491,-0.0106133355777777
771,1778289927280,-0.014174652,0.23141563,0.94668573,1.8115387000000005,0.056030273,-0.0064697266
772,1778289927290,-0.0008995581333333,0.2599429333333333,0.9430657044444444,1.7265574333333331,0.0460849347777777,0.0124715168888888
773,1778289927300,0.0027400491,0.273295464,0.96469731,1.70346834,0.0443603529,0.0178222655
774,1778289927310,-0.0002203528666666,0.2825048133333333,0.9448555,1.6948903333333332,0.038808187,0.020696004
775,1778289927320,-0.0065530354666666,0.2884572911111111,0.9365035111111112,1.6911706,0.0160793728888888,0.0300496424444444
776,1778289927330,-0.01002476,0.29035562,0.93851036,1.6911774,0.001159668,0.03668213
777,1778289927340,0.0085377666666666,0.3051341266666666,0.9256970688888888,1.7464464,-0.0275997587777777,0.0387471522222222
778,1778289927350,0.0082396423333333,0.32399443,0.8933997166666666,1.7904154666666665,-0.1133524579999999,0.0409342446666666
779,1778289927360,-0.0096579882,0.349783698,0.84881915,1.81932376,-0.243743896,0.0460510248
780,1778289927370,-0.0101331208888888,0.3674369522222222,0.7814187977777778,1.792131222222222,-0.2767571377777778,0.0465613468888888
781,1778289927380,-0.010268962,0.37223667,0.76376534,1.783844,-0.28433228,0.046798706
782,1778289927390,0.0141782803333333,0.3913140333333333,0.7663276666666667,1.684422833333333,-0.2541402133333333,0.0478617366666666
783,1778289927400,0.02730388,0.3918430611111111,0.7731338888888889,1.6710476555555556,-0.2246704066666666,0.0449625662222222
784,1778289927410,0.0314793537777777,0.4054015944444444,0.76814476,1.643759822222222,-0.1332414422222222,0.0347849524444444
785,1778289927420,0.0263673394444444,0.4175906555555555,0.7491087022222221,1.6225755333333334,-0.090037028,0.0299936927777777
786,1778289927430,0.009880277,0.4393794777777777,0.7350479233333334,1.5641665777777778,-0.1122843444444444,0.0371025931111111
787,1778289927440,0.0122577384,0.4651740399999999,0.74348436,1.48493652,-0.0909820579999999,0.0501068112
788,1778289927450,0.0221092575555555,0.4755140755555555,0.7557932222222222,1.4523129,-0.0576036252777777,0.0533701575555555
789,1778289927460,0.0705283017777777,0.4870116511111111,0.7929433444444444,1.4298147,0.1586507174999999,0.0356089273333333
790,1778289927470,0.082270431,0.4881640566666667,0.7968753,1.4288703555555555,0.2504475922222222,0.0244835748888888
791,1778289927480,0.0748130011111111,0.5050851066666666,0.7894042200000001,1.4790005444444445,0.3585645911111111,-0.0260620118888888
792,1778289927490,0.034353792,0.5181828866666667,0.7743002733333334,1.5205485,0.32554118,-0.045705159
793,1778289927500,0.0096225247,0.523820705,0.764937048,1.54048613,0.289216615,-0.047906493
794,1778289927510,-0.005753543,0.5474296633333333,0.7202827199999999,1.5713246333333333,0.1852823933333333,-0.027781168
795,1778289927520,-0.00371955641,0.5595511466666667,0.6953885333333333,1.5773620333333334,0.1295318633333333,-0.0165964763333333
796,1778289927530,0.02670642265,0.5782619488888889,0.6765954822222222,1.5482448999999998,0.0882246233333333,-0.0221540661111111
797,1778289927540,0.0620949211111111,0.6010949777777779,0.6703452777777777,1.5076497333333334,0.1049160455555555,-0.0549960655555555
798,1778289927550,0.06514616,0.607264,0.6734648,1.4946289,0.13539124,-0.07571411
799,1778289927560,0.0511261879999999,0.6165374888888889,0.6833621333333333,1.4636196777777777,0.2219187444444444,-0.1347757988888888
800,1778289927570,0.0268286113333333,0.6191003199999999,0.70494771,1.4598338,0.2154693633333333,-0.1513468433333333
801,1778289927580,-0.0384946094,0.613963553,0.759421194,1.50235287,0.175080874,-0.135848998
802,1778289927590,-0.0580642773333333,0.6185724966666667,0.7521317833333333,1.5807342333333334,0.1726786299999999,-0.0780232746666666
803,1778289927600,-0.0549862506666666,0.6254604655555556,0.7350206477777778,1.6228705555555554,0.1512535944444444,-0.0436401369999999
804,1778289927610,-0.0203429784444444,0.6529841777777778,0.6711454066666667,1.6887376777777776,-0.0202619766666666,0.0168507892222222
805,1778289927620,-0.0153801126666666,0.6613904355555555,0.6545496333333333,1.7050713666666666,-0.0747087255555555,0.0294002956666666
806,1778289927630,0.0071415063333333,0.6921143766666666,0.5716114333333333,1.7087453,-0.10429382,0.0341898599999999
807,1778289927640,0.0200225576666666,0.7181472999999999,0.48796668,1.6475524444444445,-0.1076049794444444,0.021467421
808,1778289927650,0.0202638574,0.724094068,0.470603112,1.6062652199999998,-0.1016265859999999,0.0160095218
809,1778289927660,0.0229642261111111,0.7413731933333333,0.4862994355555556,1.4427795333333333,0.0072716615555555,-0.0045216874444444
810,1778289927670,0.0249978663333333,0.7441803666666666,0.5044955866666666,1.4092271777777776,0.0810631647777777,-0.0157606334444444
811,1778289927680,0.0127141013333333,0.7552042333333333,0.5031122766666667,1.3627742888888887,0.2147589766666666,-0.0310380724444444
812,1778289927690,0.0033996560666666,0.7611428866666666,0.5044546133333333,1.3506418666666666,0.25417582,-0.032755534
813,1778289927700,6.342707888888887e-05,0.7646533455555555,0.511884208888889,1.3682675111111111,0.3251902244444444,-0.0153503419999999
814,1778289927710,-0.0270952804822222,0.7844353488888889,0.4812817866666667,1.3792165333333335,0.33228556,0.0032958983333333
815,1778289927720,-0.0415082596666666,0.7926658333333333,0.4616626033333333,1.3845469333333331,0.3404541,0.024780274
816,1778289927730,-0.043949251,0.7955133000000001,0.3831578566666666,1.3721160666666667,0.3291015666666667,0.0780436206666666
817,1778289927740,-0.0307294608888888,0.794537,0.3426172622222222,1.3561367222222225,0.3015187588888889,0.0960337311111111
818,1778289927750,0.005594889,0.8108685,0.30225312,1.2483337200000002,0.278994752,0.088241578
819,1778289927760,0.0388686913333333,0.827607,0.2694272733333333,1.1210734,0.3012237466666667,0.064376832
820,1778289927770,0.045255296,0.8280954,0.2692240266666666,1.0628408,0.3069051,0.0476837156666666
821,1778289927780,0.0371196948888888,0.8356344044444444,0.3298046444444444,0.9674343444444444,0.2201436333333333,0.0097452797777777
822,1778289927790,0.0194252723333333,0.83501037,0.3705080666666667,0.9492085666666666,0.1439209,-0.00398763
823,1778289927800,-0.0056861415555555,0.841396468888889,0.4436299666666666,0.9777391111111112,0.1053348133333333,-0.0142296687777777
824,1778289927810,-0.0058759038666666,0.8527853200000001,0.43233546,1.0095180888888888,0.1625586622222222,-0.0280117455555555
825,1778289927820,-0.0050216258222222,0.8588051777777778,0.4153192077777777,1.0307040777777778,0.2136298288888889,-0.0387183288888888
826,1778289927830,0.0052293626666666,0.8733678266666667,0.3162862233333333,0.9852600333333332,0.2678426066666666,-0.04073588
827,1778289927840,0.0116564078888888,0.87824912,0.29909386,0.9630669711111112,0.2803259888888889,-0.0410902222222222
828,1778289927850,0.01157552575,0.88487986,0.3271777575,0.8868904099999999,0.3118324249999999,-0.055339813
829,1778289927860,-0.0133686264,0.88544152,0.38371887,0.876559444,0.31607056,-0.0612213128
830,1778289927870,-0.019055597,0.88549036,0.39609233,0.87783813,0.31596375,-0.06185913
831,1778289927880,-0.02586165,0.88581544,0.3985469777777777,0.9015095944444445,0.3034718833333333,-0.0585479733333333
832,1778289927890,-0.0460770822222222,0.8858564055555556,0.389123151111111,0.9399753,0.2757703933333333,-0.05281067
833,1778289927900,-0.0448431066666666,0.9083088977777778,0.3586978377777778,0.950922638888889,0.2458919955555555,-0.0507337788888888
834,1778289927910,-0.0516766355555555,0.9266401866666668,0.3237704333333333,0.9445275277777778,0.2321590844444444,-0.0452880855555555
835,1778289927920,-0.06286278,0.93003017,0.2977377,0.9326935,0.2259368899999999,-0.04055786
836,1778289927930,-0.0617789938888888,0.9424495822222224,0.2558680477777778,0.8369479733333334,0.2212032711111111,-0.0109066430744444
837,1778289927940,-0.0596912599999999,0.9473576500000002,0.24367864,0.8006134,0.22007751,-7.6293945e-05
838,1778289927950,-0.0487621045555555,0.9374872211111112,0.2564107188888889,0.7779439333333333,0.1883629688888889,0.0234764943516666
839,1778289927960,-0.0332508168888888,0.93051821,0.2613737522222222,0.7637363,0.1583591066666666,0.04306878
840,1778289927970,-0.0264132574,0.929542073,0.264632019,0.7649169849999999,0.14045258,0.047708131
841,1778289927980,-0.0161256828888888,0.9231969777777778,0.3197171622222222,0.8262888544444444,0.0275166828888888,0.0372144922222222
842,1778289927990,-0.0148920526666666,0.9256103055555556,0.3148899655555556,0.8508470277777778,0.0024159744444444,0.034783258
843,1778289928000,-0.0176038623333333,0.9315887333333333,0.2500386366666667,0.8838704333333333,-0.0607960999999999,0.0231831866666666
844,1778289928010,-0.0241117892222222,0.9318059444444444,0.2175247466666666,0.8734588666666667,-0.0929870588888888,0.0170864526666666
845,1778289928020,-0.0226883958888888,0.9302871266666666,0.2027453777777778,0.8420342555555556,-0.1021067299999999,0.0161963568888888
846,1778289928030,-0.0205197785555555,0.9333240333333332,0.2050232222222222,0.81942242,-0.089742026,0.0107523601466666
847,1778289928040,-0.023571018,0.9382055,0.20963335,0.80592346,-0.06594849,-0.00061035156
848,1778289928050,-0.0235841524444444,0.9382329933333332,0.2139316977777777,0.8060455200000001,-0.0615726061111111,-0.0014428032533333
849,1778289928060,-0.0294277366666666,0.93832736,0.19348538,0.81877305,-0.0841793464444444,0.0103420679555555
850,1778289928070,-0.0514472975555555,0.9431270755555556,0.1085397786666666,0.8055182444444444,-0.1764390722222222,0.069281682
851,1778289928080,-0.0592023353333333,0.94158236,0.0762970546666666,0.7816060333333333,-0.2532552166666666,0.1025390633333333
852,1778289928090,-0.060422312,0.94015914,0.07064306,0.7734375,-0.281662,0.11230469
853,1778289928100,-0.0347153424444444,0.9509907888888888,0.0118382205555555,0.7093505866666666,-0.3968861933333333,0.1337992366666666
854,1778289928110,-0.027719354,0.9566311,-0.012459011,0.69088745,-0.41108704,0.13362122
855,1778289928120,0.0178656935555555,0.9496489955555556,-0.0447159061111111,0.5657229955555555,-0.3771837011111111,0.1014217811111111
856,1778289928130,0.0474515655,0.94333068,-0.054132925,0.4826278699999999,-0.33412933,0.06250763
857,1778289928140,0.055993997,0.9404017999999998,-0.05150969,0.45439148,-0.3104248,0.03933716
858,1778289928150,0.0447672352222222,0.941324,-0.0300862048888888,0.4162835,-0.2205861399999999,-0.0035705559999999
859,1778289928160,0.019140629,0.9423139333333334,-0.007456223,0.3762766466666666,-0.0877838146666666,-0.061157228
860,1778289928170,-0.0293463363333333,0.9445910666666668,-0.0626139173333333,0.3176829,0.100774132,-0.11477661
861,1778289928180,-0.0524175923,0.945380715,-0.1206379079999999,0.250392151,0.167195132,-0.1104980458
862,1778289928190,-0.056883704,0.9451614000000002,-0.13546413,0.23121643,0.17694092,-0.105545044
863,1778289928200,-0.0444770606666666,0.94235435,-0.1630025333333333,0.03823343836,0.0911865266666666,-0.0416259773333333
864,1778289928210,-0.042077029,0.9419883,-0.1491721466666666,-0.0274658203066666,0.0578104666666666,-0.020675659
865,1778289928220,-0.032722313,0.9441576333333332,-0.1075740244444444,-0.1756625662222222,0.0362718373333333,0.0235917827777777
866,1778289928230,-0.0264447633333333,0.94409005,-0.09603566,-0.2113444,0.0443810361111111,0.0275590682222222
867,1778289928240,-0.0088452236,0.94259855,-0.06777899,-0.3154449466666666,0.10450236,-0.0013275146666666
868,1778289928250,-0.00624210412,0.93797387,-0.0573775545,-0.3827499399999999,0.169425966,-0.0384338385
869,1778289928260,-0.008072692,0.9362534,-0.057487212,-0.39569092,0.18652344,-0.04801941
870,1778289928270,-0.0112051595555555,0.9359682555555556,-0.0838460806666666,-0.4806145588888888,0.2235090455555556,-0.0779012044444444
871,1778289928280,-0.0130628637777777,0.9308700722222222,-0.1021911922222222,-0.55672201,0.2527448833333333,-0.10405816
872,1778289928290,-0.043867334,0.9201853033333334,-0.0943006566666666,-0.6865081666666666,0.2131602,-0.104482016
873,1778289928300,-0.05265345,0.91009781,-0.0754674866666666,-0.7957000666666666,0.1300710033333333,-0.0876108813333333
874,1778289928310,-0.05200276,0.9064778,-0.0688372,-0.82499695,0.09811401,-0.08103943
875,1778289928320,-0.0437776359,0.898070221,-0.0313858186,-0.948939508,-0.0759033179,-0.0362503052999999
876,1778289928330,-0.0415485285555555,0.8945052899999999,-0.0138962297777777,-0.9890492666666666,-0.1596883133333333,-0.0194396973333333
877,1778289928340,-0.0341458831111111,0.8779918,0.0179947941111111,-1.0266875999999998,-0.2896525066666667,-0.0023905436
878,1778289928350,-0.0292374577777777,0.8676457444444444,-0.0021138318888888,-1.0482855666666666,-0.3372972266666666,-0.0081295436222222
879,1778289928360,-0.026742544,0.8610825,-0.018439647,-1.0620117,-0.35836792,-0.012863159
880,1778289928370,-0.0222145074444444,0.8503856333333333,-0.0442136763333333,-1.1036817666666667,-0.4138743088888889,-0.0483737514444444
881,1778289928380,-0.0277191814444444,0.8461960266666666,-0.0311157286666666,-1.2124532,-0.5321146666666666,-0.1154819055555555
882,1778289928390,-0.0516851391999999,0.836336216,0.0071384998,-1.3068054,-0.6076355,-0.1332336419999999
883,1778289928400,-0.0812754733333333,0.8210584999999999,0.0633613888888888,-1.4359232333333332,-0.63319905,-0.0838826493333333
884,1778289928410,-0.08311918,0.8193503,0.07369326,-1.4694824,-0.6284027,-0.065597534
885,1778289928420,-0.0391626702222222,0.8064277333333334,0.1722789555555555,-1.5850575666666666,-0.5335998466666667,0.0553181975
886,1778289928430,-0.025196964,0.8038246222222223,0.1881972466666666,-1.6025203888888888,-0.4945966888888889,0.0884636782222222
887,1778289928440,-0.0061595111999999,0.8041775499999999,0.1688753233333333,-1.6500498666666668,-0.41624451,0.1156870526666666
888,1778289928450,0.0080773584,0.8079603666666667,0.1412560433333333,-1.7279917666666669,-0.3729197133333333,0.1091156019999999
889,1778289928460,0.01926247,0.8027942666666666,0.1563473666666666,-1.8551652777777776,-0.3533867666666667,0.0728403738888888
890,1778289928470,0.028707988,0.7866215,0.22683954,-2.0041352,-0.30828857,0.019848633002
891,1778289928480,0.03280873,0.777982,0.26613286,-2.050583,-0.28485107,0.00045776367
892,1778289928490,0.0304216588888888,0.7446819288888888,0.3811650199999999,-2.100767355555556,-0.1373765748888888,-0.0345764160366666
893,1778289928500,0.017513128,0.7221337,0.4695953066666666,-2.0784607,-0.0103708906666666,-0.0448150633333333
894,1778289928510,-0.010309404,0.7127783,0.4863535266666667,-1.996729522222222,0.1038547066666666,-0.0189565023333333
895,1778289928520,-0.0301727902222222,0.7143376888888889,0.4608358022222222,-1.9417470444444445,0.1376512277777778,0.0275065104444444
896,1778289928530,-0.0445180217777777,0.7172394355555556,0.4265323044444444,-1.920259288888889,0.1433902288888889,0.0597042508888888
897,1778289928540,-0.0465927944444444,0.7284793377777778,0.3284075222222222,-2.056147288888889,0.1406623022222222,0.1322564004444444
898,1778289928550,-0.025603448,0.7249806266666666,0.3167741,-2.222803766666667,0.18670654,0.15545654
899,1778289928560,0.0389710407,0.67939485,0.406733678,-2.4649658000000003,0.298162836,0.127011107
900,1778289928570,0.0552613908888888,0.6646304333333333,0.4484027333333333,-2.5300665777777778,0.3267856111111111,0.1018964961111111
901,1778289928580,0.0719110811111111,0.6510445777777778,0.526555591111111,-2.5361667333333333,0.3532477377777778,0.0566847031111111
902,1778289928590,0.0953542055555555,0.6013117322222222,0.7997095133333333,-2.399459844444445,0.4278140555555556,-0.1463165257777777
903,1778289928600,0.0511802806222222,0.5946676166666667,0.8116410599999999,-2.2594383777777782,0.3526526555555556,-0.1843109133333333
904,1778289928610,-0.0416700270333333,0.58993545,0.77560222,-2.0241343333333335,0.1270497666666666,-0.1841939333333333
905,1778289928620,-0.063960925,0.5895694,0.7577863,-1.9703386555555555,0.0552605536888888,-0.1715884777777777
906,1778289928630,-0.07909372,0.5861537,0.72703385,-1.9461823,0.0022277832,-0.15879822
907,1778289928640,-0.1401342322222222,0.593299011111111,0.5913797999999999,-2.011878144444444,-0.2881181515111111,0.0128309452222222
908,1778289928650,-0.0900263832,0.583468557,0.60958226,-2.0853668300000003,-0.324118039,0.097776794
909,1778289928660,0.0351949328888888,0.5343850822222223,0.7228590666666668,-2.263934688888889,-0.2620781822222222,0.0660400391111111
910,1778289928670,0.0705559533333333,0.52395922,0.8548390333333333,-2.267427288888889,-0.2984737911111111,0.0327724878888888
911,1778289928680,0.0796261973333333,0.5110652099999999,0.9979792333333334,-2.167048133333333,-0.3846384666666667,-0.0336405436666666
912,1778289928690,0.0469092393333333,0.4993090666666667,1.0651083888888888,-1.9966023333333336,-0.4659525533333333,-0.0746459963333333
913,1778289928700,0.0099889849999999,0.49776314,1.0794937,-1.8804931333333337,-0.5186818533333333,-0.0810343426666666
914,1778289928710,-0.021738719,0.5181019933333333,0.9885413666666668,-1.6219957000000005,-0.7183600611111112,-0.0406799317777777
915,1778289928720,-0.0291557104444444,0.5244472844444444,0.9154462444444444,-1.5644667,-0.80287001,-0.0200839573777777
916,1778289928730,-0.0515515285999999,0.506541382,0.79400385,-1.5259429999999998,-1.136434944,0.08078002736
917,1778289928740,-0.0561516156666666,0.4796624111111111,0.7208248555555555,-1.5564829333333334,-1.4925181333333333,0.22025553
918,1778289928750,-0.0422940992222222,0.4644222866666667,0.6932463666666666,-1.5905100333333335,-1.589099488888889,0.2671847822222222
919,1778289928760,0.0331198137777777,0.4715952477777778,0.7694736333333334,-1.7842661666666666,-1.5429331333333334,0.3166707333333333
920,1778289928770,0.061484672,0.47718167,0.8205091,-1.8391859555555552,-1.4529164444444445,0.3150719555555555
921,1778289928780,0.1423087244444444,0.4677037333333333,0.9741292444444444,-1.9405602555555557,-0.7818094777777778,0.2403225333333333
922,1778289928790,0.2067941777777777,0.4501315022222222,1.1301086666666669,-1.9363013444444444,0.0766838888888889,0.1147935644444444
923,1778289928800,0.22410873,0.43536647,1.2207217666666663,-1.8492431666666669,0.5243987933333334,0.0329437256666666
924,1778289928810,0.152066659,0.3992302499999999,1.1079231200000002,-1.54777678,0.94030914,-0.0859436035
925,1778289928820,0.1138892555555555,0.3857960555555555,1.0585868555555555,-1.4423166555555555,1.0392693444444443,-0.1165517175555555
926,1778289928830,-0.0148099611111111,0.3565625888888888,0.967336722222222,-1.267729,0.9810333222222224,-0.0463019483333333
927,1778289928840,-0.0710652726666666,0.3361157333333333,0.8741476333333333,-1.1467641333333332,0.8769921377777777,0.0756700291111111
928,1778289928850,-0.06591299,0.3341628,0.8361287,-1.1259308,0.8358002,0.12988281
929,1778289928860,-0.0199216282222222,0.3478991666666667,0.7938926855555555,-1.2766062666666669,0.77567038,0.1823221855555555
930,1778289928870,-0.0001151020399999,0.352102538,0.7969324440000001,-1.4474274,0.743226624,0.214472964
931,1778289928880,0.0023680587111111,0.3115748044444444,0.8518161,-1.7070956666666666,0.7915446,0.1885426866666666
932,1778289928890,0.0067474637777777,0.2932027299999999,0.885210888888889,-1.8150956555555555,0.8209533555555555,0.1514960422222222
933,1778289928900,0.009621902,0.28230157,0.9078808000000002,-1.8593597,0.8363342,0.1282959
934,1778289928910,0.00561063765,0.20440165875,0.939318235,-1.865951525,0.76056671,0.0382766725
935,1778289928920,0.009317426475,0.180316185,0.9578817325,-1.8540344,0.6866645775,0.0079154967499999
936,1778289928930,-0.0185662598,0.146484056,1.043649748,-1.71651302,0.203887936,-0.0396057132
937,1778289928940,-0.044030132,0.1308232366666666,1.0747350666666666,-1.6379699333333333,-0.0457051566666666,-0.0297292076666666
938,1778289928950,-0.061547755,0.1122211355555555,1.1056761444444445,-1.5437503555555556,-0.3497806144444444,0.0156741673333333
939,1778289928960,-0.0541717238888888,0.1143636577777777,1.1372674333333332,-1.4772898555555556,-0.49844362,0.0537855342222222
940,1778289928970,-0.0347018616666666,0.11902788,1.1647646777777778,-1.428288788888889,-0.5638970488888888,0.0806511746666666
941,1778289928980,-0.0090078522499999,0.1246550911111111,1.1811710666666668,-1.3480428333333334,-0.49542745,0.1080474853333333
942,1778289928990,0.0023277904055555,0.1298616422222222,1.1740119333333334,-1.3176252888888886,-0.4193233911111111,0.1117740205555555
943,1778289929000,0.0168902635555555,0.1214818355555555,1.098164188888889,-1.2924143666666668,-0.20922852,0.100234985
944,1778289929010,0.0289571331111111,0.0955301399999999,1.0719965222222223,-1.343607588888889,-0.0411444788888888,0.0694630933333333
945,1778289929020,0.0331982088,0.085322912,1.08125986,-1.38564454,0.0875671404,0.03645935
946,1778289929030,0.020333127,0.0634234322222222,1.1520199555555557,-1.3820732777777778,0.1250898555555555,-0.0176510276666666
947,1778289929040,0.0117777319999999,0.056088015,1.1851032333333331,-1.3599395777777776,0.0975121377777777,-0.0196058485555555
948,1778289929050,-0.0058753853333333,0.0342174313333333,1.2490332333333332,-1.2735901,0.0562659366666666,-0.0057610408888888
949,1778289929060,-0.0202617495555555,0.0223674581111111,1.2694387888888887,-1.1436242222222222,0.0025855171111111,0.0246022535555555
950,1778289929070,-0.027963558,0.018842503,1.2732347,-1.0849152,-0.026535034,0.04093933
951,1778289929080,-0.0160992402222222,0.0387458121111111,1.2465918444444446,-0.9285549666666666,0.0027041957777777,0.0833095957777777
952,1778289929090,-0.0137126886666666,0.0540132422222222,1.2226200444444446,-0.8281860333333333,0.0757395433333333,0.1069793683333333
953,1778289929100,0.0010938147777777,0.0817281057777777,1.123912888888889,-0.7847527555555556,0.3382720922222222,0.1209530302222222
954,1778289929110,0.0378519576666666,0.0805617026666666,1.1030455222222222,-0.8025631444444444,0.4708963977777778,0.096750896
955,1778289929120,0.0607774186,0.0739257957,1.09929504,-0.820730586,0.54520416,0.0699707042999999
956,1778289929130,0.0406989156666666,0.0523594723333333,1.091900366666667,-0.8471934,0.6195526333333333,-0.020497639
957,1778289929140,0.032197442,0.04849526,1.0955608,-0.83955893,0.6094869111111111,-0.0367719847777777
958,1778289929150,-0.0141191755555555,0.0196015542222222,1.143925388888889,-0.68580119,0.3429361866666666,-0.038426717
959,1778289929160,-0.0281797627777777,0.0166322346666666,1.1484804222222222,-0.5302734388888889,0.1097039098333333,-0.0204399956666666
960,1778289929170,-0.034308165,0.01701176,1.1452258,-0.45428467,0.0043640137,-0.008605957
961,1778289929180,-0.0582260411111111,0.0243877918888888,1.0549251444444443,-0.2662048322222222,-0.3384128169555555,0.0389845117777777
962,1778289929190,-0.0788120292,0.0220029861999999,0.987163389,-0.163093563,-0.588984682,0.080989076
963,1778289929200,-0.091065532,0.0142866432222222,0.8766005177777777,-0.1162448457777777,-0.9427812222222224,0.2117394377777778
964,1778289929210,-0.0756359913333333,0.0139205983333333,0.8460119133333333,-0.1289096422222222,-1.025402488888889,0.2480757
965,1778289929220,0.0433027104444444,0.0157373436666666,0.7417188155555556,-0.33728536,-1.2398681666666669,0.2630462633333333
966,1778289929230,0.0980800163333333,-0.0141736145555555,0.7465588111111111,-0.6549140066666667,-1.4457584222222222,0.23665195
967,1778289929240,0.1121539111111111,-0.026891864,0.7631545888888889,-0.7374725355555556,-1.4933404222222224,0.2246381977777777
968,1778289929250,0.13871498,-0.0779955858888889,1.0457603222222225,-0.963185611111111,-1.6667396,0.14119466
969,1778289929260,0.1465382866666666,-0.07833467,1.1548673,-0.9808807166666668,-1.5912272333333333,0.1023712133333333
970,1778289929270,0.1614012699999999,-0.074144959,1.307354,-0.93418274,-1.24551696,0.0392364496
971,1778289929280,0.1663747122222222,-0.080246125,1.336283222222222,-0.8957129555555555,-1.107837222222222,0.0300513373333333
972,1778289929290,0.16565628,-0.0832693655555555,1.3295445555555556,-0.8580169555555556,-1.0193023255555556,0.0309973824444444
973,1778289929300,0.1467558744444444,-0.0592305044444444,1.2079632,-0.6304626388888889,-0.3480682388888889,0.0645446755555555
974,1778289929310,0.1506876655555555,-0.0460513299999999,1.1975766777777777,-0.6139492444444444,-0.1554938422222222,0.0760277633333333
975,1778289929320,0.1871196788888889,-0.0437995845555555,1.2161392,-0.6154276555555556,0.3499840644444444,0.0707041426666666
976,1778289929330,0.1865237833333333,-0.0541321476666666,1.2577374,-0.6256103533333334,0.68187966,0.0475107833333333
977,1778289929340,0.1805445344444444,-0.0569934514444444,1.2842717222222224,-0.6273871533333333,0.8230878777777778,0.0352037222222222
978,1778289929350,0.1691808933333333,-0.0386882624444444,1.3717120333333337,-0.5738321944444444,1.2294260888888888,-0.0030975343333333
979,1778289929360,0.1658184,-0.03619335,1.3897723,-0.54803467,1.3359528,-0.020858765
980,1778289929370,0.1123303633333333,-0.0379969575555555,1.4096217222222225,-0.3295881533333333,1.488450788888889,-0.0810360388888889
981,1778289929380,0.05654877,-0.0276379532222222,1.3733112222222223,-0.146603055,1.4154256111111112,-0.0997365333333333
982,1778289929390,0.04439981,-0.024600713,1.362193,-0.107543945,1.3908081,-0.1023407
983,1778289929400,-0.0436236473333333,-0.0172388533333333,1.2487885,0.0955759673333333,0.9750010333333334,-0.0373687746666666
984,1778289929410,-0.0457656511111111,-0.011910462,1.2280433999999998,0.1510908333333333,0.8062116888888888,-0.0116221111977777
985,1778289929420,-0.04610439,-0.0103507092222222,1.196316011111111,0.2136501777777777,0.5293036422222221,0.0202823211416666
986,1778289929430,-0.0406678087777777,-0.0047914221111111,1.18094,0.2837727888888889,0.1762915699999999,0.0554962155555555
987,1778289929440,-0.037359923,-0.0025135782,1.1767092,0.3065277079999999,0.0610412586,0.0630416872
988,1778289929450,-0.0131024403333333,-0.0049417802777777,1.166161311111111,0.3404710555555555,-0.1502770293333333,0.0492858875555555
989,1778289929460,-0.0111363743333333,-0.0072602381111111,1.16749,0.3466847733333333,-0.1796925844444444,0.0436045317777777
990,1778289929470,-0.0205196054444444,-0.0265946044444444,1.1708114777777778,0.3769887266666666,-0.2914276133333333,0.0276184076666666
991,1778289929480,-0.0313258836666666,-0.0331837605555555,1.1816183,0.3913082533333333,-0.3132663333333333,0.0359683555555555
992,1778289929490,-0.0085191016666666,-0.0340789976666666,1.207623433333333,0.39793396,-0.31256104,0.04307556
993,1778289929500,0.0167815563333333,-0.0381464523333333,1.2123415666666666,0.43664042,-0.2983551066666667,0.0428975413333333
994,1778289929510,0.0409832151111111,-0.0460229873333333,1.2083012333333332,0.5180172355555556,-0.2717183466666666,0.0404103597777777
995,1778289929520,0.0321986883999999,-0.0473473504,1.22198316,0.59255676,-0.26259156,0.0179229734
996,1778289929530,0.0221510806666666,-0.0474479356666666,1.2411008222222222,0.6577979155555556,-0.2146097866666666,0.015246921
997,1778289929540,0.0219606268888888,-0.0485868576666666,1.2478528,0.7302958199999999,-0.1366119413333333,0.0176798506666666
998,1778289929550,0.0375942742222222,-0.04473578,1.2268506777777777,0.8079495,9.663777777778016e-05,0.0163811582222222
999,1778289929560,0.050136242,-0.03802409,1.2080714,0.8384247,0.07733154,0.011642456
1000,1778289929570,0.050136242,-0.03802409,1.2080714,0.8384247,0.07733154,0.011642456
