id,timestamp,acc_x,acc_y,acc_z,gyro_x,gyro_y,gyro_z
0,1778289832660,-0.0062556023333333,0.1192036433333333,0.9753495888888888,0.0969933431111111,-0.0142839218888888,-0.0103759766666666
1,1778289832670,-0.0086419803333333,0.1194753266666666,0.9508345666666664,0.0515492766666666,0.0020497640666666,-0.0103759766666666
2,1778289832680,-0.010268962,0.1208586249999999,0.9430242,0.030426025,0.0075531005999999,-0.011795044
3,1778289832690,-0.0037468628644444,0.1220367811111111,0.9656414233333334,-0.0172831217777777,-0.0663621661555555,0.0031195746044444
4,1778289832700,-0.0027437823,0.1202746499999999,0.9783323833333332,-0.0291781955555555,-0.09458923,0.007200453
5,1778289832710,0.0033984461111111,0.1094953277777777,1.0292456333333333,-0.0479482012222222,-0.0904524053333333,0.0172678633333333
6,1778289832720,0.0063950726666666,0.1104719666666666,1.0428993555555557,-0.0473548038888888,-0.0652381048888888,0.0227169464444444
7,1778289832730,0.008767971,0.1130488,1.0539498,-0.042022705,-0.040374756,0.026565552
8,1778289832740,0.0282663486666666,0.1279354944444444,1.0471159888888888,0.0657535108888888,0.0880533826666666,0.0076751711111111
9,1778289832750,0.027642448,0.1281117766666666,1.03492677,0.0783606611111111,0.1008368566666666,0.003116184
10,1778289832760,0.0041049579555555,0.1160706566666666,0.9163696411111112,0.048290676,0.1300727011111111,-0.0229305693333333
11,1778289832770,-0.0002887919111111,0.1218069166666666,0.90796288,-0.0061594646666666,0.10876465,-0.0316823333333333
12,1778289832780,-0.0047912493777777,0.1258745522222222,0.9405032666666666,-0.1026899528888888,0.0427737768888888,-0.0354105622222222
13,1778289832790,-0.0174823647777777,0.1269049344444444,0.9887178333333332,-0.1312103288888889,-0.0294969346666666,-0.0241597491111111
14,1778289832800,-0.0241261334444444,0.1251151499999999,1.0131505444444444,-0.13310242,-0.045715332,-0.020843506
15,1778289832810,-0.0286137276666666,0.1156106006666666,1.0817718333333337,-0.027940538,-0.0904507135555555,0.0231221513555555
16,1778289832820,-0.0240037727777777,0.1147701493333333,1.094598777777778,-0.0036756731111111,-0.0876091883333333,0.0291002057777777
17,1778289832830,-0.0019166381111111,0.1172377571111111,1.0578410222222223,0.0723741322222222,-0.0224982366666666,0.0338931613333333
18,1778289832840,0.0066527556666666,0.1184848655555555,1.017218688888889,0.0998331722222222,0.0347866482222222,0.0312889946666666
19,1778289832850,0.006448821,0.11963761,0.99647355,0.10072327,0.055496216,0.026550293
20,1778289832860,0.0019881876,0.1210881364444444,0.9873355577777778,0.068055896,0.0647328688888888,0.0118747289333333
21,1778289832870,-0.005388017,0.12049154,0.9828075,0.020828247,0.057632446,-0.0054016113
22,1778289832880,-0.0054554186666666,0.1232299644444444,1.028635188888889,-0.0139753552888888,0.0179748534444444,-0.0113864473666666
23,1778289832890,-0.0135906742222222,0.1258880222222222,1.069419988888889,-0.0205434162333333,-0.0212097162666666,-0.0102030433333333
24,1778289832900,-0.023692342,0.1268377,1.0904356,-0.0074005127,-0.05529785,-0.002746582
25,1778289832910,-0.0281825632,0.124836172,1.10000276,0.00804138165,-0.073669433,0.0073776244999999
26,1778289832920,-0.0437043581111111,0.1172781911111111,1.1612127888888888,0.03864034,-0.064819336,0.0428314216666666
27,1778289832930,-0.0439627315555555,0.1064589531111111,1.3018850777777775,0.1234537766666666,0.0827246764444444,0.1113671202222222
28,1778289832940,-0.0337801833333333,0.1113533803333333,1.4186387111111112,0.2502237966666666,0.1829783133333333,0.1449839286666666
29,1778289832950,-0.03174637,0.113170125,1.445295,0.30419922,0.21688843,0.15652466
30,1778289832960,0.006205655,0.15140523,1.4986214666666666,0.6033477766666667,0.2889709466666667,0.1797739666666666
31,1778289832970,0.0154255648888888,0.1621705511111111,1.487096422222222,0.708157008888889,0.2971343988888889,0.1810184055555555
32,1778289832980,0.0296351294444444,0.1745229377777777,1.4078323333333334,0.9242943666666668,0.2319810644444444,0.1761135533333333
33,1778289832990,0.0372823236666666,0.1867258177777777,1.3468718444444443,1.0196990777777777,0.1806165933333333,0.1694878466666666
34,1778289833000,0.0022190826666666,0.2094912933333333,1.2508219333333337,1.0363820333333331,0.070948284,0.1464029966666666
35,1778289833010,-0.0152841417999999,0.220714261,1.20511835,1.01642762,-0.0011810306,0.1323425319999999
36,1778289833020,-0.0164379786666666,0.2222098966666666,1.2012649333333334,0.9978010422222222,-0.0263010663333333,0.1256917333333333
37,1778289833030,-0.0169535175555555,0.2349948544444444,1.2192975222222222,0.9501630866666666,-0.0958947046666666,0.1004130066666666
38,1778289833040,-0.0160316651111111,0.2393607788888889,1.2273515444444445,0.9415198333333332,-0.1122317811111111,0.0935465511111111
39,1778289833050,0.0026255686666666,0.23833055,1.3015860333333331,0.9659593444444444,-0.1440751788888888,0.0696987572222222
40,1778289833060,0.009866105,0.23629656,1.3305881,0.98916626,-0.15330505,0.056915283
41,1778289833070,0.019140109,0.2406896233333333,1.3447840333333332,1.0251464911111112,-0.1382734477777777,0.045196533
42,1778289833080,0.0170928149999999,0.25004555,1.3599832333333333,1.260855811111111,-0.0206146236666666,-0.0161132812222222
43,1778289833090,-0.0009405183333333,0.2511844744444444,1.3354423,1.3658430555555556,0.022357517,-0.0221489801111111
44,1778289833100,-0.0147323857142857,0.2573731228571428,1.290476014285714,1.5088566428571428,0.052841187,-0.0178789411428571
45,1778289833110,-0.00801125265,0.265645235,1.24016465,1.59423065,0.0493774415,-0.01045989985
46,1778289833120,0.0005577334428571,0.2732894042857143,1.174652257142857,1.670166,0.0393698554285714,-0.0041089739
47,1778289833130,0.0099891787875,0.2899292225,1.041944825,1.6980228375000002,0.009485244775,-0.0031337738374999
48,1778289833140,0.01047739,0.29182082,1.0311301,1.6980896,0.0075531006,-0.0032653809
49,1778289833150,0.0153166851666666,0.3107212222222222,0.9382798111111113,1.6524709333333334,0.0287492537888888,-0.0228000216555555
50,1778289833160,-0.0007917148333333,0.3228968,0.8886826,1.5992024777777778,0.0510559093333333,-0.0328063965555555
51,1778289833170,-0.010025278,0.3297303333333333,0.8665545,1.5358123666666668,0.0730692566666666,-0.0389658613333333
52,1778289833180,-0.0261333326666666,0.33973694,0.8730624666666666,1.4155629222222224,0.0888722738888889,-0.0448777933333333
53,1778289833190,-0.0367906346666666,0.3427876633333333,0.89319755,1.3980458555555555,0.0925445554444444,-0.0429823128888888
54,1778289833200,-0.045088348,0.34888911,0.9338730833333332,1.4276936666666666,0.1064503986666666,-0.024754842
55,1778289833210,-0.0362208288888888,0.3525907011111111,0.944990977777778,1.4867553777777778,0.1055619977777777,-0.0049896237777777
56,1778289833220,-0.0290616919999999,0.35356683,0.9455876,1.5217896,0.1013031,0.004714966
57,1778289833230,-0.0249615732,0.357617786,0.925428584,1.55587772,0.09539032,0.0106811526
58,1778289833240,-0.0217670614444444,0.3651857044444445,0.8795434466666667,1.5867055333333333,0.0857933911111111,0.0208808055555555
59,1778289833250,-0.0280439206666666,0.3824459866666667,0.8154238333333333,1.5972442666666666,0.0391693113333333,0.044667562
60,1778289833260,-0.0232034163333333,0.39078466,0.8057428233333334,1.6103261222222225,0.0158437094444444,0.0523020433333333
61,1778289833270,-0.0008311189999999,0.40534664,0.8007810233333333,1.616241466666667,0.0116373695,0.0563863133333333
62,1778289833280,0.0007149804,0.4224309866666667,0.7865446333333332,1.6178385666666668,0.0320638026666666,0.0519409186666666
63,1778289833290,-0.0037188652444444,0.4297800488888889,0.7756298111111111,1.6181946,0.04058838,0.048919678
64,1778289833300,-0.0263768612,0.45264176,0.73595486,1.5797394,0.0552856437999999,0.0416870124
65,1778289833310,-0.039271029,0.4579419999999999,0.72565208,1.5535685333333331,0.064198812,0.04129537
66,1778289833320,-0.0493581792222222,0.4752700333333333,0.7207163733333334,1.4690586,0.1307254366666666,0.0533667666666666
67,1778289833330,-0.046754733,0.4908896866666666,0.7461521466666667,1.3937784666666666,0.1923878966666666,0.0693511986666666
68,1778289833340,-0.0443144323333333,0.4919199022222222,0.7699886111111112,1.3843095333333333,0.2014397488888888,0.0759192599999999
69,1778289833350,-0.03577338,0.49267843,0.8075741,1.3859711,0.20889282,0.08833313
70,1778289833360,-0.0171158018888888,0.5077153222222223,0.84517218,1.5072327,0.1819051111111111,0.1102956144444444
71,1778289833370,-0.0086285001111111,0.5142102611111111,0.7936761544444444,1.572567422222222,0.1203647166666666,0.1168077266666666
72,1778289833380,-0.0073400839999999,0.5173289,0.73252606,1.6054077,0.06562805,0.1197662349999999
73,1778289833390,-0.007340084,0.5173289,0.73252606,1.6054077,0.06562805,0.119766235
74,1778289833400,-0.0253049788888888,0.5445277388888888,0.6964187566666666,1.5233900666666669,-0.0918663866666666,0.1259256972222222
75,1778289833410,-0.0285727683333333,0.55824977,0.7269130333333333,1.4765218333333334,-0.1027018233333333,0.1329040533333333
76,1778289833420,-0.0245186203333333,0.5673332955555556,0.7821514444444444,1.5042741333333334,-0.0311465797777777,0.1369883222222222
77,1778289833430,-0.0160847223333333,0.5745200666666667,0.7630327666666666,1.561559,0.0235341386666666,0.1348622666666666
78,1778289833440,-0.012342353,0.5774899,0.74802285,1.5841064,0.041641235,0.13362122
79,1778289833450,-0.0082208038444444,0.5820995177777778,0.7406473166666667,1.5957098666666667,0.0605824772222222,0.1319597044444444
80,1778289833460,5.5062239999999985e-05,0.59635482,0.716003008,1.63321836,0.125164794,0.127752684
81,1778289833470,0.0161310395999999,0.6243754755555556,0.6627796155555555,1.6813964555555556,0.1844584166666666,0.1233232277777777
82,1778289833480,0.0190597463333333,0.6306120666666666,0.6421435333333333,1.6980268666666667,0.1752810988888889,0.1194186744444444
83,1778289833490,0.018896945,0.6315474,0.6361235,1.7082062,0.16841125,0.11657715
84,1778289833500,-0.0041538678,0.6486861866666667,0.5777125177777777,1.7069041111111112,0.1545088,0.1208919938888889
85,1778289833510,-0.0102967877777777,0.6631261,0.5499718933333333,1.6925828444444444,0.1230231388888888,0.1243218311111111
86,1778289833520,-0.008397778,0.6921149,0.4727678666666667,1.593877122222222,0.0552707255555555,0.1150360088888888
87,1778289833530,-0.009780557,0.70433775,0.452104215,1.49878234,0.05699463,0.104214476
88,1778289833540,-0.0180787866666666,0.7221336666666667,0.4551546766666667,1.3696391,0.1021931973333333,0.0886942533333333
89,1778289833550,-0.0181332268888888,0.7374821611111112,0.4563751777777778,1.3036516111111112,0.1271108015555555,0.0786929655555555
90,1778289833560,-0.0154755121111111,0.7457664177777779,0.4539075711111111,1.2728169888888887,0.1396586133333333,0.0736050066666666
91,1778289833570,-0.0210066283333333,0.7484510666666666,0.4514931933333334,1.203569222222222,0.1857011611111111,0.0753275555555555
92,1778289833580,-0.024260938,0.7489258066666667,0.4535949333333333,1.1945733111111112,0.1945749944444444,0.0792338066666666
93,1778289833590,-0.0227426636666666,0.7563285011111112,0.4397381066666666,1.2003767,0.1382378433333333,0.1049160444444444
94,1778289833600,-0.017346697,0.78762205,0.42883728,1.2128058333333334,0.0641445566666666,0.1208902988888888
95,1778289833610,-0.011342833,0.79577364,0.4225247099999999,1.21787414,0.0045806883999999,0.129244994
96,1778289833620,0.0243482146666666,0.7837307,0.4245261377777778,1.1943410444444444,-0.0416887075555555,0.1018422444444444
97,1778289833630,0.0232362535555555,0.7921642511111111,0.4161195533333333,1.2021535555555556,-0.0189565026666666,0.0800594746666666
98,1778289833640,0.0095555373333333,0.8048826533333333,0.38359166,1.2247636333333334,-0.002210829,0.0534227173333333
99,1778289833650,0.0074270149999999,0.8154716977777778,0.3470106755555555,1.238013388888889,-0.0506880021111111,0.0460832391111111
100,1778289833660,0.0074812823333333,0.8190511022222222,0.3324893355555555,1.2410889,-0.063827515,0.044662476
101,1778289833670,0.0139482503333333,0.8443256777777778,0.2535093233333333,1.1677110222222222,-0.0816362175555555,0.0217013885555555
102,1778289833680,0.020604808,0.850440588888889,0.2373200466666666,1.113913622222222,-0.0455305316666666,0.0074988469194444
103,1778289833690,0.0364204424,0.8689666600000001,0.19406162,0.98105772,0.0705108662,-0.033316040389
104,1778289833700,0.0167411155333333,0.8755646266666667,0.18807507,0.8549906222222222,0.1534440788888889,-0.0581987175555555
105,1778289833710,0.0054735653,0.87670374,0.18986537,0.7745056,0.20198059,-0.07145691
106,1778289833720,-0.025928533,0.87649997,0.29655816,0.6756134,0.2987314866666666,-0.0661265033333333
107,1778289833730,-0.0375484746666666,0.8754832488888888,0.3285972922222222,0.6728329222222222,0.3104519355555555,-0.0568322044444444
108,1778289833740,-0.058958652,0.8765004700000001,0.3523255733333333,0.7219492777777777,0.2567138722222222,0.0009901261111111
109,1778289833750,-0.052056855,0.8846357333333333,0.3387670444444444,0.7535552999999999,0.2035675066666666,0.0462646486666666
110,1778289833760,-0.0345793297777777,0.8957130222222224,0.3096835799999999,0.7772335333333333,0.15284729,0.09562005
111,1778289833770,-0.0222034818,0.90916308,0.256492304,0.764389044,0.0984313964,0.122644044
112,1778289833780,-0.017306083,0.9157256666666668,0.2288591866666667,0.7474619666666666,0.0651482477777777,0.1355726466666666
113,1778289833790,-0.0013599660666666,0.9237254333333332,0.18994573,0.6670922211111111,0.0361429847777777,0.1413642055555555
114,1778289833800,0.0040636526777777,0.9324974222222224,0.1800889544444444,0.5825856566666666,0.028686523,0.13095093
115,1778289833810,0.0054606034333333,0.9440216166666668,0.2185955788888889,0.5040520555555555,0.0288102894444444,0.1141493033333333
116,1778289833820,0.0029107318333333,0.94524175,0.2400996033333333,0.4801432333333333,0.0269114176666666,0.0926005033333333
117,1778289833830,0.0009443200777777,0.9456079666666668,0.2448856666666666,0.4684821288888889,0.0289815267777777,0.07975769
118,1778289833840,-0.0079498131222222,0.950761277777778,0.2521535111111111,0.4265170633333333,0.0651465522222222,0.0564507377777777
119,1778289833850,-0.01575963725,0.94931051,0.25948262,0.4109878549999999,0.083724975,0.045471192
120,1778289833860,-0.0234066593333333,0.93991392,0.2478285466666666,0.4221394844444444,0.0453745522222222,0.0472717295555555
121,1778289833870,-0.0208037304444444,0.9343682666666666,0.2292801911111111,0.4319034088888889,0.0042995876666666,0.0569814044444444
122,1778289833880,-0.014295976,0.9312496,0.21280643,0.4330902,-0.004699707,0.0617218
123,1778289833890,-0.0002082551777777,0.9351136444444444,0.1672898233333333,0.4127926222222222,-0.0528123657777777,0.0758005777777777
124,1778289833900,0.0240893214444444,0.9402932666666668,0.1035368122222222,0.36740112,-0.1517028833333333,0.09579468
125,1778289833910,0.034800718,0.9399138933333332,0.040948822,0.27874756,-0.2137824133333333,0.0984564911111111
126,1778289833920,0.046638074,0.9334463866666668,0.0237021913333333,0.1507975266666666,-0.21118164,0.072540284
127,1778289833930,0.051966984,0.93063986,0.026834313,0.11404419,-0.19911194,0.0585174559999999
128,1778289833940,0.0157727033999999,0.9481385,0.0573167347999999,-0.0066558848,-0.069467166,0.01142883336
129,1778289833950,-0.0075708067777777,0.9508283644444444,0.0771233311111111,-0.05800544,-0.0120290126666666,-0.0083702935555555
130,1778289833960,-0.0312170033333333,0.94532369,0.1262876016666666,-0.126708985,0.0812479646666666,-0.023157755
131,1778289833970,-0.0338202791111111,0.9393848888888888,0.1681570688888889,-0.1570722755555555,0.14977858,-0.0249311655555555
132,1778289833980,-0.0323561,0.936619,0.18730202,-0.1634674,0.17747498,-0.023513794
133,1778289833990,-0.0259829744444444,0.9269918666666666,0.2169682577777777,-0.1247643333333333,0.1725006088888888,0.00288052
134,1778289834000,-0.023813665,0.9240495,0.22293386,-0.11286926,0.16415405,0.011108398
135,1778289834010,-0.0140517736666666,0.9250667666666668,0.20227046,-0.0821431466666666,0.0713043219999999,0.0629526786666666
136,1778289834020,-0.0134168461999999,0.92841811,0.18124921,-0.0878799425,0.0291351327,0.0829620379999999
137,1778289834030,-0.0197742078888888,0.9403336777777778,0.1141796022222222,-0.1584336988888889,-0.0481346977777777,0.1176401779999999
138,1778289834040,0.0044160448888888,0.9437236666666666,0.0955227111111111,-0.2340630388888888,-0.0713314453333333,0.1247982446666666
139,1778289834050,0.0173786702222222,0.9460288133333332,0.0920247166666666,-0.2690972211111111,-0.0812733933333333,0.1218380388888888
140,1778289834060,0.0461633233333333,0.9513575266666666,0.1082954005555555,-0.41433716,-0.0828094466666666,0.0755615226666666
141,1778289834070,0.0544473813333333,0.9500013733333332,0.1273857366666666,-0.4664221866666667,-0.0677185055555555,0.0532531739999999
142,1778289834080,0.0587460766666666,0.9424355888888888,0.1723740111111111,-0.5376112333333334,0.0082668733333333,-0.0031534832222222
143,1778289834090,0.0519123711111111,0.9344767777777778,0.19065103,-0.574062788888889,0.0873413088888888,-0.0483737516666666
144,1778289834100,0.04562082,0.9314938,0.1852270699999999,-0.5853119,0.13380432,-0.06878662
145,1778289834110,0.014655669375,0.91373914375,0.1403660749999999,-0.6435623125000001,0.1392498037499999,-0.07937049875
146,1778289834120,0.0030848661428571,0.9078559014285714,0.1325636942857143,-0.6792776857142858,0.1022971042857142,-0.0683332165714285
147,1778289834130,-0.0026883049777777,0.904702522222222,0.1309383422222222,-0.7357567888888888,0.0105743413333333,-0.0446421306666666
148,1778289834140,-0.0150884688999999,0.89767695,0.14285320625,-0.78692055,-0.04997444025,-0.029037475875
149,1778289834150,-0.0229735591111111,0.8904245111111112,0.1610390566666666,-0.8151177222222222,-0.08074951,-0.0190141468888888
150,1778289834160,-0.0095095661111111,0.8731240044444444,0.2422286411111111,-0.8574235766666667,-0.1762084988888889,0.0312245683333333
151,1778289834170,-0.0018079306,0.8694222166666666,0.251896,-0.8568301755555556,-0.2021263999999999,0.0421769877777777
152,1778289834180,0.0215546582444444,0.8610842355555556,0.25243798,-0.8640492733333334,-0.3129119866666667,0.0546112059999999
153,1778289834190,0.0399668253333333,0.8557142,0.2358698666666666,-0.89299518,-0.39494324,0.0530090333333333
154,1778289834200,0.0469220261111111,0.8538561555555555,0.2251722977777778,-0.9054259999999998,-0.4111023,0.049987793
155,1778289834210,0.0507459703333333,0.8492462000000001,0.1961285733333333,-1.0692952444444446,-0.3243950744444444,-0.0058186846666666
156,1778289834220,0.0497823805,0.8449022850000001,0.198626183,-1.1680664200000002,-0.235700991,-0.0352890013
157,1778289834230,0.032062122,0.8341023000000001,0.2664310055555555,-1.3446655333333333,-0.0197804759999999,-0.1073150643333333
158,1778289834240,0.0127543711111111,0.8291936977777777,0.3046935966666666,-1.4025421,0.0924275706666666,-0.1426493333333333
159,1778289834250,-0.037358366,0.81666404,0.38584203,-1.3853810333333332,0.2019144666666666,-0.1583913144444444
160,1778289834260,-0.0404363935555555,0.8084212977777778,0.41705454,-1.3102162333333334,0.2298482266666666,-0.1447804766666666
161,1778289834270,-0.0383076985555555,0.8063335666666666,0.4201866622222222,-1.2652994666666668,0.21777344,-0.1360778833333333
162,1778289834280,-0.0234880606666666,0.8038115,0.33589243,-1.2457767333333334,0.1406623011111111,-0.1206851566666666
163,1778289834290,-0.0192719752222222,0.7924625333333333,0.2924369522222222,-1.3103383666666666,0.0817803288888888,-0.1075490333333333
164,1778289834300,-0.0001809483333333,0.7828634666666666,0.2944427766666667,-1.4257405666666667,0.0219963927777777,-0.0913967555555555
165,1778289834310,0.012087262,0.78139898,0.30400982,-1.49195554,-0.0180175782,-0.083062744
166,1778289834320,0.0228015966666666,0.7676907333333333,0.3334110066666667,-1.5317993,-0.03523763,-0.0849405933333333
167,1778289834330,0.0377976897777777,0.7314623155555556,0.4066549133333333,-1.6258883888888889,0.0489264588888888,-0.1073167586666666
168,1778289834340,0.0342316026666666,0.7276387233333333,0.4119565177777777,-1.6335228777777775,0.0759158655555555,-0.1109856491111111
169,1778289834350,-0.0091438662222222,0.7065679766666667,0.3900328833333333,-1.6790958333333332,0.1612582711111111,-0.1114010244444444
170,1778289834360,-0.0177675273333333,0.7010359922222222,0.3797689311111111,-1.6967316,0.151846989,-0.1092122366666666
171,1778289834370,-0.018201666,0.68389857,0.36534142,-1.7592316,-0.002029419,-0.10021973
172,1778289834380,-0.0390543055555555,0.6643058311111111,0.403346861111111,-1.7691752333333333,-0.0414479573333333,-0.095601402
173,1778289834390,-0.064449325,0.6425303,0.4441723000000001,-1.7890625,-0.1202850339999999,-0.086364746
174,1778289834400,-0.0539683077777777,0.62021348,0.5536859422222222,-1.8035566444444444,-0.576334652,0.0476854089999999
175,1778289834410,-0.0371416433333333,0.6141517988888889,0.5956499455555555,-1.7801242555555556,-0.7446967333333334,0.1194118922222222
176,1778289834420,-0.0236233837333333,0.6097851955555557,0.6091139333333333,-1.760599811111111,-0.7374708311111111,0.1383463566666666
177,1778289834430,0.0160228506444444,0.5899905999999999,0.5859835977777778,-1.8174641666666664,-0.5644887333333333,0.1407165533333333
178,1778289834440,0.0208495294444444,0.5794146888888889,0.5915154111111112,-1.8815544666666664,-0.45151436,0.1335601822222222
179,1778289834450,0.0213922027777777,0.5607036999999999,0.6401235222222222,-1.9889729333333332,-0.2072753866666666,0.119593304
180,1778289834460,0.0202938948888888,0.54913786,0.6820059444444444,-2.029157777777778,-0.0925818533333333,0.1114213733333333
181,1778289834470,0.023411586,0.5315448199999999,0.7237394,-2.021553,-0.07420349,0.110176085
182,1778289834480,0.0343809255555555,0.5042036833333333,0.7980007666666666,-1.9509209444444444,-0.0925225155555555,0.1169247083333333
183,1778289834490,0.0443875386666666,0.4936281055555555,0.8396262244444445,-1.9078369,-0.09631348,0.119766235
184,1778289834500,0.0557764111111111,0.4784429511111111,0.8586088555555556,-1.7270965333333337,0.0235392253333333,0.1123097716666666
185,1778289834510,0.0428148213333333,0.4736425533333333,0.8278299666666666,-1.6660206666666666,0.1424916553333333,0.0965067533333333
186,1778289834520,0.0260156366666666,0.4701034333333333,0.8050916333333333,-1.6644236,0.2106679233333333,0.0917154933333333
187,1778289834530,-0.011326138,0.4521247,0.7998851,-1.7301178,0.31080627,0.1027221666666666
188,1778289834540,-0.0207771161111111,0.4440032666666667,0.8179861888888889,-1.7560984333333334,0.3311648866666666,0.10911221
189,1778289834550,0.0080605605999999,0.417705062,0.8916268759999999,-1.7188599,0.282925414,0.13830567
190,1778289834560,-0.0010079197777777,0.4093745044444444,0.90984741,-1.6882086666666667,0.2618577766666666,0.1532677555555555
191,1778289834570,0.0050126388888888,0.40823558,0.913914672222222,-1.6780904,0.26624044,0.15723165
192,1778289834580,0.0215546588888888,0.4051843355555555,0.9168976222222224,-1.6656680555555556,0.2812143911111111,0.15971375
193,1778289834590,0.0346790486666666,0.3946627,0.9060510888888887,-1.6221093,0.2700856444444444,0.1464555544444444
194,1778289834600,0.0477362103333333,0.3708948533333334,0.8367794,-1.5882619333333334,0.1325480133333333,0.1014811166666666
195,1778289834610,0.0428143046666666,0.3567393866666666,0.8118043333333333,-1.6193339,0.0127054866666666,0.0789337133333333
196,1778289834620,0.0263806459999999,0.3259885,0.8472733666666666,-1.7052612333333332,-0.1861470533333333,0.0483957933333333
197,1778289834630,0.0114930874666666,0.3041051333333333,0.9422936733333334,-1.7473348333333334,-0.2545064266666667,0.0347290033333333
198,1778289834640,0.0058390917,0.2971902,0.98195356,-1.7581635,-0.26835632,0.03135681
199,1778289834650,0.0096903415222222,0.3003489188888888,1.149524928888889,-1.639389,-0.2729695633333333,0.0253194173333333
200,1778289834660,0.018335588,0.297153004,1.18459308,-1.56343686,-0.224996946,0.0241088868
201,1778289834670,0.0384763768888888,0.2615700844444444,1.084727922222222,-1.4586486333333333,-0.0666605626666666,0.0087941489333333
202,1778289834680,0.03099112,0.2458830355555555,1.0396048111111111,-1.4551628888888888,0.0041215682222222,0.0067240396222222
203,1778289834690,0.025241552,0.23910412,1.0283241,-1.4726868,0.01927185,0.010040283
204,1778289834700,0.0266525017777777,0.2445277377777778,1.0567429000000002,-1.490553111111111,-0.10158115,0.0230645069999999
205,1778289834710,0.02829331,0.24439207,1.054519166666667,-1.4927419,-0.1730143233333333,0.0222930906666666
206,1778289834720,0.0695794888888888,0.2333680433333333,1.0066300244444444,-1.5747629666666667,-0.3832194033333333,0.0123443606666666
207,1778289834730,0.134165039,0.198114294,1.016475308,-1.69451602,-0.560127257,-0.0416778563
208,1778289834740,0.112750334,0.1824554633333333,1.0450693666666666,-1.7395833777777776,-0.5934956833333334,-0.0636393224444444
209,1778289834750,-0.0275285545555555,0.1652765766666666,1.1418772666666666,-1.7675781333333334,-0.47821045,0.0059611006666666
210,1778289834760,-0.023569461,0.16185981,1.1492528,-1.769412566666667,-0.4287940155555556,0.0450252953333333
211,1778289834770,-0.0069735205555555,0.1863326411111111,1.2387409222222223,-1.8053893666666667,-0.0565338133333333,0.1018422433333333
212,1778289834780,-0.0104442078888888,0.18644117,1.2467673,-1.8114250777777776,0.09763421,0.1230316155555555
213,1778289834790,-0.0067968928888888,0.1574930222222222,1.2207077444444443,-1.7820790444444443,0.0947401277777777,0.1968282055555555
214,1778289834800,0.0177583673333333,0.1360702333333333,1.2206807333333334,-1.7457427666666667,0.064559936,0.24440511
215,1778289834810,0.0536891926666666,0.1303756244444444,1.1857813333333336,-1.7290530777777775,0.0063256133333333,0.2454630566666666
216,1778289834820,0.180462778,0.1237871919999999,1.16933892,-1.59018248,-0.389038098,0.201898194
217,1778289834830,0.2086919699999999,0.1077603338888888,1.2618726111111112,-1.3995853111111112,-0.6479983888888889,0.1478254522222222
218,1778289834840,0.1767470333333333,0.0457428382222222,1.4993131,-1.0313619022222222,-1.038301288888889,0.0911933055555555
219,1778289834850,0.1318004,0.0529145891111111,1.5683542222222222,-0.6706576855555556,-1.0306057333333334,0.0617709689999999
220,1778289834860,0.1002631493333333,0.0683441286666666,1.5350541555555557,-0.5347764722222222,-0.9566277244444444,0.0583360458888888
221,1778289834870,-0.00565918,0.0691038713333333,1.3084066777777776,-0.1693861205555555,-0.5651397744444444,0.1287723146666666
222,1778289834880,-0.0105000301111111,0.0595315704444444,1.2735470333333334,-0.1143476697777777,-0.4729359977777778,0.1525641577777777
223,1778289834890,0.1061196944444444,0.0802903657777777,1.1579455666666667,0.015864054,-0.1438954666666666,0.1911417666666666
224,1778289834900,0.1854114744444444,0.1072589644444444,1.1266926555555556,0.0703091105555555,-0.0461273197777777,0.16238234
225,1778289834910,0.22890827,0.12195676,1.1175267,0.10551453,-0.004699707,0.12776184
226,1778289834920,0.247748904,0.1206389976,1.0496787,0.1657104479999999,0.0340850822,-0.0160614034
227,1778289834930,0.2317681899999999,0.1136040888888888,0.9898168555555557,0.1667734788888888,0.0022328691111111,-0.0985649977777777
228,1778289834940,0.1490606866666666,0.0961666593333333,0.9128027266666666,0.0087517649999999,-0.0578443731111111,-0.15655687
229,1778289834950,0.0991238844444444,0.0821337255555555,0.8783905,-0.2256028927777777,-0.0256449371111111,-0.1842532655555555
230,1778289834960,0.076615915,0.072778665,0.8663912,-0.38183594,0.034729004,-0.18544006
231,1778289834970,0.1079644376666666,0.1016581983333333,0.9962300666666668,-0.708702931111111,0.1855231408888888,-0.1999308222222222
232,1778289834980,0.1038695033333333,0.1148916411111111,1.043102511111111,-0.8312123666666666,0.2834676133333333,-0.2062021866666666
233,1778289834990,0.0414721382222222,0.1089258683333333,1.0315639111111112,-0.9267323777777778,0.5192430299999999,-0.1962653244444444
234,1778289835000,0.0301098795555555,0.0917471611111111,1.0010978444444445,-0.9692823499999998,0.6334041866666666,-0.1526506166666666
235,1778289835010,0.0841818815555555,0.0777410155555555,1.0234697555555554,-0.97946167,0.6192033444444445,-0.1262529155555555
236,1778289835020,0.13848509,0.0442237341999999,1.0713262,-0.933758548,0.51974182,-0.143356322
237,1778289835030,0.1500374922222222,0.0242111641111111,1.092618788888889,-0.8986731666666667,0.4568667911111111,-0.1585676377777777
238,1778289835040,0.0773215668888888,0.0341368946666666,1.059521811111111,-0.8571217666666667,0.3583933466666666,-0.1914723733333333
239,1778289835050,0.0739317588888888,0.0396147811111111,1.0775008777777777,-0.8503163511111111,0.3446655222222222,-0.1934797499999999
240,1778289835060,0.0610510522222222,0.0302588572222222,1.0575014888888887,-0.77137587,0.2864820711111111,-0.19330173
241,1778289835070,0.0706644851111111,0.0238853875555555,1.018534111111111,-0.73480225,0.0372009266666666,-0.2392272966666666
242,1778289835080,0.10065667,0.0242103,1.023199,-0.72698975,-0.07980347,-0.26213074
243,1778289835090,0.0077049422857142,0.0014778824571428,1.0075091142857142,-0.7395455428571429,-0.2030661457142857,-0.2153407514285714
244,1778289835100,-0.0637876028571428,0.0143261960285714,1.049242442857143,-0.7585710571428572,-0.3815721771428571,-0.1400146474285714
245,1778289835110,-0.0386493761428571,-0.0191095928571428,1.1095415,-0.7083478428571429,-0.41505432,-0.0285382952857142
246,1778289835120,-0.0190544871428571,-0.0446484544285714,1.167278457142857,-0.6211482357142858,-0.3882707857142857,0.0316510888571428
247,1778289835130,-0.003434394,-0.0585246869999999,1.2153928,-0.53471375,-0.35357666,0.06970215
248,1778289835140,0.052409309875,-0.061515395,1.275706025,-0.170524595,-0.15137100625,0.1695060775
249,1778289835150,0.0799113568888889,-0.0696710861111111,1.2701436222222222,-0.0549841966666666,-0.0951300753333333,0.1899024155555555
250,1778289835160,0.1615886553333333,-0.0909844766666666,1.2580225,0.281829825,0.0714772553333333,0.2046305366666666
251,1778289835170,0.1700766444444444,-0.0921235727777777,1.2093596333333334,0.4301961199999999,0.1719699455555555,0.1987101222222222
252,1778289835180,0.14885795,-0.08805612,1.1653608,0.4804992699999999,0.22167969,0.1921997
253,1778289835190,0.1174548219999999,-0.040017118,0.9927317,0.4011942566666666,0.2704501611111111,0.1718546555555555
254,1778289835200,0.11969205,-0.020817902,0.9735325,0.365448,0.2861328,0.15866089
255,1778289835210,0.0613892730555555,-0.0226481275555555,0.9947520555555556,0.2305179166666666,0.1938086555555555,0.1471150733333333
256,1778289835220,0.0280352801666666,-0.0286686866666666,0.9923117444444444,0.0863528766666666,0.0669165712666666,0.1388278555555555
257,1778289835230,0.044645566,-0.03436416,0.9680418,0.04107666,0.00062561035,0.14001465
258,1778289835240,0.080521604,-0.0280185156666666,0.9913898666666666,0.0322553844444444,0.0064290369,0.1255120177777777
259,1778289835250,0.15227368,-0.015327227,1.038086,0.016036987,0.04537964,0.08354187
260,1778289835260,0.1517317066666667,-0.0096861938444444,1.0609190666666668,0.0550927072222222,0.2460055911111111,0.0177985304444444
261,1778289835270,0.1392573133333333,-0.0050359705999999,1.0760365,0.08030701,0.37774658,-0.0167643226666666
262,1778289835280,0.0922355639999999,0.0027341384,1.0572439800000002,0.079638673,0.547650152,-0.0481262202
263,1778289835290,0.0419600266666666,0.0070464527222222,1.0266425444444445,0.0597788494444444,0.5997874,-0.065061782
264,1778289835300,0.0148695847777777,0.0057447289444444,1.0146567222222225,0.0420210098888888,0.5496029333333333,-0.0630442315555555
265,1778289835310,-0.028030441,-0.0044125879999999,1.0779620777777776,0.0337371826666666,0.2712164955555555,-0.005057441
266,1778289835320,-0.0324369798888888,-0.0070023823333333,1.0974867444444445,0.0416717526666666,0.2083095944444444,0.0113949244444444
267,1778289835330,-0.014783863,-0.0019033303333333,1.1122381666666667,0.13730367,0.0327657053333333,0.08656311
268,1778289835340,0.0067343296666666,0.0089985196666666,1.0992763666666667,0.1731669122222222,-0.0223354763333333,0.1116010883333333
269,1778289835350,0.024022093,0.017744368,1.0908027,0.19926453,-0.043045044,0.1240387
270,1778289835360,0.0611597592222222,0.0234925547777777,1.049597411111111,0.20210266,-0.0764804424444444,0.1073387988888888
271,1778289835370,0.073809914,0.027871788,1.038086,0.19766235,-0.09364319,0.09686279
272,1778289835380,0.0686304996666666,0.0251193642222222,1.0455702,0.1936408122222222,-0.0478939487777777,0.0772722018888888
273,1778289835390,0.0449841319999999,0.0201706705555555,1.050058333333333,0.1871897355555555,0.0637274831111111,0.0482754177777777
274,1778289835400,0.0369843722222222,0.025025001,1.0439299555555557,0.1812693266666666,0.1046786822222222,0.0457933215555555
275,1778289835410,0.0569422922222222,0.0333498472222222,1.030302977777778,0.1376003683333333,0.1652187777777777,0.0330047602222222
276,1778289835420,0.054881518,0.0331873903333333,1.0286217333333334,0.1035156261111111,0.1682976622222222,0.0263790553333333
277,1778289835430,0.0480864938,0.0286781226,1.0308859199999998,0.0718597434,0.137417606,0.0260314946
278,1778289835440,0.0516140742222222,0.0160626016666666,1.087398888888889,0.0020667182777777,-0.0003102633333333,0.0314144555555555
279,1778289835450,0.0590442,0.010422951,1.1197228,-0.0074005127,-0.04197693,0.03401184
280,1778289835460,0.0273984163333333,0.0057037690666666,1.2247487333333331,0.0619015151111111,-0.0434604205555555,0.0726572673333333
281,1778289835470,0.04338411,-7.25868333333334e-05,1.2500084333333334,0.11209615,0.0048929853333333,0.08744812
282,1778289835480,0.0785418882222222,-0.0066358190888888,1.2895188555555557,0.2033521855555555,0.1396569177777777,0.0775095622222222
283,1778289835490,0.0797756895555555,-0.0173468702222222,1.3028060444444445,0.2883300777777778,0.2625172955555556,0.0485161682222222
284,1778289835500,0.07154538,-0.0102829616111111,1.2874439111111111,0.3726060688888888,0.3796980111111111,0.0276828348888888
285,1778289835510,0.062277945,0.0039539083499999,1.26408255,0.482736208,0.55181274,0.010043335
286,1778289835520,0.04688176,0.0118459975555555,1.2410191,0.5192040311111111,0.609858188888889,0.0053693982777777
287,1778289835530,0.0098121835555555,0.0305028855555555,1.1738214666666666,0.5489061,0.5817989777777777,0.006196764
288,1778289835540,-0.0052651376,0.04178357,1.1521816,0.5465393,0.5396576,0.009506226
289,1778289835550,-0.0070951896222222,0.0518171433333333,1.1946894,0.53749084,0.3237101233333333,0.0068444147777777
290,1778289835560,-0.0044106868,0.055084588,1.2356503333333333,0.53890991,0.1927388533333333,0.001159668
291,1778289835570,0.0076288757333333,0.0519109903333333,1.2691672666666665,0.5567796522222223,0.2056410066666666,-0.0097249348444444
292,1778289835580,0.0205075946,0.0489093155,1.28799976,0.6660644579999999,0.345622256,-0.0524353027
293,1778289835590,-0.0083977766666666,0.0532942873333333,1.2459809333333334,0.7226613333333334,0.3211059599999999,-0.0561777746666666
294,1778289835600,-0.0325050734444444,0.0576463869999999,1.2111084555555556,0.7526702999999999,0.2648315433333333,-0.0471293133333333
295,1778289835610,-0.0288714113333333,0.0602087008888888,1.1992579555555556,0.7723812666666666,0.2334611677777777,-0.0410919188888888
296,1778289835620,-0.023448138,0.06167288,1.1941596,0.7883606,0.21421814,-0.03842163
297,1778289835630,-0.0240720397777777,0.0646299297777777,1.1691572666666668,0.8187120311111111,0.1597730833333333,-0.0132734511111111
298,1778289835640,-0.022553247,0.0738773183333333,1.1542565666666669,0.8217315666666667,0.1011250799999999,-0.0032704670666666
299,1778289835650,-0.0256202987,0.1021511314999999,1.1986017800000002,0.782388299,-0.031802367,-0.000770568852
300,1778289835660,-0.01908204,0.10214643,1.2818443444444445,0.7511884833333333,0.0056627055555555,0.0038859051333333
301,1778289835670,-0.006607475,0.09340058,1.3574349,0.731369,0.09384155,0.009506226
302,1778289835680,-0.0004794185555555,0.069226058,1.4053921222222223,0.8735198733333334,0.1495937766666666,0.0071394177777777
303,1778289835690,-0.004547392,0.0619723885555555,1.4063141777777777,1.0244920222222222,0.2035081666666666,0.0109897186666666
304,1778289835700,-0.0223904441111111,0.0697549068888889,1.2775197777777778,1.2411533,0.3025224433333333,0.0246615936666666
305,1778289835710,-0.0501049605555555,0.0759100977777777,1.146678,1.3403421666666668,0.30334981,0.0400492343333333
306,1778289835720,-0.0818997185,0.093144251,1.05122866,1.36605532,0.269726562,0.078115846
307,1778289835730,-0.1063464488888888,0.1268644944444444,1.0236591000000002,1.2740580666666668,0.3009338355555555,0.1305389444444444
308,1778289835740,-0.11008882,0.13464753,1.0239301,1.2480164,0.31170654,0.14320374
309,1778289835750,-0.0771006927777777,0.1566387433333333,1.1104758666666668,1.2023824333333333,0.37028504,0.2083587666666666
310,1778289835760,-0.0494269644444444,0.16987236,1.1311121000000002,1.2104339888888889,0.3560180722222222,0.2183600533333333
311,1778289835770,0.0118594781111111,0.1679204644444444,1.1111267444444446,1.309738133333333,0.3230522999999999,0.1674058677777777
312,1778289835780,0.0243886563333333,0.1733710466666666,1.0397534333333334,1.3923594,0.4040222133333333,0.1185302726666666
313,1778289835790,0.0169312237777777,0.1762587933333333,0.9863861888888888,1.4223073333333334,0.4501291866666667,0.0967542864444444
314,1778289835800,-0.079386451,0.181335064,0.7806539299999999,1.32535404,0.34034729,0.080993652
315,1778289835810,-0.1098988788888888,0.1714592455555555,0.7365394111111111,1.2018585333333334,0.2073008233333333,0.0883433
316,1778289835820,-0.0866583033333333,0.19871215,0.76514866,1.031412761111111,-0.0100724956666666,0.0813073033333333
317,1778289835830,-0.11183712,0.2256807466666666,0.85036508,0.96643065,-0.0453542076666666,0.1101837166666666
318,1778289835840,-0.1335450755555555,0.2309688666666666,0.8930478588888889,0.9520500833333334,-0.0289052333333333,0.1282314744444444
319,1778289835850,-0.10610276,0.22348344,0.9971241766666668,0.9627600666666668,0.1479390444444444,0.1658121766666666
320,1778289835860,-0.0700220966666666,0.1996746222222222,1.0060729444444445,0.9736446666666668,0.2251146088888888,0.2013210744444444
321,1778289835870,-0.0555041946,0.1887551019999999,1.01747481,1.03927154,0.227699278,0.237368774
322,1778289835880,-0.0555812906666666,0.20127498,1.0101816,1.1249762555555556,0.2429250044444444,0.24309455
323,1778289835890,-0.0542526053333333,0.2154029711111111,0.9864267222222222,1.1945749666666667,0.25132751,0.23481242
324,1778289835900,-0.0632811977142857,0.25306724,0.8959048714285714,1.250682242857143,0.2112535757142857,0.2056012857142857
325,1778289835910,-0.073113084,0.25960472,0.87200475,1.2618713,0.1870575,0.19647217
326,1778289835920,-0.042499264125,0.2842085462499999,0.7975514625,1.2903003875,0.11189079375,0.1113166775
327,1778289835930,-0.0193932998333333,0.3299201022222222,0.7233190955555556,1.1812032111111113,0.0933736155555555,0.0468054861111111
328,1778289835940,-0.010298904525,0.360582985,0.70915724,1.071449275,0.0894546485,0.013381958
329,1778289835950,-0.0224177506666666,0.3472887455555555,0.8351107744444444,0.9811689333333334,0.069885254,-0.0724538142222222
330,1778289835960,-0.0238141831111111,0.3405635733333333,0.8553538555555557,0.9747772,0.069885254,-0.08476257
331,1778289835970,-0.0296709039999999,0.3370922,0.8442636333333333,0.9934184,0.1687723833333333,-0.0817515046666666
332,1778289835980,-0.0409515875555555,0.3389906955555555,0.7939199844444444,0.9996897555555556,0.2535807333333333,-0.0723978655555555
333,1778289835990,-0.0945500456666666,0.3499053333333333,0.69961878,0.94281514,0.3408152266666666,-0.055831908
334,1778289836000,-0.1444327544444444,0.3608878911111111,0.6624000555555555,0.8654056044444444,0.3267330622222222,-0.0212148030555555
335,1778289836010,-0.1746686277777777,0.3609425022222222,0.6528818622222222,0.8194834222222221,0.2948930555555555,0.0147722031888888
336,1778289836020,-0.20649086,0.3529970166666666,0.6397434766666666,0.8100179000000001,0.2557627366666666,0.1332702613333333
337,1778289836030,-0.20296539,0.3707045688888889,0.5968574466666667,0.8004303,0.2170545822222222,0.19700792
338,1778289836040,-0.188698796,0.417631642,0.538818134,0.72337648,0.0528259288,0.271252444
339,1778289836050,-0.1372457944444444,0.443244211111111,0.5784038199999999,0.6341315488888889,-0.1802334244444444,0.32489014
340,1778289836060,-0.09873883,0.4475289,0.6184289,0.57051086,-0.37168884,0.35891724
341,1778289836070,0.0180831051111111,0.4926789722222222,0.7358615844444444,0.6502261788888889,-0.5581681955555555,0.3214026577777777
342,1778289836080,0.1005747506666666,0.5056134333333333,0.7706807933333333,0.75976562,-0.6422627666666667,0.2238108333333333
343,1778289836090,0.0928731199999999,0.5219245444444444,0.6926503222222222,0.691352,-0.4554765444444444,0.1110721177777777
344,1778289836100,0.039722626,0.5320936,0.6432421866666667,0.5838826666666667,-0.2483435711111111,0.0163794617777777
345,1778289836110,0.0099884668888888,0.5294633622222222,0.6367337377777778,0.524704,-0.15809631,-0.022979736
346,1778289836120,-0.11684043,0.4825505,0.6199744866666667,0.4118465866666667,-0.0942942288888888,0.01235962
347,1778289836130,-0.162194234,0.470543076,0.627263438,0.35181122,-0.0613662696,0.061343385
348,1778289836140,-0.17634918,0.4996757866666667,0.7242273166666666,0.2574971533333333,0.0943806959999999,0.2032165566666666
349,1778289836150,-0.1261004311111111,0.5106042611111111,0.7764151666666668,0.2501576744444444,0.1754642077777777,0.2806854255555555
350,1778289836160,-0.0660353492222222,0.5130450999999999,0.7948416555555555,0.27383423,0.20091248,0.31471252
351,1778289836170,-0.0284784057777777,0.5688382555555554,0.8509343444444445,0.3759189244444444,0.0278608522222222,0.3254835333333333
352,1778289836180,-0.0103641899555555,0.5838070555555556,0.9050067,0.4304301,-0.0604400633333333,0.3131154366666667
353,1778289836190,0.0470488617799999,0.55632954,0.935642945,0.65450594,-0.119369507,0.231039432
354,1778289836200,0.0685354466666666,0.5547517722222222,0.8739568555555556,0.7903018666666666,-0.0900336377777777,0.1426188177777777
355,1778289836210,0.0692945,0.56321263,0.8256327,0.8400116,-0.059020996,0.09527588
356,1778289836220,0.0087133572833333,0.5644592333333334,0.6445706888888889,0.7366892466666667,-0.0025634766666666,0.0491078683333333
357,1778289836230,-0.0076656875666666,0.5659372333333333,0.6365709333333334,0.6828969266666667,0.016438802,0.0421854643333333
358,1778289836240,-0.04199649,0.5630351266666667,0.6738301111111111,0.5959015,0.064025878,0.0372111003333333
359,1778289836250,-0.0799875744444444,0.5588586,0.7140857388888889,0.5663706444444444,0.0856272366666666,0.0507642966666666
360,1778289836260,-0.089928238,0.57829376,0.72710756,0.556985462,0.108874512,0.0955932624
361,1778289836270,-0.0705234616666666,0.6073858333333333,0.7392916777777777,0.5565439866666666,0.0914221877777777,0.1273498517777777
362,1778289836280,-0.059568383,0.6220297,0.74899966,0.557724,0.072006226,0.13894653
363,1778289836290,-0.0348909347777777,0.6384630511111111,0.7757776399999999,0.6466149422222223,-0.0924055336888888,0.1108940966666666
364,1778289836300,-0.0322878326666666,0.6419342633333334,0.7848891888888889,0.6809387444444445,-0.1565585699999999,0.0989413777777777
365,1778289836310,-0.0079906001888888,0.6321580088888888,0.7626812222222222,0.8327433222222222,-0.1127082,0.0854966877777777
366,1778289836320,-0.0051700834555555,0.6299069666666667,0.7082972777777778,0.8820936422222222,-0.0571289068888888,0.0855000822222222
367,1778289836330,-0.0110819351333333,0.6307339333333333,0.6887178333333334,0.8884836933333333,-0.0302581786666666,0.0867462166666666
368,1778289836340,-0.0400442872,0.6258368,0.637172468,0.88455355,0.053048706,0.1034729002
369,1778289836350,-0.0220658779999999,0.6360218666666666,0.5851151533333333,0.8184865333333333,0.0683390313333333,0.1159752741111111
370,1778289836360,-0.0041948277222222,0.6638312555555556,0.5489135111111111,0.7352125388888889,0.047454835,0.1013624411111111
371,1778289836370,-0.0019162921666666,0.6873694333333333,0.5344328,0.67105781,0.0254414878888888,0.0857442211111111
372,1778289836380,-0.0034755262222222,0.70354472,0.54338138,0.62099372,-0.0317348896666666,0.0745578313333333
373,1778289836390,-0.0337527016666666,0.721862008888889,0.5941594811111112,0.4815622966666667,-0.26071676,0.0265553793333333
374,1778289836400,-0.0529790514444444,0.7134288055555555,0.5895490022222223,0.4655219222222222,-0.2979380311111111,0.0197499595555555
375,1778289836410,-0.0441519757777777,0.7144057855555556,0.5895080555555556,0.4175838944444444,-0.2816619866666666,0.0336608895555555
376,1778289836420,-0.0288435861111111,0.7162085333333333,0.6226456888888889,0.3766276077777777,-0.2068023699999999,0.0524173316666666
377,1778289836430,-0.026619663,0.7145266,0.6456412,0.36810303,-0.16395569,0.061172485
378,1778289836440,0.0137857936555555,0.7085069088888889,0.6783045666666667,0.4219699522222222,-0.094823202,0.0609419081111111
379,1778289836450,0.0279820486666666,0.713713291111111,0.6792808577777777,0.4451717888888889,-0.0820990675555555,0.0557946097777777
380,1778289836460,0.0080220546666666,0.7237606777777778,0.6127206444444444,0.4407806333333333,-0.1667412688888888,0.0085635711111111
381,1778289836470,-0.0116113002666666,0.7228253333333333,0.5848305333333333,0.4151560466666666,-0.23142497,-0.0132141113333333
382,1778289836480,-0.0227971032222222,0.7373871244444445,0.6094271111111111,0.3496992322222222,-0.2534959577777778,-0.0322163901111111
383,1778289836490,-0.0149601452222222,0.7405329111111112,0.6147418666666666,0.3123558888888889,-0.2313588444444444,-0.0480753575555555
384,1778289836500,-0.005834944,0.73897385,0.6128972899999999,0.2822926844444444,-0.1804623066666666,-0.0641682922222222
385,1778289836510,-0.0033120333066666,0.73881105,0.60931769,0.2377929666666666,-0.0826365166666666,-0.07944234
386,1778289836520,-0.00160365044,0.7397059333333333,0.6077311533333334,0.2225240033333333,-0.045176189,-0.08352661
387,1778289836530,-0.01195225108,0.74486312,0.5795994120000001,0.218548586,0.0293945314,-0.0661315916
388,1778289836540,-0.0095227006666666,0.7555421388888889,0.5405482666666667,0.1777258933333333,0.0491655137777777,-0.058017306
389,1778289836550,-0.0089397593333333,0.7653857833333333,0.5351649,0.14316304,0.0382741293333333,-0.0570678699999999
390,1778289836560,-0.0065941676666666,0.7691279400000001,0.5710951888888889,0.1075897233333333,-0.0068800183333333,-0.0583140053333333
391,1778289836570,0.0001850963333333,0.7611827999999999,0.5947961666666666,0.1040344255555555,-0.0685509546666666,-0.058670044
392,1778289836580,0.0085645542222222,0.7707684422222223,0.6081251777777777,0.1136796733333333,-0.1020524766666666,-0.0652923597777777
393,1778289836590,0.007507552,0.76179254,0.582472,0.1031528044444444,-0.1012844533333333,-0.0677778444444444
394,1778289836600,0.006206174,0.75540644,0.568764,0.09274292,-0.09631348,-0.06825256
395,1778289836610,-0.0081392302,0.7409260933333334,0.5341076944444444,-0.0039706759999999,-0.0179443362222222,-0.0645904537777777
396,1778289836620,-0.0202750566666666,0.7408040666666666,0.5247519333333334,-0.0539194753333333,0.018218994,-0.0577850346666666
397,1778289836630,-0.023651035,0.7391362944444444,0.5738488355555555,-0.1446414555555555,0.029937744,-0.0316263837777777
398,1778289836640,-0.0247222098888888,0.73799755,0.6029314155555555,-0.1693250855555555,0.0323028562222222,-0.0244038897777777
399,1778289836650,-0.025644409,0.73832315,0.6161097,-0.17572021,0.034194946,-0.022979736
400,1778289836660,-0.0159364381111111,0.7372248444444445,0.6779246888888889,-0.1711018855555555,0.0685797797777777,-0.0245819092222222
401,1778289836670,-0.0101468608,0.7339791480000001,0.700042275,-0.152226257,0.1122772232,-0.029432678
402,1778289836680,-0.0039760300222222,0.7366555444444445,0.6268908055555555,-0.1193745927777777,0.1474134677777777,-0.0424007838888888
403,1778289836690,-0.00168453294,0.7403161733333333,0.5895901533333334,-0.1512146016666666,0.1796061233333333,-0.0549468996666666
404,1778289836700,-0.0038270541911111,0.7402074666666667,0.5733870388888889,-0.1780819388888889,0.1982472766666666,-0.0637037487777777
405,1778289836710,-0.0129391206666666,0.7358413644444445,0.5834475711111111,-0.24797566,0.21529134,-0.0810445166666666
406,1778289836720,-0.012830586,0.7355161111111111,0.5909862333333334,-0.2664404888888889,0.2137502033333333,-0.0853644502222222
407,1778289836730,-0.0020510963333333,0.7350692000000001,0.6008571766666667,-0.2724711133333333,0.1620229066666666,-0.107493082
408,1778289836740,0.0060165838888888,0.7360183666666668,0.5982134533333334,-0.27478028,0.1355692533333333,-0.1176147453333333
409,1778289836750,0.013894674,0.7356385,0.5919492,-0.2758484,0.12527466,-0.121520996
410,1778289836760,0.0011619078,0.7405598666666667,0.5542823666666666,-0.3139682377777777,0.0598229309999999,-0.1530066568888889
411,1778289836770,-0.0015908613777777,0.7403702822222223,0.5431240555555557,-0.3369293233333333,0.048934938,-0.1628875733333333
412,1778289836780,-0.0201936565333333,0.7324244533333333,0.5131194,-0.4203745566666666,0.0993499766666666,-0.1504567466666666
413,1778289836790,-0.0173871383333333,0.7137131333333334,0.5208877333333333,-0.4851735566666666,0.1373443583333333,-0.1305694566666666
414,1778289836800,-0.0067021839266666,0.7063372444444445,0.5364119777777777,-0.5174289377777779,0.1587727866666667,-0.1199171276666666
415,1778289836810,-0.0115558233111111,0.7078696888888889,0.5524388111111111,-0.5409291566666667,0.15972392,-0.1129964193333333
416,1778289836820,-0.0249118,0.7103783,0.5601002,-0.55122375,0.13380432,-0.109802246
417,1778289836830,-0.033643995,0.7164662244444444,0.5700516877777778,-0.5745425755555555,-0.00593567,-0.1122317864444444
418,1778289836840,-0.0379556516666666,0.7205604777777778,0.5768579033333334,-0.5871480277777777,-0.0892079688888888,-0.1188591888888889
419,1778289836850,-0.0723815126666666,0.7033824666666666,0.6149716866666667,-0.5778503333333334,-0.22627767,-0.12383016
420,1778289836860,-0.0794730733333333,0.6831255522222222,0.6502922444444444,-0.5422838055555554,-0.2779405377777778,-0.1166687011111111
421,1778289836870,-0.07079549,0.66705793,0.6757823,-0.506485,-0.28326416,-0.10926819
422,1778289836880,-0.0454543922222222,0.6583540755555555,0.67856206,-0.4130944199999999,-0.2084537066666666,-0.10423618
423,1778289836890,-0.0402749757777777,0.6594387355555555,0.6556071811111112,-0.3537987622222222,-0.1543596044444444,-0.1013946546666666
424,1778289836900,-0.0632288306666666,0.6473303666666667,0.5481005733333334,-0.3589494466666666,-0.1713477244444444,-0.0770772298888888
425,1778289836910,-0.0406779702,0.62576338,0.459719148,-0.43405151,-0.25530243,-0.0610733034999999
426,1778289836920,-0.022959733,0.6167817,0.42476982,-0.5143619055555555,-0.3151669011111111,-0.0651279028888888
427,1778289836930,0.001406111,0.6351679466666666,0.36107074,-0.8450571833333335,-0.42831929,-0.1050109886666666
428,1778289836940,0.0036433404666666,0.6281721466666667,0.38376812,-0.9588623333333334,-0.4588572133333334,-0.1145985933333333
429,1778289836950,-0.0266749678222222,0.5927969666666667,0.5443032311111111,-1.119893388888889,-0.3798472066666666,-0.1261325422222222
430,1778289836960,-0.06692091,0.5860615250000001,0.6879244475,-1.20236585,-0.1831283575,-0.11273575
431,1778289836970,-0.07148163175,0.5838498875,0.70959978125,-1.203565575,-0.125938416875,-0.10388374375
432,1778289836980,-0.0083773624625,0.55512726875,0.7966209375,-1.088916775,-0.063947676875,-0.06519127
433,1778289836990,0.0023953653888888,0.5563239277777777,0.7882112266666668,-1.0337320955555556,-0.1073167588888888,-0.0649973544444444
434,1778289837000,0.0025800173428571,0.5830152428571429,0.7499062257142857,-0.9564056457142858,-0.2697209014285714,-0.071905952
435,1778289837010,-0.0035030057333333,0.5716451111111112,0.7434139,-0.9134165333333332,-0.44784546,-0.0718078613333333
436,1778289837020,-0.00502249,0.548324,0.74997646,-0.9011688,-0.49365234,-0.070388794
437,1778289837030,0.037663853,0.51978185,0.730134274,-0.90681,-0.341528313,-0.1252990758
438,1778289837040,0.01991316,0.4838117911111111,0.7028190444444444,-0.9441918444444444,-0.2445526022222222,-0.1561923588888889
439,1778289837050,-0.0279893098888888,0.4534537266666666,0.7034560733333333,-1.0407138333333334,-0.2391764311111111,-0.1731872544444444
440,1778289837060,-0.03223322,0.44948098,0.7023849,-1.0534973,-0.24545288,-0.17425537
441,1778289837070,-0.0696287428888889,0.43684412,0.7182077888888888,-1.1172926444444444,-0.3554111055555555,-0.1298658611111111
442,1778289837080,-0.0864552319999999,0.4225535066666667,0.7096923222222222,-1.2203878,-0.4375508633333333,-0.07163493
443,1778289837090,-0.0850857611111111,0.4168046311111111,0.7027500833333333,-1.254303,-0.44784546,-0.0549469
444,1778289837100,-0.0516771586666666,0.3966019933333333,0.6926629166666667,-1.4958191333333335,-0.22461107,-0.0054066975555555
445,1778289837110,-0.0357045983333333,0.3939034944444445,0.6983577,-1.5963084333333333,-0.1009233232222222,0.0100385881111111
446,1778289837120,-0.0312081868,0.350589096,0.7865847560000001,-1.7506026899999998,0.1913772563,0.0295928945
447,1778289837130,-0.1013970566666666,0.3251475177777778,0.9601227933333334,-1.7185770666666669,0.3466695166666667,0.0791168233333333
448,1778289837140,-0.15048027,0.32916054,1.0573657,-1.6814728,0.3793335,0.1006012
449,1778289837150,-0.0206817153555555,0.3261505988888889,1.1785406555555555,-1.2074839333333334,-0.0016784688888888,0.2281968855555555
450,1778289837160,-0.0017265296,0.32293725,1.1915978,-1.1147461,-0.07287598,0.2497406
451,1778289837170,0.016049466,0.3231404866666666,0.9840275,-0.7253926666666667,-0.35604858,0.1850992833333333
452,1778289837180,0.0025180716888888,0.3208897755555556,0.8836381888888889,-0.688883488888889,-0.4140489377777777,0.1675228566666666
453,1778289837190,-0.0023633926555555,0.3153990955555555,0.8448324333333334,-0.6971741,-0.42440796,0.16664124
454,1778289837200,-0.0504162174333333,0.2216532266666666,0.7171096333333333,-1.1071167,-0.2550303133333333,0.110010782
455,1778289837210,-0.0736867246,0.198919081,0.7396037200000001,-1.1903885,-0.189627075,0.133360289
456,1778289837220,-0.061195882,0.2577745,0.9746715666666664,-1.2763163333333332,0.0569152833333333,0.1797790533333333
457,1778289837230,-0.0592427793333333,0.2792099066666667,1.098164,-1.2066006333333332,0.0644921205555555,0.2019127777777777
458,1778289837240,-0.06213018,0.27705356,1.1200883,-1.1509705,0.021408081,0.21351624
459,1778289837250,-0.0198813605555555,0.2395650477777778,1.1711513,-0.7551015,-0.0822838711111111,0.2829301622222222
460,1778289837260,-0.0055903957111111,0.23734113,1.1340003666666667,-0.6779310333333333,-0.0831129306666666,0.2851782944444445
461,1778289837270,0.1998654007555555,0.4337799288888889,1.0432517666666667,-0.5591532222222222,-0.1408691442222222,0.2405548077777778
462,1778289837280,0.1293322661111111,0.3505019277777778,0.9665366388888889,-0.5244089666666666,-0.1770341688888889,0.2187177822222222
463,1778289837290,-0.0019707325999999,0.20537428,0.8901625400000001,-0.51553803,-0.2144439719999999,0.245677186
464,1778289837300,0.0050266376666666,0.1889901866666666,0.7930111066666667,-0.5989227444444444,-0.2171596955555555,0.2556457522222222
465,1778289837310,0.01877562,0.19236651,0.75253826,-0.6870999,-0.21136644,0.2487843811111111
466,1778289837320,0.1062287516666666,0.1699542833333333,0.7388712,-1.0476972777777778,-0.2347937688888888,0.1993119977777777
467,1778289837330,0.1280312416666666,0.1608700388888888,0.7820831666666667,-1.2067158999999998,-0.2671051033333333,0.1721496566666666
468,1778289837340,0.1673376999999999,0.1922578,1.032309611111111,-1.322057066666667,-0.1981591088888888,0.0138363304444444
469,1778289837350,0.1528030533333333,0.1830105866666666,1.1726428,-1.2509206,-0.07979838,-0.102879846
470,1778289837360,0.138766003,0.171633998,1.21427072,-1.17498625,-0.0430969249999999,-0.15604096
471,1778289837370,0.0473566826666666,0.1439490088888889,1.2033933888888888,-0.9207475333333331,-0.2230173688888889,-0.2030131066666666
472,1778289837380,0.022435552,0.1373322,1.1984309,-0.8686676,-0.2672882,-0.20620728
473,1778289837390,-0.01871865213125,0.1132156193749999,1.0861187875,-0.7458248125,-0.61216545,-0.1353015924999999
474,1778289837400,-0.021088029,0.10527838,1.00887972,-0.68188476,-0.9320068333333332,-0.07624817
475,1778289837410,0.014625727,0.1151221899999999,0.97975576,-0.701416,-1.1578369,-0.04322815
476,1778289837420,0.0790700466666666,0.0926282244444444,1.031495422222222,-0.7452782555555556,-1.3297102,-0.0367635093333333
477,1778289837430,0.0899442444444444,0.0897537866666666,1.0458676000000002,-0.7500712,-1.347819,-0.0314992273333333
478,1778289837440,0.1144718444444444,0.0897264833333333,1.191542833333333,-0.6943223777777778,-1.2393968666666666,-0.0126834448888888
479,1778289837450,0.1933840999999999,0.1318942444444444,1.2846242222222222,-0.5537075555555556,-0.9959259111111112,-0.0281863742777777
480,1778289837460,0.2372065,0.16356768,1.2380912,-0.4535064555555555,-0.8303917633333333,-0.0622795953333333
481,1778289837470,0.1300409619999999,0.155782738,1.09692798,-0.3774810759999999,-0.468289174,-0.0894592284
482,1778289837480,0.1564635033333333,0.2097349733333333,1.0708299,-0.3894805933333333,-0.3058064733333333,-0.1142425513333333
483,1778289837490,0.1594329944444444,0.1231898722222222,0.9887859111111112,-0.5428771966666667,-0.0260467528888888,-0.1595662466666666
484,1778289837500,0.1083704066666666,0.0922348733333333,1.0131234111111111,-0.6608259244444444,0.1258663575555555,-0.1461368166666666
485,1778289837510,0.070513956,0.09315638,1.0501655,-0.7216644,0.19664001,-0.12791443
486,1778289837520,0.0455663819999999,0.0963296366666666,1.054641,-0.8101993222222222,0.6033426844444444,-0.0367092546277777
487,1778289837530,0.042203538,0.09974675,1.0472382,-0.8468323,0.75964355,0.00045776367
488,1778289837540,0.065364545,0.077488826,1.03940376,-0.94856262,0.890243534,0.130102540734
489,1778289837550,0.1232042227777777,0.0538098266666666,1.0542752555555557,-1.000288211111111,0.94233704,0.1778903533333333
490,1778289837560,0.1396648366666666,0.0869341333333333,1.0714407,-0.9576229666666668,0.8615519222222222,0.13574897
491,1778289837570,0.14857262,0.0955985811111111,1.0831412,-0.9226464277777776,0.8266364266666667,0.1146138533333333
492,1778289837580,0.1841235777777777,0.0755317799999999,1.1397893333333335,-0.8903316877777778,0.8665229111111111,0.0980394177777777
493,1778289837590,0.2426705588888889,0.0391258561111111,1.227080988888889,-0.7760467555555556,1.1875169555555556,-0.00073242
494,1778289837600,0.2147125277777778,0.0419999487777777,1.1804657222222223,-0.7174598,1.3210347333333334,-0.0696207666666666
495,1778289837610,0.0422854586666666,0.097021634,1.2706718666666663,-0.4656422866666667,1.5990702666666663,-0.1348368333333333
496,1778289837620,-0.0342267642222222,0.0749213622222222,1.2521102222222222,-0.2781524688888889,1.5977698444444444,-0.1258443222222222
497,1778289837630,-0.0227290113333333,0.0222592693333333,1.1861059555555555,-0.2098032666666666,1.3956044333333333,-0.1005757666666666
498,1778289837640,-0.0215194026,0.0564267194,1.1368062,-0.155905152,0.8169464200000001,-0.09083862
499,1778289837650,-0.0472165222222222,0.0772799097777777,1.0785445,-0.0772450777777777,0.4733225488888888,-0.0713958731111111
500,1778289837660,-0.049969291,0.0632194956666666,1.0347905333333332,-0.05925327,0.3310529888888889,-0.0593244762222222
501,1778289837670,-0.0417120206666666,0.0278717866666666,0.9736543,-0.0718536366666666,0.0652669276666666,-0.036478678
502,1778289837680,-0.0389996935555555,0.0257563995555555,0.9790506111111112,-0.1126929355555555,-0.1298014265555555,-0.0293714733333333
503,1778289837690,-0.0352989755555555,0.0563178737777777,1.1267321,-0.1715104822222222,-0.8804609422222222,0.0008680553333333
504,1778289837700,-0.0328448146,0.067872522,1.16472644,-0.15088806,-0.961196892,0.00439453108
505,1778289837710,0.01371035625,0.05246044525,1.299927875,0.0890102399999999,-0.9140949,0.000585556025
506,1778289837720,0.017139306,0.0413682702,1.25363658,0.271807864,-0.8709655599999999,-0.01201477064
507,1778289837730,0.003154416,0.04019703,1.1380272,0.36384583,-0.90963745,-0.02671814
508,1778289837740,0.0038735442055555,0.0385968373333333,1.0661392444444444,0.37538656,-0.9605916333333332,-0.0244089766666666
509,1778289837750,0.00010421395,0.04532218,1.0216124,0.39846802,-1.0625,-0.01979065
510,1778289837760,-4.3206777777777475e-06,0.0516946108888888,0.9872812577777778,0.2999911844444444,-1.083570666666667,0.0038909908888888
511,1778289837770,0.0077512364666666,0.0591924833333333,0.9702380533333334,0.22128296,-1.032677511111111,0.0257314043333333
512,1778289837780,0.0342990044444444,0.0614437133333333,0.9822781422222222,0.1364169655555555,-0.9247877377777776,0.0435468888888888
513,1778289837790,0.0753955229999999,0.0571353742,0.987713028,0.0146545409999999,-0.771151724,0.0569152838
514,1778289837800,0.0963980733333333,0.0574033925555555,0.9973013555555555,-0.065460205,-0.6727956066666666,0.053721111
515,1778289837810,0.1240448455555555,0.0770225773333333,1.024608711111111,-0.1503295883333333,-0.5028889933333334,0.0421854666666666
516,1778289837820,0.1377122499999999,0.08656809,1.0382488666666665,-0.19702657,-0.3887227333333333,0.0302937833333333
517,1778289837830,0.1775339022222222,0.0794903555555555,1.127627588888889,-0.2224154966666666,-0.1680348677777777,-0.0168236625555555
518,1778289837840,0.1954723544444444,0.0734836231111111,1.1803437222222222,-0.1528082911111111,0.0673319522222222,-0.0716349308888888
519,1778289837850,0.1900076033333333,0.0683996062222222,1.1818487,-0.0871141205555555,0.2186652311111111,-0.1044192866666666
520,1778289837860,0.1634055655555555,0.0715312088888888,1.1586909,0.001953125,0.3646087633333333,-0.1348978677777778
521,1778289837870,0.1305126766666666,0.0827033599999999,1.1364821,0.0845743816666666,0.44982401,-0.1520589166666666
522,1778289837880,0.10351183,0.07817197,1.11781898,0.124594118,0.532952878,-0.151879884
523,1778289837890,0.0884123133333333,0.07005303,1.094259366666667,0.12344869,0.6207987433333333,-0.1344807933333333
524,1778289837900,0.0879104261111111,0.0688600144444444,1.0872905222222222,0.1129116472222222,0.6465403222222221,-0.1251898844444444
525,1778289837910,0.0954490876666666,0.0722498193333333,1.0833584333333333,0.0758768716666666,0.68240866,-0.110514324
526,1778289837920,0.0959779326666666,0.074161446,1.0852700666666666,0.0698394766666666,0.67565918,-0.109980264
527,1778289837930,0.0771860666666666,0.0759239211111111,1.106434622222222,0.0971730533333333,0.5673522866666667,-0.1113942466666666
528,1778289837940,0.059085159,0.0811577753333333,1.1324945,0.1520911311111111,0.4784681466666667,-0.1107432066666666
529,1778289837950,0.052820917,0.094011866,1.1619451,0.20298767,0.42462158,-0.10926819
530,1778289837960,0.0324419581999999,0.0833577805,1.11574467,0.274581914,0.338542175,-0.109111023
531,1778289837970,0.0217207207142857,0.0807449221428571,1.0886575142857142,0.31355504,0.2715192542857143,-0.1030317028571428
532,1778289837980,0.01779881,0.0818574099999999,1.08850778,0.343603516,0.185671996,-0.084976198
533,1778289837990,0.01922203,0.0889534288888888,1.0771215,0.39420573,0.0698208266666666,-0.0637003577777777
534,1778289838000,0.020360606,0.09340058,1.0628579,0.40911865,0.039520264,-0.0592041
535,1778289838010,0.019095067,0.105314225,1.0044365875,0.37496566375,-0.10755729775,-0.037296295125
536,1778289838020,0.019262859875,0.11429897875,0.992691715,0.339614865,-0.174339295,-0.025115967
537,1778289838030,0.0212964573333333,0.1164650466666666,0.9875661,0.2763264966666667,-0.1806437166666666,-0.0054117838666666
538,1778289838040,0.0340010525555555,0.1144991555555555,0.9849897755555556,0.2304602722222222,-0.1588033044444444,0.0051235622777777
539,1778289838050,0.0602242556666666,0.1147571826666666,0.9968810566666666,0.1780802388888889,-0.1215209988888888,0.0060136583333333
540,1778289838060,0.0633969911111111,0.1133470962222222,1.0163514555555555,0.1580759666666666,-0.1071421333333333,-0.0007883707666666
541,1778289838070,0.059532605,0.110364124,1.0329609,0.15452576,-0.10536194,-0.0096588135
542,1778289838080,0.0499051748888888,0.1097668422222222,1.0575697666666666,0.1876085088888889,-0.1538916722222222,-0.0054694282222222
543,1778289838090,0.04610923,0.109387316,1.0699351,0.2008667,-0.17353821,-0.0016784668
544,1778289838100,0.0706911011111111,0.1066485491111111,1.0762399333333332,0.2649603911111111,-0.1019270166666666,-8.307560000000003e-05
545,1778289838110,0.095506636,0.1097780439999999,1.06049046,0.312393184,-0.02696228036,-0.01850891116
546,1778289838120,0.103178028,0.1132515266666666,1.0381674333333333,0.31821187,0.0022277832666666,-0.038782756
547,1778289838130,0.0838968937777777,0.1131156857777777,1.0051380555555556,0.2792104122222222,0.0270962184444444,-0.0725199411111111
548,1778289838140,0.0792325011111111,0.1152305551111111,1.004893811111111,0.26033868,0.0287509495555555,-0.0844794411111111
549,1778289838150,0.0516000764444444,0.1189736166666666,1.0226689666666668,0.2363688166666666,-0.013214111,-0.0927022333333333
550,1778289838160,0.0294719813333333,0.1161942331111111,1.0397128666666666,0.2278442366666666,-0.045532227,-0.0829874666666666
551,1778289838170,0.026510784,0.1146592972,1.04477316,0.22589111,-0.067443848,-0.073681638
552,1778289838180,0.0367133813333333,0.112234274,1.0638740666666666,0.2223409033333333,-0.1678568533333333,-0.0481872566666666
553,1778289838190,0.0385710864444444,0.1121663546666666,1.073554911111111,0.2213931644444444,-0.2019432933333333,-0.0411461737777777
554,1778289838200,0.038950611,0.1150003499999999,1.1002390666666666,0.2201521122222222,-0.22147454,-0.0166575114444444
555,1778289838210,0.0463402966666666,0.1170072011111111,1.1313696111111111,0.2220509833333333,-0.1816999622222222,0.0037011041111111
556,1778289838220,0.05379773,0.11768554,1.160724,0.2285614,-0.13731384,0.013763428
557,1778289838230,0.0667724497777777,0.1236240066666666,1.2365040111111112,0.3468017555555556,-0.0254618328888888,0.0163743757777777
558,1778289838240,0.06959936,0.1301927749999999,1.25511315,0.432823175,0.052307128,0.0145645139999999
559,1778289838250,0.0576204606666666,0.1468498966666666,1.2321515333333335,0.5209706633333333,0.1194203666666666,0.0025787353999999
560,1778289838260,0.0505838608888888,0.1505791322222222,1.2346466333333332,0.5783216722222222,0.1359320711111111,0.0065494113333333
561,1778289838270,0.0603054813333333,0.1605307866666666,1.258794377777778,0.6404622500000001,0.1719665533333333,0.0199940996666666
562,1778289838280,0.0697424646666666,0.1729230866666666,1.2506591333333337,0.6727701866666667,0.2215067533333333,0.0127054846666666
563,1778289838290,0.0751252966666666,0.1834042788888888,1.2475954666666669,0.6846669533333333,0.24121602,0.0075531003333333
564,1778289838300,0.05993909,0.1826855,1.2381311666666666,0.7109527600000001,0.25186666,0.004002889
565,1778289838310,0.0490242794444444,0.1750384744444444,1.2298733777777775,0.7242024733333333,0.2629292844444444,0.0119967991111111
566,1778289838320,0.051636923,0.178772493,1.23158626,0.71798554,0.2850097649999999,0.0254379273999999
567,1778289838330,0.0605078623333333,0.1974102533333333,1.2738449333333337,0.7434336333333333,0.27778117,0.026026408
568,1778289838340,0.0675041966666666,0.20680662,1.3095587,0.7784118666666666,0.2745869966666666,0.0210520426666666
569,1778289838350,0.0840730011111111,0.2000543133333333,1.3394696777777777,0.9406297666666666,0.3144768666666666,-0.0112067332222222
570,1778289838360,0.0895104455555555,0.2036613633333333,1.3219649777777778,1.0075039666666668,0.3092685311111111,-0.0241088872222222
571,1778289838370,0.0955574497777777,0.2192806644444444,1.2517981666666669,1.1496548444444443,0.1579437244444444,-0.0712788888888888
572,1778289838380,0.0829617328888889,0.2305611711111111,1.2361381333333332,1.2136891666666667,0.0820736344444444,-0.0965440533333333
573,1778289838390,0.07271178,0.2373947,1.234674,1.2416229,0.05177307,-0.107666016
574,1778289838400,0.0323201495555555,0.2387100866666666,1.1856316999999998,1.3603464555555556,0.0496470126666666,-0.1129998106666666
575,1778289838410,0.0191684534444444,0.2378425022222222,1.1438708,1.4005279333333334,0.0495300291111111,-0.1089155422222222
576,1778289838420,0.0181238943333333,0.2422357299999999,1.0793718333333335,1.3870340666666667,0.01768493668,-0.097366334
577,1778289838430,0.0082394695277777,0.24900168,1.0927276444444445,1.3889261777777775,0.0036502414533333,-0.0835198293333333
578,1778289838440,-0.0008449452666666,0.2535304022222222,1.1175945222222223,1.4074452777777775,0.0069597032444444,-0.0715060755555555
579,1778289838450,0.0024106085,0.246194089,1.1589179,1.5164581,-0.0189697255999999,-0.0421508779999999
580,1778289838460,0.0079276915555555,0.2482564522222222,1.1640459666666667,1.565343188888889,-0.0454169364444444,-0.0300801586666666
581,1778289838470,0.0400074401111111,0.2673322766666666,1.144874522222222,1.7173835,-0.0458204475555555,-0.0164201525555555
582,1778289838480,0.0508140636666666,0.2748985866666666,1.1064623111111112,1.8060336666666668,-0.0541076677777777,-0.0273081466666666
583,1778289838490,0.052820917,0.27815324,1.0799412,1.8557434,-0.06594849,-0.03630066
584,1778289838500,0.0426648083333333,0.2954264866666667,0.948394477777778,1.972986866666667,-0.0506269677777777,-0.0715128611111111
585,1778289838510,0.0413361238888888,0.3026668488888889,0.8957866333333333,2.0045318777777776,-0.0412173804111111,-0.0826382139999999
586,1778289838520,0.0460731411,0.325170221,0.82885548,1.96622012,-0.01214904788,-0.1065002464
587,1778289838530,0.0390726257777777,0.3342858488888889,0.8284541888888888,1.950620888888889,-0.0210249155555555,-0.1181471088888889
588,1778289838540,0.0137574514444444,0.3458653466666667,0.8292409222222221,1.964465677777778,-0.0154588482222222,-0.1121131044444444
589,1778289838550,-0.0177132596666666,0.3651184933333333,0.8166044333333332,1.9798516222222224,-0.0382453071111111,-0.0831214072222222
590,1778289838560,-0.0210213177777777,0.3748129866666667,0.8189496666666667,1.9845886444444445,-0.0781351724444444,-0.0609859892222222
591,1778289838570,0.0033991373333333,0.4084798,0.77238816,2.0390964222222223,-0.1602240688888888,-0.0376654728888888
592,1778289838580,0.0106967058,0.415533064,0.7318423119999999,2.05580446,-0.187388613,-0.0377380372
593,1778289838590,0.0159006632222222,0.42034325,0.6996321333333333,1.9485456333333333,-0.21124098,-0.0213826498888888
594,1778289838600,0.0401838952222222,0.4321396388888889,0.72719714,1.9129282333333333,-0.23727926,-0.016418457
595,1778289838610,0.051844105,0.43593627,0.74655914,1.9308624,-0.2422485399999999,-0.020324707
596,1778289838620,0.0637759986666666,0.47931002,0.6544274777777778,1.9067721888888889,-0.2583414711111111,-0.0542297343333333
597,1778289838630,0.0679112,0.4952827533333333,0.6163135166666667,1.8612620333333336,-0.2608846,-0.07535807
598,1778289838640,0.0556274353333333,0.5222922999999999,0.5478153833333334,1.6940155,-0.2147318533333333,-0.1108703606666666
599,1778289838650,0.0326319282222222,0.5413684666666667,0.5449408133333333,1.5123172666666669,-0.1087968588888888,-0.1182098388888889
600,1778289838660,0.023981133,0.5450291,0.5615229333333334,1.4449107,-0.0313262913333333,-0.112823486
601,1778289838670,0.0121586393333333,0.553055988888889,0.6035148888888888,1.344487477777778,0.1544528513333333,-0.0757802327777777
602,1778289838680,0.0167960743333333,0.5602830555555556,0.6004507111111111,1.3297441222222224,0.1815609411111111,-0.0558912488888888
603,1778289838690,0.0261106917777777,0.596945988888889,0.5724107555555555,1.3195648333333334,0.0586903904,-0.0290222166666666
604,1778289838700,0.0272440136,0.6068490360000001,0.5651270399999999,1.3167267,-0.0041656494,-0.020324707
605,1778289838710,0.0269781037777777,0.6081042911111112,0.5625401488888889,1.299801311111111,-0.0105573865777777,-0.0191413031111111
606,1778289838720,0.0353575636666666,0.6211488555555555,0.6343473866666667,1.1597798666666668,-0.0900929746666666,-0.0032755532966666
607,1778289838730,0.0404961933333333,0.6292298333333333,0.6666307166666666,1.1849873666666666,-0.1116943344444444,-0.0009663899755555
608,1778289838740,0.0653893233333333,0.6485908,0.6352285833333333,1.2378947,-0.0806884753333333,-0.0219217936
609,1778289838750,0.0802362677777777,0.66109215,0.5812786,1.2294362333333335,-0.0068257639999999,-0.0467190227777777
610,1778289838760,0.0867814425,0.67212271,0.542442297,1.19007259,0.0704666134,-0.068898013
611,1778289838770,0.0633829902222222,0.6887387666666667,0.5307312377777778,1.0583444999999998,0.1805453844444444,-0.1166653088888888
612,1778289838780,0.0476143663333333,0.6868674,0.5375241466666666,1.0365651333333332,0.1932678233333333,-0.1208089186666666
613,1778289838790,0.0018392125555555,0.6919655555555555,0.5488053288888888,1.019516,0.1477610255555555,-0.0984378371111111
614,1778289838800,-0.0166552203333333,0.7033548000000001,0.5608996933333333,1.024724311111111,0.0900014237777777,-0.0728708877777777
615,1778289838810,0.0116156207777777,0.7192175999999999,0.5621872544444444,1.0395219444444443,-0.0028601744444444,-0.0493197964444444
616,1778289838820,0.0454580209999999,0.7410482666666667,0.5745802166666666,1.0598195333333331,-0.0798034666666666,-0.0320332846666666
617,1778289838830,0.0518806596,0.746719071,0.578147851,1.0718200800000002,-0.020993042,-0.0359741216
618,1778289838840,0.0366048482222222,0.74507477,0.5065152077777778,1.0649685777777778,0.1826850022222222,-0.0394304077777777
619,1778289838850,0.0407538755555555,0.7538608722222223,0.5040201166666667,1.069763211111111,0.2351226788888888,-0.0289018427777777
620,1778289838860,0.0484283766666666,0.7663484,0.49835264,1.0971069666666666,0.25239563,-0.026891073
621,1778289838870,0.0451605882222222,0.7720293777777778,0.4516017244444444,1.0861630222222225,0.2641109777777777,-0.0352952747777777
622,1778289838880,0.0456892625555555,0.7760427377777778,0.4390191444444444,1.0729065222222225,0.2674255244444444,-0.0379587811111111
623,1778289838890,0.0693361465555555,0.8042456422222222,0.4644023888888888,0.9938964866666664,0.2521616622222222,-0.0651804606666666
624,1778289838900,0.0706375256666666,0.8057101711111111,0.4872354377777778,0.9937744333333332,0.2519276888888889,-0.0803307433333333
625,1778289838910,0.0434250202,0.798933976,0.515974138,1.04300693,0.29944305,-0.118115232
626,1778289838920,0.0124166686666666,0.8046521377777778,0.4669368888888889,1.0838521,0.3563707166666666,-0.1252560075555555
627,1778289838930,0.0089591158555555,0.8079876777777778,0.4507341244444444,1.0874023,0.3661363422222222,-0.1224144824444444
628,1778289838940,-0.0011567229666666,0.83960614,0.3397156866666666,1.020751966666667,0.3365580266666666,-0.10109965
629,1778289838950,-0.0050890280222222,0.8499924266666666,0.3072562533333333,0.9760742222222222,0.32270474,-0.0918663866666666
630,1778289838960,-0.0118416771111111,0.8529617777777777,0.2868638455555555,0.8739929111111111,0.2309739844444444,-0.0599076999999999
631,1778289838970,-0.0072312036833333,0.8554157555555556,0.3119204755555556,0.7921413844444445,0.0838572188888888,-0.0258246528888888
632,1778289838980,-0.00050551543,0.8574226,0.33751944,0.7734375,0.020889282,-0.014465332
633,1778289838990,0.0132431211744444,0.8718088,0.3818023977777778,0.7488776277777778,0.0021718343333333,-0.0232764348888888
634,1778289839000,0.0146398993333333,0.8765544088888889,0.4089875511111111,0.7424841888888889,0.013888889,-0.0297851562222222
635,1778289839010,0.0087411824444444,0.87683884,0.4479141444444445,0.8103688333333333,0.0922546366666666,-0.052103679
636,1778289839020,0.0023858774,0.8725785260000001,0.4494192199999999,0.841723612,0.12090759,-0.059310914
637,1778289839030,-0.0132382819999999,0.87654038,0.3668061333333333,0.8656429600000001,0.0898912211111111,-0.0351121694444444
638,1778289839040,-0.0127367418888888,0.8825607822222222,0.32870635,0.869851,0.0531989206666666,-0.0141618515555555
639,1778289839050,-0.0066082533124999,0.88605440625,0.3107648325,0.8572006275,0.03672790625,-0.0117282867499999
640,1778289839060,0.012063413,0.90114995,0.2592174166666667,0.7185821666666667,-0.0448201493333333,-0.0123291013333333
641,1778289839070,0.015236346,0.90815166,0.2865981342857143,0.6653965428571429,-0.0444880902857142,-0.0098201207142857
642,1778289839080,0.008280342475,0.90940666,0.28898217,0.630559925,-0.0449714675,-0.0062026978125
643,1778289839090,0.0010503054875,0.90574556,0.29412325,0.60433198,-0.057426455,-0.00141143795
644,1778289839100,-0.003663236875,0.9019017125,0.3153560575,0.5880889874999999,-0.078670505,0.003379821875
645,1778289839110,-0.0086299815714285,0.8913463428571429,0.3739529685714285,0.6428680571428572,-0.0860355942857142,0.0024370466428571
646,1778289839120,-0.0164516316666666,0.8859229333333333,0.3687314188888889,0.6840769555555556,-0.0790829137777777,0.0031806097888888
647,1778289839130,-0.0173953291999999,0.90088912,0.29761606,0.687103268,-0.0807540868,0.0168167114199999
648,1778289839140,0.0046185966666666,0.9240090666666668,0.2667830266666666,0.6508212622222221,-0.0622745072222222,0.0256144203333333
649,1778289839150,0.017309885,0.9309649533333332,0.2581597133333334,0.622412791111111,-0.0404917396666666,0.0250176321111111
650,1778289839160,0.0204558318888888,0.926016621111111,0.22734074,0.5653584666666666,-0.0048675536666666,0.00365193696
651,1778289839170,0.0139472132222222,0.92173195,0.211883891111111,0.5378417833333333,0.004892985,-0.0007883707733333
652,1778289839180,0.0055409676666666,0.9263420722222224,0.1975790966666666,0.48428345,-0.004518297,0.0003390841888888
653,1778289839190,0.0029921329111111,0.9392500811111112,0.1861898744444444,0.3966963033333333,-0.0214453806666666,-0.0046963160444444
654,1778289839200,0.0052293628,0.95077497,0.18693648,0.34840393,-0.02760315,-0.009674072
655,1778289839210,-0.0090894264888888,0.9515203422222224,0.2243848988888889,0.27383423,-0.0231628416666666,-0.0281321206666666
656,1778289839220,-0.0125755127,0.948968925,0.227815266,0.26057129,-0.0273376465,-0.030441284
657,1778289839230,-0.0058753854799999,0.9451204166666668,0.22411443,0.2321167,0.0199890126666666,-0.0325673413333333
658,1778289839240,-0.0011162817733333,0.9429236333333332,0.1991803366666666,0.2094438377777777,0.0365024144444444,-0.0330454505555555
659,1778289839250,-0.0014823268,0.9417441,0.18901144,0.1971283,0.03366089,-0.032577515
660,1778289839260,-0.0116788749333333,0.9401306111111112,0.1855806711111111,0.1565907833333333,0.0440199122222222,-0.0287289088888888
661,1778289839270,-0.0220243993333333,0.93889664,0.1816889766666666,0.11546326,0.044672649,-0.0199686683333333
662,1778289839280,-0.0152717506666666,0.94475438,0.1877085033333333,0.0753428133333333,-0.0231577556666666,-0.0007934569999999
663,1778289839290,-0.0097317164,0.94808963,0.193207684,0.060568236,-0.0513549806,0.00140991212
664,1778289839300,-0.0023366046922222,0.960875572222222,0.2164537566666666,0.05545044,-0.054229736,-0.0011444092
665,1778289839310,-0.0037475543977777,0.9611875311111112,0.2292798422222222,-0.0245649551111111,-0.0528733984444444,-0.0203196211333333
666,1778289839320,-0.0048052481555555,0.9588011644444444,0.22833068,-0.0428517662222222,-0.0432840968888888,-0.0239291724444444
667,1778289839330,-0.0096455798444444,0.9453242277777778,0.21248135,-0.1058230911111111,0.0267367895555555,-0.0222676594444444
668,1778289839340,-0.013035039,0.9422325333333332,0.2111794533333333,-0.1226298,0.0407613126666666,-0.020670573
669,1778289839350,-0.0270681472222222,0.9392502444444444,0.2225543277777778,-0.1777258966666666,0.0130038795444444,0.0178544786666666
670,1778289839360,-0.0221872016666666,0.9412567666666668,0.2412381833333333,-0.2154913966666666,0.0101674397666666,0.0364362924444444
671,1778289839370,-0.0178618908888888,0.9430463722222222,0.2548514966666666,-0.22661675,0.0144297282777777,0.0410546193333333
672,1778289839380,-0.016248044,0.939474122,0.29712766,-0.230474852,0.0128875735999999,0.0561737073999999
673,1778289839390,-0.0089261064,0.9305180533333332,0.3062801233333333,-0.21442159,-0.0164082843333333,0.0629577666666666
674,1778289839400,-0.0032448041999999,0.9275492533333334,0.3073785977777777,-0.2063700366666666,-0.0305531819999999,0.0652075906666666
675,1778289839410,0.0225442596666666,0.9365648888888888,0.2969112388888889,-0.1977335588888888,-0.0410342755555555,0.0559082032222222
676,1778289839420,0.030245377,0.93857104,0.29322383,-0.19915771,-0.04411316,0.049987793
677,1778289839430,0.0269914123333333,0.93710688,0.28826097,-0.2090962699999999,-0.0220998133333333,0.0201619466
678,1778289839440,0.02536443,0.9363748,0.28577954,-0.21406555,-0.01109314,0.0052490234
679,1778289839450,0.019004615,0.9356162566666666,0.2915683377777778,-0.2500423933333333,0.0403442394888888,-0.0208502878888888
680,1778289839460,0.0100696946111111,0.9357382355555556,0.2970866633333333,-0.2714691222222222,0.0717790388888888,-0.0258195664444444
681,1778289839470,0.00403370188,0.93589939,0.299738917,-0.285812381,0.092153929,-0.0283554072
682,1778289839480,-0.0057136206333333,0.9306803466666668,0.28976508,-0.3182830833333333,0.1266937266666666,-0.0448201499999999
683,1778289839490,-0.0110827989999999,0.9280231255555556,0.2830943388888889,-0.3242001033333333,0.1250949448888889,-0.0475446917777777
684,1778289839500,-0.0092390936666666,0.9299760677777776,0.2776703522222222,-0.33284336,0.1010674346666666,-0.046951294
685,1778289839510,-0.0122220663333333,0.92946037,0.25685782,-0.3360341333333333,0.0913696266666666,-0.0490773513333333
686,1778289839520,-0.013930449,0.92905337,0.24660753,-0.3365631,0.08906555,-0.05014038
687,1778289839530,-0.023691995,0.9189383755555556,0.1958982,-0.3764648422222222,-0.0147518583333333,-0.020967272
688,1778289839540,-0.023203935,0.91807044,0.19193876,-0.38131714,-0.030258179,-0.016586304
689,1778289839550,-0.0075034042666666,0.9128245,0.1465849566666666,-0.4242180722222222,-0.1190321163333333,-0.0062323675555555
690,1778289839560,-0.00276431393,0.91311704,0.130973291,-0.4610977189999999,-0.168321227,-0.0001876831299999
691,1778289839570,0.0191007058333333,0.9090821333333334,0.1230745966666666,-0.5629425233333333,-0.18633016,-0.0118001301
692,1778289839580,0.0276828888888888,0.9054075,0.1222612795555555,-0.6453213444444444,-0.1430630133333333,-0.0364769828888888
693,1778289839590,0.027682025,0.902695,0.122871354,-0.6976929,-0.08564758,-0.058670044
694,1778289839600,0.0008772639999999,0.88020085,0.1163494275555555,-0.833043411111111,-0.0080651174444444,-0.0548231351111111
695,1778289839610,-0.0185932886666666,0.8612187277777777,0.12491848,-0.9383850055555556,0.0259619813333333,-0.0390218103333333
696,1778289839620,-0.00570501378,0.836664925,0.154292797,-1.0061981,0.0184295656,0.0033355714
697,1778289839630,-0.0008725973999999,0.8274028,0.1617976,-1.039176077777778,0.0104081895555555,0.0271521676666666
698,1778289839640,0.0004292992333333,0.8180069333333333,0.1481714966666666,-1.0549214666666669,-0.0499623623333333,0.0496368406666666
699,1778289839650,-0.0020915375777777,0.7901031211111111,0.1192098666666666,-1.0881144222222223,-0.2997724733333333,0.1132558183333333
700,1778289839660,-0.0009120016333333,0.78428668,0.1188438216666666,-1.1062215333333334,-0.3538631844444444,0.1221330416666666
701,1778289839670,0.0102321507666666,0.7812774333333333,0.1369044616666666,-1.2161204333333333,-0.32568868,0.10805257
702,1778289839680,0.0156690771111111,0.7826462222222221,0.1526597755555555,-1.339577577777778,-0.261306761111111,0.0853254522222222
703,1778289839690,0.01767593,0.78237456,0.15813766,-1.4018402,-0.22840881,0.07395935
704,1778289839700,0.0526861133333333,0.7630807866666667,0.2372519533333333,-1.611819811111111,-0.1229977066666666,0.025539822
705,1778289839710,0.057255454,0.75837578,0.2600309066666667,-1.7226664333333332,-0.0545857741666666,-0.0080769856666666
706,1778289839720,0.03667294,0.7258351133333334,0.30070752,-1.8959452666666663,0.0234832765555555,-0.0757734482222222
707,1778289839730,0.0234393241111111,0.7070294222222223,0.3181712177777778,-1.9351807,0.0302937826666666,-0.0886739066666666
708,1778289839740,0.014137322,0.6906103,0.33715388,-1.9525756999999997,0.029937744,-0.09222412
709,1778289839750,-0.0013195247333333,0.6638853566666667,0.3631047233333333,-1.9827575555555557,-0.0549367271111111,-0.0771348736666666
710,1778289839760,-0.0112076653,0.641139283,0.400033797,-2.025122,-0.15069275,-0.0536697387
711,1778289839770,-0.0021734568666666,0.6336223666666666,0.4874921333333333,-2.0960388,-0.0931142133333333,-0.0171254473333333
712,1778289839780,0.0059754513777777,0.6181791666666666,0.5590820999999999,-2.1812591666666665,0.0057847775555555,0.0191056995555555
713,1778289839790,0.007060106,0.6144641,0.5724239,-2.1997223,0.0278015139999999,0.026565552
714,1778289839800,0.009744263,0.6107213888888889,0.6177234366666666,-2.2139214666666667,0.0781046562222222,0.0389929881111111
715,1778289839810,0.0089712131,0.5948573600000001,0.6631724633333334,-2.1872864,0.12633769,0.0579884846666666
716,1778289839820,-0.0029060655666666,0.5555640266666666,0.6919718166666667,-2.0488078,-0.0078887899999999,0.10024516
717,1778289839830,0.013608994,0.5493412799999999,0.7013277333333333,-1.9351755666666668,-0.2388763433333333,0.1179962166666666
718,1778289839840,0.0319810653333333,0.5444466722222222,0.6816000277777777,-1.8703138555555556,-0.4036983999999999,0.1118350566666666
719,1778289839850,0.052332511,0.5319717500000001,0.65137685,-1.86586916,-0.546173104,0.093347168
720,1778289839860,0.06197308,0.5258698,0.6500337,-1.9035797,-0.59698486,0.08248901
721,1778289839870,0.06696256,0.5132882555555556,0.7138826555555556,-1.9380798222222224,-0.5694088466666667,0.0453813332222222
722,1778289839880,0.06636562,0.50488234,0.74167824,-1.9477844,-0.5479889,0.024429321
723,1778289839890,0.0543664966666666,0.4836900999999999,0.7465995766666667,-1.974890866666667,-0.4866027799999999,0.0033552382222222
724,1778289839900,0.03344179,0.4638562839999999,0.767181702,-1.99764406,-0.4034240679999999,-0.00572814932
725,1778289839910,0.026049987175,0.45713856875,0.7786065225,-1.9982509375,-0.3327999074,-0.0012168885125
726,1778289839920,0.00469242706,0.407918592,0.8470133040000001,-1.97281798,0.14114380032,0.0281555176
727,1778289839930,0.0180969334444444,0.3973619122222222,0.8959629111111111,-1.9511006333333336,0.3249596533333333,0.0376790365555555
728,1778289839940,0.0321029086666666,0.3977951911111111,0.9383742,-1.9305080555555552,0.5038011333333333,0.0332421196666666
729,1778289839950,0.0366449433333333,0.3879512044444444,0.9632951333333334,-1.912280611111111,0.7120564622222223,0.0236002604444444
730,1778289839960,0.03268585,0.37894836,0.9614514,-1.9094390999999995,0.7809448,0.019104004
731,1778289839970,0.0266659811111111,0.3613222044444444,0.9427945377777776,-1.9605729666666667,0.9116143111111112,0.0112847222222222
732,1778289839980,0.0189107697777777,0.3542577788888889,0.9393508133333334,-1.9722290111111112,0.9140998,0.0086754691111111
733,1778289839990,-0.0136722471111111,0.3092421977777778,0.9183893,-1.8827446666666665,0.5988396333333333,0.0281626384444444
734,1778289840000,-0.0199827906,0.300544327,0.91874162,-1.84179076,0.4491088719999999,0.0415863036
735,1778289840010,-0.0155976999444444,0.2837927211111111,0.9558522211111112,-1.6896311222222224,0.0927819146666666,0.0794084337777777
736,1778289840020,-0.0064584996666666,0.2688650755555555,0.9575061755555556,-1.6486171777777778,-0.0586073128888889,0.0831943071111111
737,1778289840030,-0.0023770458888888,0.2579506177777777,0.9570041333333332,-1.645539988888889,-0.1279127322222222,0.0807071233333333
738,1778289840040,-0.0159639176666666,0.2383715133333333,1.0417464666666667,-1.6766696333333333,-0.1468488911111111,0.0791083422222222
739,1778289840050,-0.0251160796666666,0.2257621433333333,1.0730677000000002,-1.6942494666666663,-0.1273752866666666,0.07644653
740,1778289840060,-0.0235492403333333,0.213742025,1.0945041666666666,-1.687413533333333,-0.1184921266666666,0.0906524666666666
741,1778289840070,-0.01664506725,0.2103352425,1.11957045,-1.644588475,-0.1915168775,0.0987243675
742,1778289840080,-0.014784382,0.20932849,1.1275327,-1.6182251125,-0.2261409775,0.10131836125
743,1778289840090,-0.053222739,0.17149986,1.1965596333333333,-1.4164496666666666,-0.3630981422222222,0.1301218655555555
744,1778289840100,-0.0661169255555555,0.1581578844444444,1.197142588888889,-1.322703022222222,-0.4197930177777778,0.1517266166666666
745,1778289840110,-0.0287352243333333,0.1606387977777778,1.1392336666666667,-1.1986067222222223,-0.6178097111111112,0.21180047
746,1778289840120,0.0140564400888888,0.1732616455555555,1.1252407888888891,-1.1188303666666668,-0.7745310466666667,0.2516937233333333
747,1778289840130,0.034003612,0.1793574939999999,1.1299728000000002,-1.10675658,-0.7958740260000001,0.256985472
748,1778289840140,0.0744198217777777,0.1635001055555555,1.1088758666666667,-1.106935311111111,-0.8769667000000001,0.2413313133333333
749,1778289840150,0.0739727233333333,0.1548634766666666,1.1278992333333333,-1.1399587333333332,-0.8482055733333334,0.2387237533333333
750,1778289840160,0.0895514073333333,0.14981973,1.1494575333333334,-1.1736908333333331,-0.7496643066666667,0.2358805333333333
751,1778289840170,0.0922901737777777,0.1426201622222222,1.170351288888889,-1.1814982,-0.64687093,0.2209625233333333
752,1778289840180,0.08784302,0.13757642,1.1824456,-1.1807861,-0.61402893,0.21456909
753,1778289840190,0.0800192022222222,0.1180239366666666,1.1737540777777775,-1.1184743333333331,-0.5243072488888889,0.2114969855555555
754,1778289840200,0.0769819639999999,0.1071086033333333,1.174066066666667,-1.0689443333333335,-0.4597371433333334,0.2144012433333333
755,1778289840210,0.0756149947,0.1152684025,1.21505184,-0.97461703,-0.276118468,0.2368392979999999
756,1778289840220,0.0728325883333333,0.109386795,1.1734967333333333,-0.9189148,-0.0833384186666666,0.2467142766666666
757,1778289840230,0.0721005,0.10597003,1.1480333,-0.90808105,-0.022262573,0.2481384299999999
758,1778289840240,0.076629396,0.1070011055555555,1.1619717555555555,-0.9479675166666666,0.1010691372222222,0.2695617766666667
759,1778289840250,0.0844390455555555,0.1063773777777777,1.1832994777777777,-0.9383816044444444,0.1603054511111111,0.278734
760,1778289840260,0.1151356699999999,0.1055231066666666,1.2028654,-0.8196699244444444,0.280680341111111,0.26181369
761,1778289840270,0.12899336,0.1150278322222222,1.1909198333333333,-0.7305433555555556,0.3338826533333333,0.2383744966666666
762,1778289840280,0.131761118,0.129484737,1.14826488,-0.609918222,0.374545288,0.190232851
763,1778289840290,0.12527882,0.1205865977777777,1.0900016222222222,-0.52920532,0.40774536,0.1547444666666667
764,1778289840300,0.12335354,0.11719714,1.0772564,-0.50434875,0.42034912,0.14427185
765,1778289840310,0.1083303111111111,0.1061601364444444,0.9875520944444444,-0.5432298388888889,0.4587639633333333,0.0862172433333333
766,1778289840320,0.09504312,0.10108908,0.9427815699999998,-0.5794525,0.4741516,0.05958557
767,1778289840330,0.0647261955555555,0.0839509877777777,0.9664281166666666,-0.7842186888888888,0.5146891311111111,0.0376841222222222
768,1778289840340,0.0633693411111111,0.0732667255555555,1.023252388888889,-0.8547617666666666,0.5262247822222222,0.0286882183333333
769,1778289840350,0.0666229611111111,0.0657550264444444,1.0732024999999998,-0.86760458,0.5343322866666667,0.023539225
770,1778289840360,0.073675374,0.0567192963999999,1.12999805,-0.816796876,0.556491104,0.01089172356
771,1778289840370,0.07686012,0.055328272,1.134977,-0.7935791,0.562027,0.0036468505999999
772,1778289840380,0.0401700686666666,0.0367398223333333,1.1733340333333333,-0.6783396433333333,0.4205322233333333,-0.0054066975666666
773,1778289840390,0.0252693758333333,0.0284554186666666,1.1864319777777776,-0.6282738633333333,0.3541327522222222,-0.0012681748666666
774,1778289840400,0.0069387825,0.014571288,1.207583,-0.52885437,0.21209717,0.0148315429999999
775,1778289840410,0.012348575,0.0149373326666666,1.1953396666666667,-0.4400787366666667,0.0885213233333333,0.029749552
776,1778289840420,0.0277100222222222,0.0131608558888888,1.1443458333333334,-0.2403428811111111,-0.2151472311111111,0.0640190977777777
777,1778289840430,0.0585829293333333,0.0058382278888888,1.0673317444444443,-0.24993896,-0.38919915,0.0630204933333333
778,1778289840440,0.0721276311111111,0.0092017633333333,1.0604036666666667,-0.3012474822222222,-0.4804585744444444,0.0557963055555555
779,1778289840450,0.07673724,0.013107626,1.0676174,-0.3360443,-0.52401733,0.05105591
780,1778289840460,0.0610505354444444,0.0079136927333333,1.125987477777778,-0.3855709433333333,-0.4961378266666666,0.0401068802222222
781,1778289840470,0.056909059,0.00169635419,1.1700477,-0.410653675,-0.449917602,0.0375213625
782,1778289840480,0.0646577533333333,-0.0039782767,1.1903773,-0.3964029966666667,-0.3029734333333333,0.0411173509999999
783,1778289840490,0.0665284199999999,-0.0095918309333333,1.1951369,-0.3898366333333333,-0.2189941433333333,0.0436045333333333
784,1778289840500,0.06636562,-0.014717498,1.1995305,-0.38664246,-0.13519287,0.04786682
785,1778289840510,0.0833146417777777,-0.0091853448888888,1.2505655111111114,-0.3362748844444445,-0.0204349094444444,0.0527767616666666
786,1778289840520,0.0881418375555555,-0.0075989770888888,1.2696697,-0.2530670066666667,0.0266842312222222,0.049453735
787,1778289840530,0.0931395796,-0.0014154432399999,1.2652544,-0.13587341,0.1031188944,0.0507354736
788,1778289840540,0.1037751411111111,0.0081577225555555,1.2384021555555556,-0.0716705304444444,0.1593661822222222,0.048392402
789,1778289840550,0.1123706333333333,0.022014548,1.1996103666666666,0.004674276,0.2626902333333333,0.0304667159999999
790,1778289840560,0.11273616,0.024942908,1.1930615,0.01550293,0.2770691,0.02709961
791,1778289840570,0.1009954133333333,0.0251606693333333,1.1537688555555556,0.0626678468888888,0.2948947511111111,0.0030008951555555
792,1778289840580,0.0816059171111111,0.0229645723333333,1.1189771555555557,0.0818532322222222,0.2641177755555555,-0.0061696371
793,1778289840590,0.0579588551111111,0.0256210766666666,1.0917779666666667,0.1002468522222222,0.2015601299999999,-0.0106692846666666
794,1778289840600,0.038380804,0.021119656,1.0587499666666669,0.11883545,0.0696970606666666,0.0040028886666666
795,1778289840610,0.0263404639999999,0.017499388,1.0404044,0.126884459,-0.0094924926,0.022665405
796,1778289840620,0.020239282,0.016888881,1.0341803,0.12736511,-0.022277832,0.027618408
797,1778289840630,0.035831277,0.0181240673333333,1.0518885777777778,0.1284230519999999,-0.0434010833333333,0.045379639
798,1778289840640,0.0441701207777777,0.0179877081111111,1.064281211111111,0.1428629544444444,-0.0497945144444444,0.0492231581111111
799,1778289840650,0.049973784,0.0111541762222222,1.0415019,0.17493693,0.0045369473333333,0.0459136963333333
800,1778289840660,0.0493232686666666,0.009039134,1.0075782999999998,0.1744028733333333,0.0640207919999999,0.0416514076666666
801,1778289840670,0.04867258,0.008957733,0.9945215,0.16836548,0.08000183,0.040405273
802,1778289840680,0.0464076983333333,0.0028963872222222,1.0032939277777777,0.1444007022222222,0.0693461094444444,0.0377434624444444
803,1778289840690,0.0443327515555555,-0.0035176961555555,1.0311441555555556,0.1405504022222222,0.0413581006666666,0.0323028553333333
804,1778289840700,0.036334583,-0.00935965662,1.0474096,0.164105228,0.0319519039999999,0.0300750732
805,1778289840710,0.0353024317777777,-0.0138481840555555,1.052430688888889,0.1838175433333333,0.0231221512222222,0.0326504176666666
806,1778289840720,0.0368208786666666,-0.0141599617777777,1.0537726777777778,0.18807983,0.020874023,0.033477783
807,1778289840730,0.0523724357777777,-0.0113814419999999,1.0566746444444444,0.20855374,0.081960042,0.0343644891111111
808,1778289840740,0.0559115623333333,-0.0097541145666666,1.0523628,0.2097371433333333,0.101308186,0.0317026776666666
809,1778289840750,0.0576617666666666,-0.0019171564655555,1.0458822666666667,0.2070787188888889,0.11810981,0.0201059976666666
810,1778289840760,0.0501905079999999,-0.0006971792088888,1.049827888888889,0.2099202433333333,0.10095215,0.0121714276666666
811,1778289840770,0.044278484,-0.0008057138,1.0534614,0.21151733,0.09225464,0.009506226
812,1778289840780,0.0416485946666666,0.0025709562888888,1.0806868333333333,0.2350107922222222,0.0360361734444444,0.0199330647777777
813,1778289840790,0.0412828962222222,0.0063408050222222,1.1119123222222222,0.2541266666666666,0.0120052758166666,0.0257941351111111
814,1778289840800,0.0496887953333333,0.0131470302666666,1.1211865666666665,0.3155619333333333,0.00880432145,0.024251302
815,1778289840810,0.0508273716666666,0.016604756,1.1186646999999998,0.3334927066666667,0.0146670872222222,0.0236019556666666
816,1778289840820,0.0446685876,0.0228937829999999,1.13526914,0.35202026,0.0266326904,0.0229400634
817,1778289840830,0.0362244566666666,0.0289294809999999,1.1575105,0.3949178066666666,0.035435994,0.0283355709999999
818,1778289840840,0.0353027758888888,0.0338646938888888,1.1599513222222222,0.4206034366666666,0.03815545,0.031706068
819,1778289840850,0.0484957802222222,0.0467728788888888,1.1599118555555554,0.4530995688888889,0.0459052195555555,0.0285051128888888
820,1778289840860,0.0522651108888888,0.0505149028888888,1.1632473888888888,0.4617394333333333,0.0481533475555555,0.0264943435555555
821,1778289840870,0.0543796332222222,0.0599513633333333,1.1750972888888889,0.4927469866666666,0.0384521486666666,0.020345052
822,1778289840880,0.0539456677777777,0.0668802944444444,1.179707211111111,0.5526428222222222,-0.0116136344444444,0.0093349882222222
823,1778289840890,0.05306512,0.06850745,1.1820801,0.5769043,-0.04890442,0.005783081
824,1778289840900,0.0539797145,0.0759027522,1.18636286,0.63863221,-0.0765991208,-0.00290679918
825,1778289840910,0.0563999676666666,0.0826629173333333,1.184764266666667,0.6834801666666667,-0.08808051,-0.0106167262222222
826,1778289840920,0.0564010023333333,0.0975504733333333,1.1718293333333334,0.74361166,-0.06328837,-0.0245819093333333
827,1778289840930,0.0534311653333333,0.1079231366666666,1.1553961666666668,0.7832031266666666,-0.012334188,-0.034525554
828,1778289840940,0.0512748186666666,0.1158548066666666,1.1409964666666663,0.79492188,0.01856486,-0.0391387943333333
829,1778289840950,0.0414310073333333,0.1286269733333333,1.110570133333333,0.8137410333333333,0.066151938,-0.0480092363333333
830,1778289840960,0.0363736066666666,0.1307833188888889,1.103709677777778,0.8232133488888889,0.0845574288888889,-0.0484263101111111
831,1778289840970,0.0385927568,0.14428717,1.08958202,0.851956188,0.12506714,-0.0383743284
832,1778289840980,0.0398449833333333,0.1434735766666666,1.0680638333333332,0.8387807333333333,0.1636250799999999,-0.0350545246666666
833,1778289840990,0.040007267,0.14148055,1.0589521,0.82724,0.1758728,-0.035232544
834,1778289841000,0.0286047411111111,0.1466872666666666,1.1200344222222225,0.7802514,0.2057630766666666,-0.027359009
835,1778289841010,0.0213915113333333,0.1479620277777777,1.1649544444444444,0.7558119022222223,0.2232818644444444,-0.0209062366666666
836,1778289841020,0.0134052315555555,0.1408576799999999,1.201508322222222,0.7849833166666667,0.16060384,-0.0009613037
837,1778289841030,0.0142192406666666,0.14107406,1.2629838999999998,0.8519083666666667,0.064025878,0.0077311195666666
838,1778289841040,0.017554605,0.14148055,1.284339,0.87942505,0.030471802,0.00843811
839,1778289841050,0.0223546693333333,0.1390395566666666,1.375169366666667,1.1191203,-0.0865478526666666,0.0103912356666666
840,1778289841060,0.02602043325,0.1386586075,1.3753878375,1.197685275,-0.0977783205,0.007904053
841,1778289841070,0.0354520971111111,0.1433524244444444,1.3416655444444443,1.3592783888888889,-0.1143035911111111,-0.002743191
842,1778289841080,0.0271132543333333,0.1520974022222222,1.297803211111111,1.5454016666666668,-0.1361999522222222,-0.0190107554444444
843,1778289841090,0.0153816681999999,0.154684292,1.27538266,1.6190490400000002,-0.132632446,-0.0207397457999999
844,1778289841100,0.012429846625,0.168632165,1.1933815625000002,1.6917018625,-0.0706100475,-0.019847870125
845,1778289841110,0.01505347175,0.1803161825,1.16087615,1.6861114499999998,-0.04464721725,-0.0225753785
846,1778289841120,0.0194385803333333,0.2069557677777777,1.150338577777778,1.6473168555555555,0.0053134493333333,-0.0310262037777777
847,1778289841130,0.0265147837142857,0.2144191985714285,1.1438327285714287,1.630528042857143,0.0703386565714285,-0.0377437042857142
848,1778289841140,0.044507716875,0.224871725,1.1307824125,1.611007725,0.155769345,-0.0552101125
849,1778289841150,0.0488187912,0.23778512,1.14854626,1.64334108,0.184179688,-0.067507932
850,1778289841160,0.04647631,0.24251986,1.1601143,1.6672058,0.19610596,-0.07304382
851,1778289841170,0.00083682244,0.23812732,1.1073977,1.8813170999999995,0.16149902,-0.070388794
852,1778289841180,-0.00114635342,0.2384018525,1.10370625,1.91327665,0.1492462125,-0.06373214725
853,1778289841190,-0.0021599766,0.2597263888888889,1.0650138666666669,2.0556742333333333,0.0972188299999999,-0.0338134763333333
854,1778289841200,0.01513808604,0.276260599,1.0111668100000002,2.1265503,0.0525146483999999,-0.0307617185999999
855,1778289841210,0.0200495187777777,0.2815421833333333,0.9500352555555556,2.1547394,0.0185699465066666,-0.036478678
856,1778289841220,0.0147480886666666,0.2975557033333333,0.8697675066666667,2.1018219333333334,-0.0180104574933333,-0.04570516
857,1778289841230,0.0104628729777777,0.3115214144444445,0.8575373111111111,2.07465961111111,-0.0514492466666666,-0.0447031666666666
858,1778289841240,-0.0123439091,0.3235075733333333,0.8493073333333334,2.088867222222222,-0.1434766955555555,-0.0343526205555555
859,1778289841250,-0.0206960603333333,0.3329580444444444,0.8221763000000001,2.1086290333333335,-0.2196417888888888,-0.0151214597777777
860,1778289841260,-0.019665327,0.338924,0.80476654,2.1119385,-0.24118042,-0.00541687
861,1778289841270,0.0166591958888888,0.3680070944444444,0.7738938211111112,2.0977969888888888,-0.2560407833333333,-0.0067732070888888
862,1778289841280,0.031939587,0.3786915277777778,0.7631414744444445,2.090815233333333,-0.2536773655555555,-0.0122155085555555
863,1778289841290,0.0548267323333333,0.3963173388888889,0.7215981222222223,2.079864466666667,-0.2608337388888889,-0.0471293128888888
864,1778289841300,0.0637176523,0.41248205,0.6765523,2.06437836,-0.27937469,-0.0809921258
865,1778289841310,0.058678675,0.4198282,0.6638242,2.056549,-0.2715454,-0.08956909
866,1778289841320,0.0512751636666666,0.4358681755555555,0.6192156111111111,1.9789055333333336,-0.2485826222222222,-0.1108703611111111
867,1778289841330,0.0431393902222222,0.4509994244444444,0.5944840555555556,1.8783009888888889,-0.2181633844444444,-0.1367272288888888
868,1778289841340,0.0168363417777777,0.5045567488888889,0.5590685888888889,1.7948557666666665,-0.1582743333333333,-0.1266632066666666
869,1778289841350,0.0104362575555555,0.5194037,0.5512999333333333,1.7146572777777778,-0.1094479033333333,-0.1226416688888888
870,1778289841360,0.0156424622666666,0.5427514333333333,0.5580252666666667,1.6153564333333332,-0.028844198,-0.1135304773333333
871,1778289841370,0.0198732366666666,0.5542631666666666,0.5636377733333333,1.5633968666666669,0.0408155635555555,-0.1068437371111111
872,1778289841380,0.0174815004,0.555280368,0.560476931,1.528714,0.0893737759999999,-0.0968048099999999
873,1778289841390,0.0281299884444444,0.5773938688888889,0.5594626566666666,1.4699486555555556,0.1469404377777777,-0.0608605275555555
874,1778289841400,0.0360754811111111,0.5865864688888889,0.5591646944444445,1.4563378111111112,0.1552242666666666,-0.0539974631111111
875,1778289841410,0.0457841426666666,0.5981522733333333,0.5632322866666667,1.4434967,0.15190125,-0.05441284
876,1778289841420,0.0391134128888888,0.6085923222222223,0.5965323711111111,1.4434967,0.1213633255555555,-0.044938828
877,1778289841430,0.0391806424444444,0.6153849044444444,0.606131808888889,1.4456261444444445,0.0793440095555555,-0.0338066944444444
878,1778289841440,0.0389091322,0.6462885519999999,0.5842122,1.45052184,0.0958740244,-0.0481231688
879,1778289841450,0.0342314303333333,0.6637630066666667,0.5725872133333333,1.4340820333333333,0.1416117366666666,-0.0554758706666666
880,1778289841460,0.0189373856666666,0.6894701333333333,0.5491572133333333,1.3520609666666663,0.1906127966666666,-0.048731486
881,1778289841470,0.0152359753333333,0.69915115,0.5424460333333333,1.3220587777777777,0.20002238,-0.0322163897777777
882,1778289841480,0.0179069974444444,0.7035851755555556,0.5284537055555556,1.3174404222222222,0.1860521088888888,-0.0208502873333333
883,1778289841490,0.0183812318888888,0.7350007555555556,0.4905839777777777,1.2503272222222224,0.0837266688888888,0.0110507543333333
884,1778289841500,0.0240492272222222,0.7441121111111111,0.5032479511111111,1.236238288888889,0.0615980333333333,0.0237189401111111
885,1778289841510,0.050421405,0.7484920666666667,0.4931875666666667,1.2551168,0.0365041093333333,0.01767985
886,1778289841520,0.0599223975999999,0.75760338,0.4691394599999999,1.25697022,0.034832764,-0.0016815187999999
887,1778289841530,0.0598433464444444,0.7657519955555556,0.4596697544444443,1.2512207,0.039520264,-0.01020813
888,1778289841540,0.0593293633333333,0.7909983866666667,0.4689435633333333,1.1799587888888887,0.0826076933333333,-0.0408579508888888
889,1778289841550,0.0610239193333333,0.7926658222222223,0.4787334633333333,1.1646288,0.1195933044444444,-0.0549418132222222
890,1778289841560,0.0406579558888888,0.7826460388888888,0.42098666,1.1633249666666667,0.16912333,-0.0824584953333333
891,1778289841570,0.0256075956666666,0.7912420433333334,0.3854350133333333,1.1462809333333333,0.1378835026666666,-0.0858357733333333
892,1778289841580,0.0146985214,0.8069755539999999,0.370613416,1.1196533599999998,0.0947051995999999,-0.0768829319999999
893,1778289841590,0.0020021866444444,0.8290445811111111,0.3603258644444444,1.077451911111111,0.0157843693111111,-0.0510881201111111
894,1778289841600,0.0020974136111111,0.8377218155555556,0.3647460533333333,1.0579240444444444,-0.0158216692222222,-0.0398440883333333
895,1778289841610,0.0157644762222222,0.8579654466666667,0.3746429166666666,1.0096401666666666,0.057920668,-0.0415106876666666
896,1778289841620,0.0195880735555555,0.8678901355555556,0.3555791922222222,0.9815877311111112,0.1272837333333333,-0.0465969505555555
897,1778289841630,0.02088997,0.8723510766666667,0.3163271733333333,0.9318135566666668,0.19841512,-0.0586649573333333
898,1778289841640,0.0249304648888888,0.8689206555555555,0.3127346444444445,0.904586788888889,0.2119717055555555,-0.0690850166666666
899,1778289841650,0.0274250326666666,0.8685134844444444,0.3142261333333333,0.8845791277777778,0.2122175422222222,-0.0800950811111111
900,1778289841660,0.0180288402222222,0.8757944922222222,0.2920837066666666,0.8557044111111112,0.1642201733333333,-0.0949452711111111
901,1778289841670,0.00630354422,0.8831460200000001,0.268206886,0.8267059250000001,0.13193512,-0.0954208399999999
902,1778289841680,-0.0024313130888888,0.8994954666666667,0.2973035666666666,0.7337273444444444,0.0761566155555555,-0.0638715977777777
903,1778289841690,-0.0034473559444444,0.8993458222222223,0.3304684666666667,0.700826,0.0993499733333333,-0.054407756
904,1778289841700,-0.0033115149,0.8981796000000001,0.337031,0.6956787,0.11727905,-0.053878784
905,1778289841710,-0.0336305141,0.9043219611111112,0.3160155622222222,0.6757320844444444,0.1199493411111111,-0.0283677842222222
906,1778289841720,-0.0379523197142857,0.9058676214285716,0.3145083442857143,0.6344996928571429,0.1283918114285714,0.0073024201428571
907,1778289841730,-0.03162349,0.8945196000000001,0.3382505,0.607254,0.14497375,0.061172485
908,1778289841740,-0.029590022,0.8956582,0.3383324066666666,0.6196814444444444,0.1547393777777778,0.0665045822222222
909,1778289841750,-0.028573288,0.8962275,0.33837336,0.6296234,0.16255188,0.07077026
910,1778289841760,-0.0247904766666666,0.8993596166666666,0.33886124,0.649809088888889,0.123140122,0.0783437066666666
911,1778289841770,-0.017224854,0.90562385,0.339837,0.7121887,0.001159668,0.09420776
912,1778289841780,-0.0060922815555555,0.9030480666666668,0.2907963077777777,0.7593044666666667,-0.0679033073333333,0.0847303622222222
913,1778289841790,0.0029105588888888,0.9061934933333332,0.2380796099999999,0.7611965555555555,-0.1187998477777777,0.0764499248888888
914,1778289841800,0.009012173,0.9096508599999998,0.20804681,0.747879,-0.13891602,0.070236206
915,1778289841810,0.0256079417777777,0.9250812933333332,0.1743936611111111,0.6570892222222222,-0.1427069766666666,0.0503489173333333
916,1778289841820,0.0420004677777777,0.937867301111111,0.1596006433333333,0.5915747733333333,-0.1451331188888888,0.0325944687777777
917,1778289841830,0.0594368611111111,0.9487544333333332,0.1953957866666666,0.4988386322222222,-0.0583750392222222,-0.0284288195555555
918,1778289841840,0.06404647,0.95260566,0.21378168,0.4602508499999999,0.0064849854,-0.061340332
919,1778289841850,0.027601142,0.9412567233333332,0.22102223,0.4201354966666666,0.1018422433333333,-0.1096293133333333
920,1778289841860,0.0016907546666666,0.9354399333333334,0.21504263,0.390187581111111,0.1429087344444444,-0.1163753933333333
921,1778289841870,-0.0033242693999999,0.93597268,0.212817791,0.3718414319999999,0.1413574259999999,-0.1096984872
922,1778289841880,0.0101241343333333,0.9464221555555556,0.2773860733333333,0.3451521122222222,0.107050578,-0.0999789757777777
923,1778289841890,0.0134187123333333,0.9482255888888887,0.3003952244444444,0.3524881977777778,0.1237945582222222,-0.1092139344444444
924,1778289841900,-0.0180920942222222,0.9447139411111112,0.2934932666666667,0.3688151,0.1183522533333333,-0.1222279846666666
925,1778289841910,-0.0448026653333333,0.9462600566666668,0.2881785333333333,0.38230896,0.07289632,-0.10944112
926,1778289841920,-0.0581850833333333,0.94711399,0.2806538733333333,0.3893534366666666,0.0437740745333333,-0.0968356657777777
927,1778289841930,-0.0693302733333333,0.94133711,0.2605597666666666,0.4087727866666666,-0.0535227448666666,-0.0510355633333333
928,1778289841940,-0.0709437766666666,0.9388831622222222,0.2577257666666666,0.41504754,-0.08642578,-0.0349409317777777
929,1778289841950,-0.056273978,0.945320204,0.2229100519999999,0.451510622,-0.200384524,0.015686036
930,1778289841960,-0.0469721477777777,0.9497443711111112,0.2028129533333333,0.47054545,-0.2684699177777778,0.0417039671111111
931,1778289841970,-0.045412395,0.95211726,0.19901597,0.47143555,-0.27793884,0.044662476
932,1778289841980,-0.0050753749444444,0.9858234822222222,0.1815533122222222,0.4258762022222222,-0.2839152033333333,0.0533650722222222
933,1778289841990,0.0055826185,0.9917757755555556,0.1771191222222222,0.4036187133333333,-0.2512478344444444,0.0377468544444444
934,1778289842000,0.010802994,0.99116589,0.2011723266666666,0.3531951933333333,-0.1034139013333333,-0.0027364093333333
935,1778289842010,0.0051489984666666,0.9759527333333332,0.1997485833333333,0.3072153666666666,0.012705485,-0.024042765
936,1778289842020,0.0012166934555555,0.96703112,0.1972809744444444,0.286263351111111,0.0510609944444444,-0.02700297
937,1778289842030,-0.00829263068,0.961463568,0.19435528,0.256570432,0.1363525428,-0.027038574
938,1778289842040,-0.010147639,0.9617563,0.19108483,0.25411987,0.14710999,-0.027252197
939,1778289842050,-0.00960462,0.9568757166666668,0.1840340566666666,0.2553032744444444,0.1448008244444444,-0.0242902966666666
940,1778289842060,0.004009904,0.94662505,0.16716695,0.26797485,0.12953186,-0.018722534
941,1778289842070,0.0113847253333333,0.955303698888889,0.1540432522222222,0.2712843166666666,0.1484798866666666,-0.0225067135555555
942,1778289842080,-0.003015464,0.9802242944444444,0.0976246188888888,0.2019348166666666,0.1909637466666666,-0.0570780436666666
943,1778289842090,-0.0142287465555555,0.9886037488888888,0.0784252288888888,0.1693267833333333,0.1944546188888889,-0.0611029731111111
944,1778289842100,-0.0346742109999999,0.9866105566666667,0.06791742,0.0442708318666666,0.15776062,-0.0542297363333333
945,1778289842110,-0.0435012866666666,0.9780276866666668,0.07849332,-0.0320790595555555,0.1491207544444444,-0.0455322266666666
946,1778289842120,-0.0424435913333333,0.9554116866666666,0.1055018466666666,-0.0983700222222222,0.1287078855555555,-0.0277811688888888
947,1778289842130,-0.0258391478,0.94562491,0.12701969,-0.127041628,0.0859710683999999,-0.00903015144
948,1778289842140,-0.0147698639222222,0.9436833833333332,0.1401853833333333,-0.13258362,0.07041931,-0.0022125244
949,1778289842150,0.0040769603666666,0.9533782222222222,0.18598664,-0.1178402355555555,0.0349646672222222,-0.0130327012777777
950,1778289842160,-0.0009533069111111,0.9568489333333334,0.1956942611111111,-0.1042904322222222,0.0247836643333333,-0.0170016821111111
951,1778289842170,-0.0152714043555555,0.9590318777777777,0.1575683733333333,-0.0742255324444444,-0.0124511717777777,-0.0326911081111111
952,1778289842180,-0.0269053433333333,0.96602854,0.1325933266666666,-0.0853474937777777,-0.0299665664444444,-0.0359446208888888
953,1778289842190,-0.0321663322222222,0.9700012866666666,0.1242002183333333,-0.09954834,-0.036117554,-0.035232544
954,1778289842200,-0.0411961349999999,0.9691192055555556,0.1042139477777777,-0.1872575566666666,-0.0751173222222222,-0.0158776178333333
955,1778289842210,-0.0418200374444444,0.9630720255555556,0.0971636922222222,-0.2227664555555555,-0.0912102588888888,-0.0023210313333333
956,1778289842220,-0.0262550704,0.961683206,0.0841880679999999,-0.324426272,-0.0694610599999999,0.023568726
957,1778289842230,-0.0136995537777777,0.9604419744444443,0.0793339466666666,-0.3919643777777778,-0.0470699733333333,0.0331810846666666
958,1778289842240,-0.0061468939999999,0.9557108711111112,0.0836326477777777,-0.4204966111111111,-0.0344662120533333,0.0322350393333333
959,1778289842250,0.012103854,0.9338529133333334,0.1400371033333333,-0.5006256133333333,-0.01906840016,0.0109303789333333
960,1778289842260,0.0103277234222222,0.9265584522222224,0.1589648111111111,-0.4963073744444444,-0.0307888455555555,0.0028822156888888
961,1778289842270,-0.0013599661999999,0.9101792133333334,0.17550562,-0.4461788622222222,-0.051562839,-0.0083601211333333
962,1778289842280,-0.0060919362222222,0.9051892222222224,0.1758312199999999,-0.4187757744444444,-0.0626254615555555,-0.0106082495
963,1778289842290,-0.00782849,0.902695,0.1699745,-0.41168213,-0.06594849,-0.0096588135
964,1778289842300,-0.0071228414444444,0.90175964,0.0560403142222222,-0.4665374788888889,-0.1805792955555555,0.030702378
965,1778289842310,-0.0057945027333333,0.9020306444444446,0.0429155777777777,-0.4945865277777778,-0.2074517177777778,0.0399322504444444
966,1778289842320,-0.00907376868,0.904013088,0.0209280268,-0.6033645649999999,-0.202415466,0.0517440799
967,1778289842330,-0.0159364383333333,0.8988313222222223,0.0004890968888888,-0.7269931355555556,-0.1747266933333333,0.0609978584444444
968,1778289842340,-0.0088042636666666,0.8899632466666668,-0.0061553633333333,-0.8253479,-0.1532999666666666,0.0588684086666666
969,1778289842350,0.008036399,0.8753613666666666,-0.0025348358533333,-0.9272562566666668,-0.1165517166666666,0.040934245
970,1778289842360,0.014260201,0.8698707,-0.00025664628,-0.9597473,-0.10217285,0.032943726
971,1778289842370,0.0181918152222222,0.8435657888888889,0.0204209208333333,-1.0511915444444446,-0.0585513651111111,-0.01002672
972,1778289842380,0.0110739847777777,0.8289905222222222,0.0324755188888888,-1.085099933333333,-0.0517476402222222,-0.0291459826666666
973,1778289842390,-0.008722863,0.8111738733333334,0.0736118566666666,-1.144399,-0.1213378966666666,-0.037897746
974,1778289842400,-0.0281668006666666,0.80120822,0.1001729339999999,-1.180440266666667,-0.1557871533333333,-0.0244038903333333
975,1778289842410,-0.0363563233333333,0.7978730333333334,0.0988577308888888,-1.1954125333333332,-0.1673312733333333,-0.0138668487777777
976,1778289842420,-0.0461996146666666,0.7897922333333334,0.05461623,-1.3116471777777778,-0.3252868644444444,0.0570983897777777
977,1778289842430,-0.0372616172,0.792064892,0.0563896995999999,-1.37925106,-0.399063106,0.088235475
978,1778289842440,0.0043616045555555,0.7849107444444444,0.1079699751111111,-1.5311431555555557,-0.2797122533333333,0.0874532044444444
979,1778289842450,0.043953917,0.7746051533333334,0.12893236,-1.6892174444444443,-0.0941196027777777,0.0587531188888888
980,1778289842460,0.0539470488888888,0.7683409155555556,0.12582737,-1.7824893555555557,-0.0008477109999999,0.0340135373333333
981,1778289842470,0.0308965833333333,0.7203433933333333,0.12400993,-2.006195133333333,0.0945587166666666,-0.0112609863333333
982,1778289842480,0.0193039482222222,0.7003986133333334,0.1255964722222222,-2.073484722222222,0.1028408488888888,-0.0204298232222222
983,1778289842490,-0.0050349336666666,0.6563333822222223,0.2173889077777777,-2.1769900555555552,-0.1375562866666666,0.0225355362222222
984,1778289842500,-0.016919212,0.629534665,0.31653042,-2.2048309,-0.381054684,0.0736450204
985,1778289842510,-0.018444313,0.62019897,0.35265067,-2.1837463,-0.4941864,0.10272217
986,1778289842520,-0.0098341325555555,0.6256905088888889,0.3851920422222222,-2.1595967666666667,-0.6138458266666666,0.1542154966666666
987,1778289842530,0.0242256812222222,0.6281854244444445,0.4404575755555555,-2.139528111111111,-0.6757524288888889,0.1755201544444444
988,1778289842540,0.072833452,0.6262466633333333,0.4381662533333333,-2.1913740666666666,-0.5751461711111111,0.14972263
989,1778289842550,0.0812123935555555,0.62108075,0.4201196111111111,-2.3349456,-0.4090762722222222,0.11171807
990,1778289842560,0.081537652,0.6156436511111111,0.4193330777777778,-2.3915811111111114,-0.3422597233333333,0.0972154381111111
991,1778289842570,0.0526581144444444,0.5475373,0.4664486666666667,-2.6300794777777776,-0.0942942266666666,0.0550842295555555
992,1778289842580,0.0446450466666666,0.5282703533333333,0.4979866266666666,-2.6680738777777773,-0.0729895666666666,0.0534261077777777
993,1778289842590,0.0226791329999999,0.4898603140000001,0.6439575900000001,-2.66384888,-0.067811585,0.0695404045
994,1778289842600,0.0095814619999999,0.4716899599999999,0.7465996333333333,-2.5699005333333336,-0.14051819,0.0970408133333333
995,1778289842610,0.0388826912222222,0.4736024444444444,0.8702284577777778,-2.416147866666667,-0.1937815333333333,0.1227823899999999
996,1778289842620,0.0668949861111111,0.4770458222222222,0.9087084444444444,-2.2611474,-0.1682756222222222,0.1197628433333333
997,1778289842630,0.0903512471111111,0.4779939444444444,0.9157592111111112,-2.1272176444444444,-0.1127658474444444,0.1023033966666666
998,1778289842640,0.0716395701111111,0.4616563777777778,0.7790870555555556,-2.043243377777778,0.0170830618888888,0.0517137311111111
999,1778289842650,0.0517627046666666,0.4545247133333333,0.7158896833333332,-2.0658518,0.0347239176666666,0.038101196
1000,1778289842660,0.04281482,0.4533851,0.70751005,-2.0878754,0.019821167,0.0388031
