id,timestamp,acc_x,acc_y,acc_z,gyro_x,gyro_y,gyro_z
0,1778412961460,1.1609215,0.10381703,0.3274886,0.6959840866666668,-0.1265726433333333,-0.3927747933333333
1,1778412961470,1.1197401666666666,0.0818442066666666,0.3054243199999999,0.7137665533333334,-0.1334955744444444,-0.4229099177777777
2,1778412961480,1.0740261,0.03448372,0.2920902,0.720418,-0.13919681,-0.4471401999999999
3,1778412961490,1.0049434666666666,-0.0200858615666666,0.2539172444444444,0.7136307911111112,-0.1861641844444444,-0.4192448422222222
4,1778412961500,0.9485919,-0.057747275,0.2215678,0.6948302577777778,-0.2424300066666666,-0.3613500855555556
5,1778412961510,0.919044482,-0.0174674829,0.2024965759999999,0.5978209600000001,-0.214514285,-0.214896064
6,1778412961520,0.90500878,0.0311840682222222,0.2434457855555555,0.5007165566666667,-0.107432765,-0.1001789506666666
7,1778412961530,0.90197337,0.053783625,0.30721304,0.44248247,-0.046348035,-0.019547112
8,1778412961540,0.912370304,0.0631988087999999,0.346605584,0.421958012,-0.0408504096,0.0417055968
9,1778412961550,0.9510311,0.077931374,0.40557244,0.40827504,-0.037185326,0.082540736
10,1778412961560,0.9976192333333334,0.0957169637777777,0.5110122,0.3366022933333333,-0.270664734,0.3089614417777777
11,1778412961570,0.96394652,0.103442017,0.609706282,0.2486606549999999,-0.130583874,0.371960162
12,1778412961580,0.9097787,0.08378538,0.6349761,0.1995688922222222,-0.0096972002222222,0.3807020555555555
13,1778412961590,0.8904279933333333,0.075980044,0.7094214733333333,0.2022837588888889,0.0641474473333333,0.4088010422222222
14,1778412961600,0.90103124,0.075906866,0.686716902,0.266069802,0.159278428,0.466519318
15,1778412961610,0.920592271111111,0.076576284,0.6615358777777778,0.31501903,0.2707580466666666,0.53884365
16,1778412961620,0.905412568,0.0550276003,0.567359335,0.33729459,0.256571122,0.59992837
17,1778412961630,0.9100226,0.052807957,0.46706995,0.31237203,0.10208785,0.66834325
18,1778412961640,0.9178415133333334,0.0847170015555555,0.5760871222222222,0.2216951411111111,-0.1123874033333333,0.7541333388888889
19,1778412961650,0.904610706,0.1114516304,0.660419605,0.189774972,-0.312372009,0.90235882
20,1778412961660,0.9308741022222224,0.1062223173333333,0.6258224299999999,0.2299076466666666,-0.5674007533333333,1.1262751333333334
21,1778412961670,0.9824455566666668,0.077199626,0.6520705733333334,0.2870558066666666,-0.5774457933333333,1.1706632666666668
22,1778412961680,0.99106395,0.07573613,0.6422936,0.32031304,-0.54418856,1.1735139
23,1778412961690,0.9615399,0.0705325706666666,0.6840236266666666,0.3455613866666667,-0.4450955422222222,1.1140581222222223
24,1778412961700,0.9393773144444446,0.0529976731111111,0.6014646411111111,0.3661265755555555,-0.4024719699999999,1.0638328444444445
25,1778412961710,0.938438864,0.038459563,0.416457224,0.3368059,-0.46111333,0.9878164
26,1778412961720,0.8777713777777778,0.0163525805733333,0.4890563199999999,0.2538664266666666,-0.5311571433333334,0.8813932222222223
27,1778412961730,0.8758742999999999,-0.00015244792,0.5361288,0.23479441,-0.5270848,0.8222768
28,1778412961740,0.8773919800000001,-0.0574796381955555,0.52968538,0.2012656877777777,-0.5217908288888888,0.7723230355555555
29,1778412961750,0.86465406,-0.1419595,0.55103827,0.15599512,-0.51670045,0.68422526
30,1778412961760,0.872459452,-0.1583507,0.517841174,0.1452442,-0.4971533219999999,0.654904572
31,1778412961770,0.8149696577777779,-0.1432603922222222,0.4044104577777778,0.0446173,-0.1961413577777777,0.4929622266666666
32,1778412961780,0.7923938,-0.14000817,0.4829245199999999,0.022219568,-0.11476293,0.45332503
33,1778412961790,0.74288481,-0.225510107,0.6916867,0.0257013983,0.482775501,0.36603494
34,1778412961800,0.7936743888888889,-0.2868866555555555,0.7242631533333334,0.0123102695555555,0.7935754355555555,0.3385535988888889
35,1778412961810,0.893872315,-0.305124501,0.49257451,-0.1925314285,0.696518565,0.27984439
36,1778412961820,0.9951291666666666,-0.2613668633333333,0.17252024,-0.4013096977777777,0.0865875988888888,0.2461120488888889
37,1778412961830,1.0178947,-0.22784865,-0.02856874,-0.49768782,-0.46661094,0.23219831
38,1778412961840,1.00133278,-0.278281477,-0.212661796,-0.611488664,-1.153264332,0.217843403
39,1778412961850,0.996314888888889,-0.3324143866666667,-0.3061086322222222,-0.7320495577777778,-1.6775816666666667,0.1997555388888889
40,1778412961860,0.8744108,-0.35084364,-0.27727225,-0.8171609066666667,-1.5427202333333334,0.1918823933333333
41,1778412961870,0.8366952120000001,-0.3009291349999999,-0.525253224,-0.8566216499999999,-1.3261341300000002,0.221080888
42,1778412961880,0.85120827,-0.29202923,-0.72461545,-0.9698727,-1.2277266,0.26396236
43,1778412961890,0.970456021,-0.3068410729999999,-0.829886879,-1.07005168,-1.43248262,0.251867594
44,1778412961900,0.9879776888888888,-0.3584186166666667,-0.6943968944444445,-1.0740561555555557,-1.5668146555555555,0.0991523897777778
45,1778412961910,0.9091959944444444,-0.3613998222222222,-0.6953454333333333,-0.9694654466666668,-1.2527713333333332,-0.060677494
46,1778412961920,0.89348505,-0.34055036,-0.861806324,-0.8269344860000001,-0.87520668,-0.131943007
47,1778412961930,0.9141251888888888,-0.31165096,-1.0374723666666663,-0.69865656,-0.6327614,-0.14904673
48,1778412961940,1.0537572777777775,-0.2414775066666666,-1.131092422222222,-0.5726862755555555,-0.362699031111111,-0.2510582311111111
49,1778412961950,1.100247053,-0.1380537844,-1.25011256,-0.372341967,0.144915876,-0.68885247
50,1778412961960,0.9847220833333332,-0.0508938902222222,-1.1024423555555556,-0.2073656788888888,0.5151648222222223,-1.0847290111111112
51,1778412961970,0.953351728888889,0.0010671355555555,-0.995491661111111,-0.0707649595555555,0.8250679888888889,-1.3256064777777778
52,1778412961980,0.88197213,0.013019053,-1.0586898,0.0271063469999999,1.206576,-1.511847
53,1778412961990,0.9427683811111112,-0.0254825151111111,-1.2234589777777778,0.050522157,1.3497179333333331,-1.5578640666666663
54,1778412962000,0.982892665,-0.110707675,-1.25368595,0.0326039734,1.11946924,-1.45271696
55,1778412962010,0.956630967777778,-0.16665606,-1.2065845555555557,0.0651146228888888,0.8719674888888889,-1.3523479777777778
56,1778412962020,0.7990675922222222,-0.2431849222222222,-0.9673837333333332,0.3355842133333333,0.4470892666666666,-1.1040046
57,1778412962030,0.80193704,-0.2019935,-0.7861129,0.5615977,0.3086306,-0.9700254
58,1778412962040,0.8388599333333333,-0.1448865,-0.5042367,0.99774264,0.5425851,-0.6000556333333332
59,1778412962050,0.9024612,-0.1331785,-0.4066091,1.191992,0.6024481,-0.45019442
60,1778412962060,0.93168546,-0.1518381369999999,-0.470737808,1.191992,0.6024481,-0.45019442
61,1778412962070,0.9839090388888888,-0.0675344213333333,-0.4423733777777777,1.1691871,0.5525622333333333,-0.1685938413333333
62,1778412962080,0.9749654,0.007165052,-0.41904885,1.0001861,0.5322007,-0.123391144
63,1778412962090,0.9408679022222224,0.0739304637777777,-0.3319909155555555,0.5869818155555556,0.1338943266666666,0.0058709213333333
64,1778412962100,0.9630507688888889,0.1036002157777777,-0.2834514911111111,0.428433,-0.02741177,0.06177193
65,1778412962110,1.0486587,0.113085866,-0.31361586,0.30143787,-0.082937783,0.085411717
66,1778412962120,1.0939391222222223,0.087101966,-0.3234402822222222,0.2233919477777778,-0.14598401,0.0587007237777777
67,1778412962130,1.1789712,0.024727052,-0.32657394,0.0600921,-0.30779067,-0.028098974
68,1778412962140,1.17116592,-0.0369716704,-0.371674124,-0.0134539105999999,-0.406259246,-0.1365854468
69,1778412962150,1.1410761333333332,-0.0889990957777777,-0.377251,-0.0571905742222222,-0.46158844,-0.2289998466666666
70,1778412962160,1.0639746555555556,-0.1341914355555555,-0.3197036,-0.061466504,-0.4568374,-0.28221142
71,1778412962170,1.00328111,-0.154130951,-0.2684150429999999,-0.0259151956,-0.33931038,-0.3472055719999999
72,1778412962180,0.9463967,-0.15171617,-0.21065253,0.000839915,-0.3004605,-0.34207445
73,1778412962190,0.92667905,-0.133852323,-0.182065494,0.032726141,-0.268757526,-0.277019225
74,1778412962200,0.9009977,-0.12387918,-0.16257046,0.06620057,-0.2454842499999999,-0.20280129
75,1778412962210,0.9205381177777778,-0.1117375444444444,-0.1469326911111111,0.10712734,-0.19600561,-0.10995251
76,1778412962220,0.973700077,-0.0800625992,-0.158176917,0.1785964659999999,-0.12197092,-0.02288386565
77,1778412962230,1.0003327,-0.055552024,-0.16257046,0.22074492,-0.07627955,0.0092390645
78,1778412962240,1.007352177777778,-0.046960734,-0.14102788,0.2817617933333333,0.0252568386111111,0.0012725983888888
79,1778412962250,1.0020401,-0.051649354,-0.11692755,0.32031304,0.08681667,-0.011606098
80,1778412962260,0.9934217611111112,-0.0512157237777777,-0.13126443,0.3582534266666666,0.1403676166666666,-0.0092899688333333
81,1778412962270,0.9848507944444445,-0.0589736286666666,-0.1039389913333333,0.4137726555555556,0.1711814566666666,0.0150760492777777
82,1778412962280,0.9707883,-0.08460859,-0.078114316,0.45225605,0.18210883,0.035505496
83,1778412962290,0.9919243722222222,-0.0762815471111111,-0.0878506557777777,0.47987992,0.2257419966666666,0.0564100491111111
84,1778412962300,1.011254833333333,-0.054467948,-0.1227036422222222,0.4980017188888889,0.2653282999999999,0.0682197622222222
85,1778412962310,1.03463958,-0.034770322,-0.1601313,0.489395546,0.263427876,0.0582290144
86,1778412962320,1.0479269666666666,-0.0193032941111111,-0.1685328711111111,0.4811016022222222,0.2546045333333333,0.0359127277777777
87,1778412962330,1.0528053,-0.009665198,-0.18452296,0.4766899299999999,0.2481567,0.022677705
88,1778412962340,1.05797636,0.0093603021,-0.213058166,0.4427268159999999,0.2284263339999999,-0.0117053595
89,1778412962350,1.0485775333333334,0.0239682,-0.2317106777777778,0.40365973,0.2153066955555555,-0.0401123015555555
90,1778412962360,1.03745381,0.01157994462,-0.231287882,0.38628453,0.21150586,-0.043370154
91,1778412962370,1.0244804666666667,-0.0104884163999999,-0.2635113133333333,0.3227564066666666,0.1593038766666666,-0.0274881256666666
92,1778412962380,1.02009,-0.01603752,-0.2965417,0.28977066,0.11735903,-0.015271181
93,1778412962390,1.012406636,-0.0218427373,-0.298029593,0.238031903,0.01021642041,-0.00226013478
94,1778412962400,0.97501622,-0.0520829844444444,-0.2714690888888889,0.19570018,-0.08605311,0.011682454
95,1778412962410,0.9909385222222222,-0.0502400573333333,-0.2828518577777777,0.1614927466666666,-0.0722072353333333,0.0261391726666666
96,1778412962420,1.0150897,-0.01951638212,-0.331501039,0.0885575831,-0.0348030221,0.0447292921
97,1778412962430,1.0091138,0.0025306356,-0.35608786,0.029549737,-0.029244313,0.0605502349999999
98,1778412962440,0.97667277,0.008872469,-0.35023385,-0.07734854,-0.039628714,0.12163496
99,1778412962450,0.97667277,0.008872469,-0.35023385,-0.07734854,-0.039628714,0.12163496
100,1778412962460,0.97667277,0.008872469,-0.35023385,-0.07734854,-0.039628714,0.12163496
101,1778412962470,0.97667277,0.008872469,-0.35023385,-0.07734854,-0.039628714,0.12163496
102,1778412962480,1.00496719,-0.044484301,-0.26693631,-0.2121930733333333,-0.0485878086666666,0.3032602066666666
103,1778412962490,1.0191144,-0.071162686,-0.22528754,-0.27961534,-0.053067356,0.39407283
104,1778412962500,1.02204138,-0.0770258332,-0.240370733,-0.261473173,-0.0662616572,0.401952759
105,1778412962510,1.0210656666666666,-0.0878879233333333,-0.2972463433333333,-0.1977618011111111,-0.1478844211111111,0.4231898855555555
106,1778412962520,1.01596781,-0.099755823,-0.287510682,-0.196784444,-0.1829334779999999,0.4247373719999999
107,1778412962530,1.0081381,-0.12241568,-0.25285012,-0.21486552,-0.20761171,0.43011284
108,1778412962540,1.0404638555555554,-0.1229035111111111,-0.2340956422222222,-0.2017577577777777,-0.1674315351111111,0.4223075688888889
109,1778412962550,1.065733,-0.1207082599999999,-0.25187445,-0.18241426,-0.090329036,0.393462
110,1778412962560,1.0589032,-0.1250987533333333,-0.2759612166666667,-0.1775274866666666,-0.078112092,0.3682136333333333
111,1778412962570,1.0520735,-0.1274566155555555,-0.2821506044444444,-0.1677539311111111,-0.0329093955555555,0.3262687833333333
112,1778412962580,1.01894365,-0.136081115,-0.198813427,-0.13238587,0.154154943,0.206420555
113,1778412962590,0.98960042,-0.1422847266666666,-0.19209454,-0.0970992633333333,0.3049655,0.1546207033333333
114,1778412962600,0.97838026,-0.143423,-0.20772554,-0.07185091,0.3721587,0.13140851
115,1778412962610,0.97838026,-0.143423,-0.20772554,-0.07185091,0.3721587,0.13140851
116,1778412962620,0.97838026,-0.143423,-0.20772554,-0.07185091,0.3721587,0.13140851
117,1778412962630,0.97838026,-0.143423,-0.20772554,-0.07185091,0.3721587,0.13140851
118,1778412962640,1.0073352,-0.1515264566666666,-0.165666852,-0.0168746566666666,0.4709123333333333,0.05848862
119,1778412962650,1.0648114555555557,-0.1686277255555555,-0.1019470102222222,0.0970144211111111,0.6669942944444445,-0.0929845288888888
120,1778412962660,1.05665924,-0.1668877859999999,-0.185791328,0.139868752,0.53818696,-0.203778646
121,1778412962670,1.034098222222222,-0.1587084433333333,-0.1993002388888889,0.1423528655555555,0.4574058222222222,-0.2429814644444444
122,1778412962680,1.0027719,-0.14391084,-0.21943353,0.13950224,0.370937,-0.28526568
123,1778412962690,0.97528862,-0.132965078,-0.186334044,0.1161067925,0.346014434,-0.319534207
124,1778412962700,0.9289973055555556,-0.12450252,-0.0922614805555555,0.08941277,0.31840414,-0.36101073
125,1778412962710,0.9418659,-0.125196334,-0.03995964992,0.116290045,0.36910446,-0.355818535
126,1778412962720,0.9794507666666666,-0.1368745233333333,-0.0108170266666666,0.1531445033333333,0.4039227566666666,-0.3540878
127,1778412962730,0.9704733,-0.1601719499999999,-0.0447587086666666,0.1995688966666666,0.3961853533333333,-0.3410563833333333
128,1778412962740,0.98016086,-0.167814668,-0.0820993025,0.215491643,0.36110236,-0.308722212
129,1778412962750,0.9977851444444444,-0.1504694788888889,-0.1077671294444444,0.2140256122222222,0.3282455444444444,-0.28546929
130,1778412962760,1.0059935722222224,-0.1354787705555555,-0.14189175,0.2033018444444444,0.2957349222222222,-0.2791571911111111
131,1778412962770,0.950006626,-0.1091953994,-0.181498394,0.128506988,0.31987018,-0.294061864
132,1778412962780,0.92688334,-0.094853096,-0.18427904,0.08635853,0.3422272,-0.29442838
133,1778412962790,0.90791881,-0.0756446546666666,-0.1617472433333333,-0.0417836475555555,0.3260736711111111,-0.2519405644444444
134,1778412962800,0.893119115,-0.0692875751,-0.114951829,-0.1196802449999999,0.293115072,-0.194432686
135,1778412962810,0.9210903133333334,-0.1160027033333333,-0.0735815333333333,-0.1977109,0.1674994066666666,-0.0315349913333333
136,1778412962820,0.954577008,-0.151642992,-0.041112155,-0.228243081,0.019806722,0.1287818721999999
137,1778412962830,0.9934217888888888,-0.1500358466666666,-0.0338027855555555,-0.2176482722222222,-0.1042427822222222,0.2598900666666666
138,1778412962840,1.013910833333333,-0.14317908,-0.0422585633333333,-0.2037260422222222,-0.1702142866666667,0.310386781111111
139,1778412962850,1.04171022,-0.129559385,-0.082245654,-0.16604356,-0.219767578,0.338668989
140,1778412962860,1.0950978555555555,-0.1059106522222222,-0.1455335633333333,-0.1480031966666666,-0.198449,0.2975589666666667
141,1778412962870,1.1101563,-0.09899968,-0.16208263,-0.15370443,-0.21188764,0.2340308599999999
142,1778412962880,1.08685917,-0.10426828,-0.18052273,-0.154009871,-0.226364719,0.194814461
143,1778412962890,1.0750830333333332,-0.0813970288888888,-0.2274827811111111,-0.1916787822222222,-0.2836961277777778,0.1636476744444444
144,1778412962900,1.06211378,-0.06735759,-0.2128142469999999,-0.2350234819999999,-0.3441360759999999,0.141120987
145,1778412962910,1.0252123,-0.06530869,-0.17574196,-0.27350685,-0.39330927,0.12102412
146,1778412962920,1.0252123,-0.06530869,-0.17574196,-0.27350685,-0.39330927,0.12102412
147,1778412962930,1.01411103,-0.0650190388,-0.131422301,-0.274972884,-0.30143021,0.1171757809999999
148,1778412962940,1.011390311111111,-0.0826843622222222,0.1950757477777777,-0.2199219711111111,0.4465463222222222,0.0593285395555555
149,1778412962950,1.0239927,-0.09338959,0.17690057,-0.1684326422222222,0.6885775944444444,0.0223213775555555
150,1778412962960,1.08424006,-0.0946579635999999,0.0273125698,-0.11913049,0.7742183600000001,-0.04227063
151,1778412962970,1.0929939666666666,-0.0929017633333333,-0.0220981732222222,-0.1165106322222222,0.6885097055555556,-0.1016721311111111
152,1778412962980,1.0762484666666667,-0.0890532988888888,-0.0592514266666666,-0.1357862533333333,0.4690797833333333,-0.1575985866666666
153,1778412962990,1.06470844,-0.08658127,-0.071943226,-0.145641253,0.301720378,-0.183132005
154,1778412963000,1.0401217,-0.06921136,-0.080065645,-0.1667443344444444,0.1504805282222222,-0.1938421933333333
155,1778412963010,1.01500129,-0.069382097,-0.0836512235,-0.21242213,0.0538309139999999,-0.2003579
156,1778412963020,0.9450957644444444,-0.0673142244444444,0.0325222223333333,-0.25267019,0.1545698061111111,-0.1485037588888889
157,1778412963030,0.9527927444444444,-0.0549015788888888,0.0440947138888888,-0.2713349711111111,0.3083590822222222,-0.11063123
158,1778412963040,0.91267829,-0.068025311,0.0521981667,-0.307592146,0.4038005669999999,-0.089977804
159,1778412963050,0.8863627,-0.07607151,0.0556130039999999,-0.3504736,0.49066305,-0.03115321
160,1778412963060,0.8830291566666667,-0.0588855483333333,0.0449619726666666,-0.4622586666666666,0.50389808,0.0591249246666666
161,1778412963070,0.89977807,-0.050429773,0.0543934139999999,-0.5270085,0.41797224,0.11491564
162,1778412963080,0.89977807,-0.050429773,0.054393414,-0.5270085,0.41797224,0.11491564
163,1778412963090,0.911499641111111,-0.0379629203333333,0.1272296433333333,-0.5090903066666667,0.3005198866666666,0.1678557333333333
164,1778412963100,0.924541739,-0.020571323,0.2267144469999999,-0.45676103,0.13934954,0.25113457
165,1778412963110,0.94119314,-0.0178059173333333,0.2292918266666667,-0.3705636877777778,0.0720884611111111,0.2545281644444444
166,1778412963120,0.949031,-0.0294529386,0.2187048359999999,-0.293603733,0.0628714549999999,0.250584811
167,1778412963130,0.9779534333333336,-0.0565378533333333,0.169247678,-0.2507018966666666,0.0835588166666666,0.2458405699999999
168,1778412963140,1.0322960666666667,-0.08509643,0.1119882413333333,-0.2079425866666666,0.0599393873333333,0.2346416999999999
169,1778412963150,1.05292735,-0.097755705,0.0920328104,-0.1965401,0.025731942,0.22608984
170,1778412963160,1.1011177333333333,-0.1239604911111111,0.1100504644444444,-0.2199559133333333,-0.089310962,0.1817016066666666
171,1778412963170,1.1136218333333334,-0.1248819577777777,0.1375215811111111,-0.2316977555555555,-0.1559611888888888,0.1133545943333333
172,1778412963180,1.0808557,-0.1036341,0.16031423,-0.2441862,-0.11903886,0.012904149
173,1778412963190,1.0562946777777775,-0.0757632315555555,0.1562929922222222,-0.2542991122222222,-0.110351254,-0.0462547115555555
174,1778412963200,1.0396609444444445,-0.0322173295555555,0.1251597433333333,-0.26923093,-0.17035003,-0.123391144
175,1778412963210,1.02159922,-0.0339410045,0.100963212,-0.360247172,-0.42085848,-0.158514863
176,1778412963220,0.9760088222222222,-0.0669212455555555,0.16814328,-0.4421007066666667,-0.4517469866666667,-0.1384587066666666
177,1778412963230,0.948689508,-0.078120407,0.214494214,-0.46042612,-0.40491536,-0.11972606
178,1778412963240,0.9767676733333334,-0.0823320388888888,0.2168249833333333,-0.3779617333333334,-0.3200754788888889,-0.08809775
179,1778412963250,1.0020401,-0.08070593,0.19839573,-0.33825666,-0.2980171,-0.08490777
180,1778412963260,1.1138423899999998,-0.1159854259999999,0.269412051,-0.273079264,-0.282562676,-0.158209442
181,1778412963270,1.1671819666666667,-0.1514722566666667,0.3525409033333333,-0.1992889222222222,-0.2896009933333333,-0.2395199977777777
182,1778412963280,1.1361977888888888,-0.1695762933333333,0.4182527277777778,-0.16178121,-0.2712755777777778,-0.2805824988888889
183,1778412963290,1.04406403,-0.1831814159999999,0.352490077,-0.155048312,-0.198204664,-0.325703748
184,1778412963300,1.0037476,-0.18659624,0.31748804,-0.163478,-0.1776802,-0.35062632
185,1778412963310,1.0082193666666666,-0.1700099133333333,0.2545168866666667,-0.1485461766666666,-0.22627649,-0.4405566222222222
186,1778412963320,1.0186265,-0.16000934,0.2198603899999999,-0.14209834,-0.34016556,-0.64688724
187,1778412963330,0.9986795666666668,-0.1532880777777777,0.26346727,-0.11976848,-0.2950307344444444,-0.8117481366666666
188,1778412963340,0.6895016333333334,-0.0698008203333333,0.4568965533333333,0.0617888964444444,0.0608980773333333,-1.440445711111111
189,1778412963350,0.5344519,-0.054820273,0.4209391800000001,0.28549474,0.4741701799999999,-1.7146481999999998
190,1778412963360,0.6006075444444444,0.0135034958888888,0.2584635977777778,0.4819160877777777,0.5423814588888889,-1.6895356333333331
191,1778412963370,0.6606178,0.07378479,0.18055932,0.612420209,0.57269983,-1.5874088
192,1778412963380,0.6526498555555555,0.0735950775555555,0.0885010988888888,0.5866424266666667,0.2910941633333333,-1.057783776666667
193,1778412963390,0.9000863777777778,0.1652908111111111,0.0868072322222222,0.5018704333333334,-0.2344889977777778,-0.4182182813333333
194,1778412963400,1.0430486,0.2392517799999999,0.07268717,0.4296547,-0.6987329,0.033062108
195,1778412963410,1.044938988888889,0.3055767844444444,0.1164092344444444,0.3729137755555556,-0.768505228888889,0.2486233044444444
196,1778412963420,0.9959964944444444,0.3815940844444444,0.1093525933333333,0.2964221222222222,-0.8010158755555555,0.5182105555555556
197,1778412963430,1.05682694,0.336909916,0.0658178674999999,0.2692462,-0.529833635,0.473971675
198,1778412963440,1.1627100666666663,0.2130510566666666,0.1191431333333333,0.2481651755555555,-0.2380862011111111,0.3084184788888889
199,1778412963450,1.15732963,0.0992252958599999,0.1143938709999999,0.2372378099999999,0.13201937,0.09414683
200,1778412963460,0.9885434,-0.0356219976,-0.0967536133333333,0.0957248622222222,0.4346602322222222,-0.1330883511111111
201,1778412963470,0.8796278488888889,-0.0796083055555555,-0.0332539733333333,-0.1840092566666666,0.2825338177777778,-0.0724532733333333
202,1778412963480,0.8572359540000001,-0.0543781756,0.1053750524,-0.343937559,0.0924975438,0.091275852
203,1778412963490,0.9407866,0.024737216,0.0306420318333333,-0.4309018266666667,-0.0481805813333333,0.3726931866666667
204,1778412963500,1.0520736,0.08280971,0.0046039275,-0.46958882,-0.1349209,0.481424
205,1778412963510,1.04028017,0.075272684,0.10047232375,-0.450530396,-0.0190431662,0.4728110499999999
206,1778412963520,0.9939604,0.0558704688888888,0.2223063266666666,-0.416513,0.0752105666666666,0.4607230666666666
207,1778412963530,0.9934116333333336,0.0842833733333333,0.3501830366666666,-0.32909396,0.1338519,0.4710396
208,1778412963540,1.0720107,0.1098082414999999,0.345526263,-0.159026441,0.157247358,0.5949194029999999
209,1778412963550,1.1384505,0.096469045,0.25721014,-0.09261972,0.11186141,0.68850124
210,1778412963560,1.15303071,0.0034910581,0.197316385,-0.1006828968,0.165577787,0.704627596
211,1778412963570,1.1104002,-0.07680326,0.15909465,-0.123162076,0.21272756,0.68850124
212,1778412963580,1.0197647666666667,-0.1612289233333333,0.2401156366666666,-0.1972273033333333,0.0561385622222222,0.6770308511111112
213,1778412963590,0.99288723,-0.162396673,0.404740097,-0.2352601879999999,-0.0378572599,0.7241746929999999
214,1778412963600,0.897339,-0.12461092,0.3226103,-0.14942852,0.082540736,0.7593595
215,1778412963610,0.940187008888889,-0.1271720499999999,0.1965663537777777,-0.128456092,0.1342591386666666,0.8428419666666667
216,1778412963620,1.013440275,-0.129852086,0.1289008172,-0.1466186129999999,0.1906836089999999,0.91152155
217,1778412963630,1.0874821777777777,-0.0942975088888889,0.2155749155555555,-0.2432699177777777,0.2884047388888888,0.816847011111111
218,1778412963640,1.11296129,-0.0630158699,0.345959212,-0.303316204,0.358597876,0.7085370080000001
219,1778412963650,1.1104002,-0.042868353,0.4875893999999999,-0.32726142,0.43629766,0.54678464
220,1778412963660,1.0472697999999998,-0.0181413023333333,0.4995379488888888,-0.2056179733333333,0.5829010022222222,0.3695032133333333
221,1778412963670,1.02841069,-0.0195712629,0.390489265,-0.09689565,0.68552333,0.25846475
222,1778412963680,1.0615864,-0.0714066,0.22620223,-0.09933904,0.6372664,0.2315874699999999
223,1778412963690,1.2136379333333334,-0.1595248922222222,0.2756698644444444,-0.1000856291111111,0.47661358,0.20796804
224,1778412963700,1.2077838,-0.22589731,0.31602454,-0.11583191,0.4912739,0.18516308
225,1778412963710,1.1956828888888889,-0.2322459255555555,0.3798019666666666,-0.11718935,0.5022012844444445,0.1568604893333333
226,1778412963720,1.188484,-0.24812423,0.4314581,-0.1311031,0.530979,0.13996038
227,1778412963730,1.0479148,-0.195444324,0.41074957,-0.0125376392,0.4957941939999999,-0.098224238
228,1778412963740,1.0360360666666668,-0.1791161433333333,0.3077212,0.0696620393333333,0.3969998133333333,-0.1506756566666666
229,1778412963750,1.0763839555555554,-0.1695220833333333,0.2912229644444444,0.1162900433333333,0.2474694866666666,-0.1453137688888889
230,1778412963760,1.1119246,-0.161497225,0.350462517,0.087213718,0.1361731279999999,-0.11667182
231,1778412963770,1.1683168444444445,-0.15323387,0.4472347566666666,0.05092939,0.13140851,-0.10384403
232,1778412963780,1.03983811,-0.165058405,0.53084501,0.0485470857,0.1430757014999999,-0.123635486
233,1778412963790,0.8063411,-0.1485994533333333,0.5486126144444445,0.1612891233333333,0.1776292966666667,-0.1233911449999999
234,1778412963800,0.76580685,-0.15171617,0.49588257,0.26106083,0.15523157,-0.098957255
235,1778412963810,0.761270008,-0.168796434,0.437452356,0.323672684,0.116381679,-0.0424996973999999
236,1778412963820,0.7804723511111111,-0.1909325466666666,0.3827018755555555,0.41010758,0.06177193,0.082540736
237,1778412963830,0.83203026,-0.1752134733333333,0.4656979066666666,0.4504235,7.635666666666596e-05,0.23769593
238,1778412963840,0.8644589500000001,-0.1425601464999999,0.533396964,0.4863413119999999,-0.079700298,0.366706874
239,1778412963850,0.873679,-0.109244175,0.51563984,0.4931828,-0.09093989,0.43805385
240,1778412963860,0.8894523111111111,-0.0872069844444444,0.54761664,0.50634995,-0.0781799644444444,0.451356741111111
241,1778412963870,0.91158978,-0.0554056736,0.6594958,0.622621361,0.1073029559999999,0.420094934
242,1778412963880,0.9383000111111112,-0.0684863831111111,0.6690464888888888,0.7280875488888889,0.3092414266666667,0.3574220166666667
243,1778412963890,0.9809244733333332,-0.1084074097777777,0.6761370033333334,0.9464314955555556,0.712264871111111,0.2135335393333333
244,1778412963900,0.924166762,-0.200459865,0.576036681,1.09950986,0.816000292,0.1176033672
245,1778412963910,0.8754575833333333,-0.23849969,0.7154380833333334,1.1487576333333334,0.6441214666666667,0.1005267924444444
246,1778412963920,0.8494032519999999,-0.2222873739999999,0.765989826,1.2357287,0.62614899,0.1100288648
247,1778412963930,0.84268129,-0.1744105766666666,0.6826515966666666,1.2648865,0.5462501733333334,0.0758214166666666
248,1778412963940,0.9240343055555555,-0.0653391786977777,0.6713772277777778,1.2764925666666669,0.36890084,0.00595576
249,1778412963950,0.9805755000000002,-0.0003963645699999,0.6845216,1.2671263,0.31229568,-0.06536066
250,1778412963960,1.0317404333333335,0.0856452373177777,0.7268242444444444,1.2386879555555554,0.3477248033333333,-0.21556121
251,1778412963970,1.0357312,0.12503777,0.7272375,1.1907704,0.42713493,-0.41537613
252,1778412963980,1.006433728,0.160170926,0.662075205,0.9575489,0.430372443,-0.6451768830000001
253,1778412963990,0.9599137733333334,0.2130510433333333,0.6265203,0.796163,0.37643462,-0.7635591
254,1778412964000,0.9234686,0.22803159,0.6515624,0.6978845111111112,0.2412337666666666,-0.8173136422222222
255,1778412964010,0.8787251059999999,0.202356316,0.644687003,0.6855997,0.22433366,-0.82403296
256,1778412964020,0.84291506,0.10454878,0.4949069300000001,0.2368984288888889,0.0819977577777777,-0.7590795533333333
257,1778412964030,0.837588515,-0.0236507696,0.38569323,-0.039437828,0.084457266,-0.717745531
258,1778412964040,0.8043559,-0.06270691,0.38596765,-0.28124426,0.3122956533333333,-0.6350775133333334
259,1778412964050,0.82575955,-0.06709741,0.3365846866666666,-0.39011082,0.4762063377777777,-0.55274888
260,1778412964060,0.855943205,-0.0674307589999999,0.2838122884999999,-0.506117497,0.5897425000000001,-0.451232873
261,1778412964070,0.8744108,-0.03823394,0.123696245,-0.63146335,0.6293254,-0.33413345
262,1778412964080,0.8201393333333333,-0.03286777,0.1108398066666666,-0.7391760977777778,0.4189733677777777,-0.2199728742222222
263,1778412964090,0.7584894,-0.04750277,0.17543708,-0.903901215,0.0015423894999999,-0.0070171076
264,1778412964100,0.7904762988888889,-0.0992232722222222,0.2022204622222222,-0.97537035,-0.18867545,0.16072918
265,1778412964110,0.8694884088888889,-0.1435314088888889,0.1865657666666666,-1.0044195433333334,-0.3685360311111111,0.3224679622222222
266,1778412964120,0.88807017,-0.15098442,0.1437279,-0.98758733,-0.5148679,0.44965994
267,1778412964130,0.9527690088888888,-0.15716364,0.071752155,-0.9307106144444444,-0.6427385955555555,0.5539112266666667
268,1778412964140,0.99664966,-0.159667847,0.0553477412999999,-0.84959691,-0.7763104839999999,0.643481795
269,1778412964150,0.9852811333333334,-0.1524479166666666,0.0675750826666666,-0.7810530777777778,-0.7189587211111111,0.6584339444444445
270,1778412964160,0.9348377777777775,-0.1536403966666666,0.0291175533333333,-0.6935661466666666,-0.50305815,0.6583660833333334
271,1778412964170,0.9161205,-0.14903308,0.037807085,-0.69438064,-0.43423605,0.64207685
272,1778412964180,0.9126887944444444,-0.1038170311111111,-0.0172740444444444,-0.6636346377777778,-0.4086483366666666,0.6600628777777778
273,1778412964190,0.9666621333333334,-0.057178129,-0.0561719799999999,-0.6565081,-0.34138726,0.6974602999999999
274,1778412964200,1.03119131,-0.0381363705,-0.1114455299999999,-0.68014787,-0.28299027,0.716905624
275,1778412964210,0.9873170666666664,-0.0330574848888888,-0.2362976711111111,-0.7601485311111111,-0.3827891311111111,0.7192472088888889
276,1778412964220,0.9690809,-0.041404855,-0.28507763,-0.83426464,-0.53197163,0.7178219
277,1778412964230,0.982965924,-0.0436488896,-0.213134376,-0.8822772280000001,-0.695312172,0.6875238400000001
278,1778412964240,0.9973244666666664,-0.0502671603333333,-0.1836285966666666,-0.8071837444444445,-0.7708128666666667,0.6271449777777778
279,1778412964250,1.0162361399999995,-0.0541434019999999,-0.201895932,-0.7484406029999999,-0.672649745,0.556130622
280,1778412964260,0.9960947,-0.1070489266666666,-0.24563425,-0.7452166877777777,-0.4841219355555555,0.4587547688888888
281,1778412964270,0.9593243,-0.1285136,-0.32096383,-0.7767092822222222,-0.22342587,0.3268117622222222
282,1778412964280,1.08562735,-0.1104637625,-0.316558115,-0.831576946,-0.04829511,0.1838726636
283,1778412964290,1.1348527555555554,-0.10295655,-0.3299074677777778,-0.953583488888889,0.2143564866666666,-0.1149071591111111
284,1778412964300,1.1538478,-0.106561095,-0.3629175,-1.1012726888888889,0.2830428688888889,-0.4165299688888889
285,1778412964310,1.11540349,-0.163820532,-0.354575559,-1.1433533,0.26098448,-0.50578153
286,1778412964320,1.1001556,-0.21077448,-0.3451116,-1.1574029,0.17966545,-0.58213747
287,1778412964330,1.05443039,-0.164924259,-0.226863848,-1.13034228,0.121329536,-0.62703471
288,1778412964340,1.0391257,-0.081346208,-0.1820939633333333,-1.0564093833333332,0.03672719,-0.6165484999999999
289,1778412964350,1.0621047444444445,-0.0482650102222222,-0.2238511466666666,-0.970279977777778,-0.0814378144444444,-0.5777257666666666
290,1778412964360,1.1206934199999998,-0.1102808239999999,-0.28985228,-0.86957162,-0.264481593,-0.582626149
291,1778412964370,1.1438167,-0.16488767,-0.35047778,-0.820826,-0.37864894,-0.61939913
292,1778412964380,1.1064804888888888,-0.2034976444444444,-0.2604826786666667,-0.7723654488888889,-0.3679930533333333,-0.6168878677777778
293,1778412964390,1.0752456,-0.24394716,-0.040307228,-0.5276193,-0.23509984,-0.56503373
294,1778412964400,1.0943017,-0.21931157,-0.002713573,-0.316877,-0.05673244,-0.53388053
295,1778412964410,1.0302802588888889,-0.0897850437777777,0.0243848916666666,0.1847728177777777,0.2580660144444444,-0.4963473311111112
296,1778412964420,0.97691673,-0.096072674,-0.047868647,0.4052208,0.30801973,-0.46485478
297,1778412964430,1.054807417777778,-0.0526317955555555,-0.0996873842222222,0.6148092777777777,0.2643102111111111,-0.4841982622222222
298,1778412964440,1.1196689333333334,-0.021484994,-0.1654974566666666,0.7737653044444444,0.1869277415555555,-0.5311656222222223
299,1778412964450,1.11718102,-0.0277943061999999,-0.169442814,0.932748524,0.0252432644,-0.60669352
300,1778412964460,1.0906903222222222,-0.0376919027777777,-0.1443614011111111,1.015389388888889,-0.0477733455555555,-0.59808736
301,1778412964470,1.0806118,-0.0272576879999999,-0.17891288,1.07739712,-0.1235591239999999,-0.5525724559999999
302,1778412964480,1.0355143666666666,-0.0168505772222222,-0.2252333255555555,1.1410882,-0.27480491,-0.43024009
303,1778412964490,1.0292165666666666,-0.038152634,-0.2234987999999999,1.2090958333333337,-0.4409553533333333,-0.3101067933333333
304,1778412964500,1.0239927,-0.055552024,-0.25602102,1.2310863,-0.514257,-0.27182704
305,1778412964510,0.9964842944444444,-0.0659862364444444,-0.2955050488888889,1.264818677777778,-0.5494146944444445,-0.20008642
306,1778412964520,0.9695179944444444,-0.0698347022222222,-0.3289284044444444,1.2804291222222222,-0.5290531277777778,-0.1394089133333333
307,1778412964530,0.93259101,-0.0609669752,-0.382943072,1.25014469,-0.491716775,-0.074401194
308,1778412964540,0.9289159888888888,-0.0518932741111111,-0.4279788833333333,1.2056343,-0.4468602233333334,-0.022983128
309,1778412964550,0.9511225866666666,-0.0328576091666666,-0.4469671233333334,1.1381696555555554,-0.3677215766666666,0.0118181977777777
310,1778412964560,0.98899063,-0.0032014062999999,-0.4574962099999999,1.05956042,-0.22715882,0.0289083464
311,1778412964570,1.0003327,0.0030184689,-0.46152085,1.0350044,-0.16668494,0.02817533
312,1778412964580,1.02965464,-0.03766988151,-0.463862439,0.968849552,-0.1223374345999999,-0.031634254
313,1778412964590,1.0250700333333331,-0.0589668566666666,-0.4456561,0.8898262844444444,-0.0860531055555555,-0.1095452811111111
314,1778412964600,1.0164312777777775,-0.0679104666666666,-0.3976045333333333,0.8353930222222222,-0.0245611504444444,-0.1628247366666666
315,1778412964610,1.0266757,-0.066772185,-0.34730685,0.8016606599999999,0.041003123,-0.19608197
316,1778412964620,1.0686869888888888,-0.0540885205555555,-0.3904564,0.7417976,0.1711136,-0.2596101
317,1778412964630,1.065190877777778,-0.0623579771111111,-0.3950603277777778,0.6735184833333334,0.1657517128888889,-0.3013513144444444
318,1778412964640,1.04721962,-0.0892917948,-0.345453077,0.6024023140000001,0.0952463582,-0.326070264
319,1778412964650,1.0328752666666667,-0.1126590133333333,-0.3096521966666666,0.53377021,0.0423605616666666,-0.3090208355555555
320,1778412964660,1.01591899,-0.118903278,-0.279238836,0.466672036,0.0180352658,-0.28123408
321,1778412964670,1.0010645,-0.10729284,-0.24626437,0.4296547,0.011071607,-0.26144263
322,1778412964680,0.9953189222222222,-0.0961810844444444,-0.2040193544444444,0.3559457988888889,0.0518626308888888,-0.2093169955555555
323,1778412964690,1.00950402,-0.077382568,-0.1611496579999999,0.233572728,0.134462758,-0.1160609829999999
324,1778412964700,1.0311374333333334,-0.0738085088888888,-0.1360614633333333,0.1454071053333333,0.1817270566666666,-0.0564015636666666
325,1778412964710,1.0374928333333333,-0.0733274497777777,-0.1348689766666666,0.0541872414444444,0.2071620677777778,-0.0065666076666666
326,1778412964720,1.0445122,-0.06628435,-0.14131922,-0.0071010995,0.20478654,0.023899399
327,1778412964730,1.0540519333333334,-0.0573949473333333,-0.1472003222222222,-0.0488423297777777,0.1816676677777777,0.0408673773333333
328,1778412964740,1.0567568399999998,-0.0300383366,-0.085431814,-0.140571221,0.10501991,0.08199097
329,1778412964750,1.0545127333333333,-0.0349275125555555,-0.0823422055555555,-0.17080817,0.06543701,0.09353599
330,1778412964760,1.052426,-0.0560398533333333,-0.0877117599999999,-0.2093509333333333,-0.0007381077777777,0.1053457
331,1778412964770,1.0767092,-0.07165052,-0.10790264,-0.2356343299999999,-0.04756973,0.11002886
332,1778412964780,1.087123111111111,-0.0709526533333333,-0.1408110666666666,-0.2546384588888888,-0.054085434,0.0826086066666666
333,1778412964790,1.0915372666666667,-0.0748417686666666,-0.16948143,-0.2690273,-0.0699674626666666,0.0662514766666666
334,1778412964800,1.0865115600000002,-0.0703821562,-0.185620586,-0.293115053,-0.0922226615,0.0521205419
335,1778412964810,1.0706112,-0.06457694,-0.17964463,-0.3433470666666667,-0.0907362666666666,0.043446512
336,1778412964820,1.045,-0.0614060199999999,-0.1515942,-0.3694099,-0.07322531,0.04833329
337,1778412964830,1.0388208,-0.05452215,-0.1508285822222222,-0.3899071955555555,-0.0813699442222222,0.0722242055555555
338,1778412964840,1.0310968,-0.047990605,-0.13424563,-0.41400173,-0.102545984,0.10575293
339,1778412964850,1.02673672,-0.068735718,-0.163985184,-0.405205527,-0.1877591703999999,0.151444313
340,1778412964860,1.0389020333333334,-0.0870477613333333,-0.18289685,-0.3818304433333333,-0.3519752766666666,0.2232392266666666
341,1778412964870,1.0432925,-0.095828764,-0.17476629,-0.37979427,-0.41346723,0.24930204
342,1778412964880,1.04426826,-0.0997314327999999,-0.178278698,-0.378939087,-0.433991713,0.2672609529999999
343,1778412964890,1.0445122,-0.1007071,-0.1791568,-0.37857258,-0.44278792,0.27495763
344,1778412964900,1.0212587333333334,-0.0737136515555555,-0.21032392,-0.4035494422222222,-0.4042366666666667,0.2760435588888889
345,1778412964910,1.00386956,-0.065723348,-0.1602501989999999,-0.398791616,-0.40112813,0.277278828
346,1778412964920,1.0049672,-0.06945527,-0.14156313,-0.36085802,-0.4000286,0.28717458
347,1778412964930,1.04821662,-0.0640159305,-0.075068406,-0.266642471,-0.320313032,0.272147733
348,1778412964940,1.0569248111111111,-0.0752584566666666,-0.0738627166666666,-0.18607935,-0.26991814,0.24441525
349,1778412964950,1.0356159666666669,-0.1029294433333333,-0.1149287966666666,-0.0528467733333333,-0.2750763922222222,0.21353354
350,1778412964960,0.99535688,-0.137352531,-0.168351291,0.126063605,-0.38139777,0.1924932399999999
351,1778412964970,0.9939909,-0.1636681,-0.15793604,0.1828724,-0.43118182,0.19615832
352,1778412964980,1.034426911111111,-0.1679772822222222,-0.1958617,0.2785039355555556,-0.5143248777777778,0.2029455144444444
353,1778412964990,1.03401766,-0.158204362,-0.224116734,0.360873288,-0.574242224,0.197257858
354,1778412965000,1.027980011111111,-0.1377553311111111,-0.2275606911111111,0.3694523,-0.5492789644444445,0.1863169011111111
355,1778412965010,1.0423169,-0.09436526,-0.1911087,0.3576425977777777,-0.4402766577777777,0.1483086233333333
356,1778412965020,1.05351263,-0.067336244,-0.149371515,0.37712184,-0.36093438,0.1026987
357,1778412965030,1.057656522222222,-0.0750484133333333,-0.1418612544444444,0.4127545888888889,-0.3255052377777778,0.083762433
358,1778412965040,1.06485482,-0.105487858,-0.147325666,0.520793084,-0.243040848,0.0328177683999999
359,1778412965050,1.0483335444444444,-0.1192176633333333,-0.2150565911111111,0.6068003844444444,-0.2924515911111111,0.0122933015155555
360,1778412965060,1.0360462333333331,-0.1305564,-0.2440691233333333,0.6786767444444445,-0.3741015166666666,-0.0078307227166666
361,1778412965070,1.0244805,-0.1478135,-0.24309345,0.71125525,-0.410413,-0.017714571
362,1778412965080,1.0183013,-0.1584916311111111,-0.2288378788888888,0.7890364944444445,-0.3835357266666667,-0.022465605
363,1778412965090,1.0180574,-0.1423660322222222,-0.2313380288888888,0.8505285,-0.30229303,-0.031764057
364,1778412965100,0.99733258,-0.139910597,-0.270665199,0.8810708,-0.18073443,-0.04886778
365,1778412965110,0.9900883,-0.143423,-0.33413535,0.8730619277777777,-0.1275228522222222,-0.0429629237777777
366,1778412965120,0.9925274,-0.14488651,-0.33169618,0.85602605,-0.17645851,-0.025655584
367,1778412965130,0.974331234,-0.127638539,-0.3849462339999999,0.82071907,-0.210360525,0.0164317917
368,1778412965140,0.9779737222222222,-0.0990505014444444,-0.4269896711111111,0.7578832777777778,-0.3107770288888888,0.0814547911111111
369,1778412965150,1.01571166,-0.021391491,-0.431891056,0.75456437,-0.433319786,0.154926139
370,1778412965160,1.0320859,0.0265428766666666,-0.43456804,0.7876112000000001,-0.4472674666666666,0.20023064
371,1778412965170,1.0305784,0.03521547,-0.43075684,0.80838,-0.402472,0.2267007
372,1778412965180,0.96934313,0.0089212527,-0.343687734,0.815465824,-0.1683953204,0.252600612
373,1778412965190,0.9262260666666666,-0.0220033157222222,-0.3065219555555555,0.8147599688888889,0.0216596256666666,0.2780118533333333
374,1778412965200,0.9079899666666668,-0.08492365,-0.3474796333333333,0.7755978666666666,0.1310012826666666,0.3376712833333333
375,1778412965210,0.91261724,-0.1708239859999999,-0.397291491,0.685599668,0.1130830944,0.429013304
376,1778412965220,0.9181023,-0.2273608299999999,-0.41368267,0.54388314,-0.023746688,0.5223508
377,1778412965230,0.953232444,-0.250898796,-0.4076335239999999,0.411084938,-0.1267966184,0.596080045
378,1778412965240,0.99423486,-0.23565398,-0.39221802,0.19753273,-0.22899136,0.68789035
379,1778412965250,1.0130774133333331,-0.2000828046666666,-0.3868721733333333,0.0858070733333333,-0.2165708033333333,0.6889763144444444
380,1778412965260,1.09757326,-0.08219992065,-0.339492372,-0.312967584,-0.1216044182,0.62643916
381,1778412965270,1.1202381666666663,0.0018801906666666,-0.1842892243333333,-0.5202212644444445,0.0145330746666666,0.5041611022222222
382,1778412965280,1.1085572666666663,0.0284129033333333,0.0186325253333333,-0.6904440555555555,0.2382728533333333,0.3659738666666667
383,1778412965290,1.11632737,0.0264802025,0.0589577106,-0.734574354,0.310340952,0.308920736
384,1778412965300,1.1023373666666665,-0.0532619156666666,0.0902525544444444,-0.76761444,0.3349648766666666,0.2322661855555555
385,1778412965310,1.05352185,-0.124992047,0.10613424,-0.78661857,0.118313479,0.149428515
386,1778412965320,1.023017,-0.15415533,0.1205253199999999,-0.79150534,0.033062108,0.1246892
387,1778412965330,0.9590329111111112,-0.2191015366666666,0.0828944008888888,-0.8305995488888889,0.0009586919999999,0.0988299972222222
388,1778412965340,0.9215172,-0.25178298,0.0453685,-0.8599202,0.038559735,0.10208785
389,1778412965350,0.9141929333333332,-0.2528670511111111,0.0331658913333333,-0.868879288888889,0.0477903161111111,0.1057529322222222
390,1778412965360,0.888558,-0.2566613,-0.009543239,-0.955144511111111,-0.0105116611111111,0.1397567599999999
391,1778412965370,0.943323318,-0.0794314679999999,0.07259569422,-1.07994746,-0.2402309599999999,0.170014068
392,1778412965380,0.9377512,0.0811056811111111,0.1896011699999999,-1.0796217,-0.30066412,0.0901423911111111
393,1778412965390,0.92907864,0.12308645,0.19839573,-1.0602782,-0.26503137,0.044668205
394,1778412965400,0.996673984,0.1154640523999999,0.1386422376,-0.992229672,-0.188980871,-0.038116867
395,1778412965410,1.0047944,0.078002515,0.0790493293333333,-0.89657106,-0.1556896966666666,-0.1115814266666666
396,1778412965420,0.940533532,0.0152539373,0.0208457281,-0.8403731000000001,-0.18745375,-0.131943
397,1778412965430,0.8441244222222222,-0.0604981068888888,-0.008892795,-0.7825462333333334,-0.3086051199999999,-0.0863330788888889
398,1778412965440,0.75775766,-0.13073933,-0.020275572,-0.7982246,-0.3029039,-0.03787253
399,1778412965450,0.651720966,-0.206063862,-0.017519315,-0.8267512,-0.199304187,0.0441718939999999
400,1778412965460,0.6592458,-0.2352474633333333,-0.0293919606666666,-0.7651710555555555,-0.0015525748888888,0.1759325022222222
401,1778412965470,0.6974797,-0.22906823,-0.066650234,-0.71392775,0.091092594,0.21937053
402,1778412965480,0.765200132,-0.22294592,-0.0618206802,-0.682163694,0.1467102356,0.236474244
403,1778412965490,0.8204747,-0.2241898999999999,-0.03884373,-0.67116845,0.15645325,0.25235626
404,1778412965500,0.8501783,-0.2064110822222222,-0.0499012873333333,-0.6532502277777777,0.2374244499999999,0.2181488288888889
405,1778412965510,0.9265907,-0.166058466,-0.0383497986,-0.619429665,0.221218332,0.1030041188
406,1778412965520,0.9426871033333334,-0.14371773,-0.0235040815555555,-0.49768779,0.2328855166666666,-0.026419144
407,1778412965530,0.987453958,-0.10821973,-0.0608450155999999,-0.37429665,0.332575782,-0.183009832
408,1778412965540,0.9952342111111112,-0.1114665316666666,-0.0596850544444444,-0.34864107,0.39414918,-0.25044736
409,1778412965550,0.9521930666666668,-0.12846278,-0.0533703208888888,-0.34782661,0.4409808133333333,-0.3050163866666666
410,1778412965560,0.870133121,-0.171083158,-0.0521371889,-0.356948598,0.501108573,-0.381962784
411,1778412965570,0.8223379655555555,-0.1809658422222222,-0.0552471254444444,-0.3126010844444444,0.4748488944444444,-0.3868020522222222
412,1778412965580,0.8119172766666667,-0.2028065399999999,-0.1299466033333333,-0.2411319588888889,0.4265919666666666,-0.3138397533333333
413,1778412965590,0.84462243,-0.21077448,-0.15598471,-0.2154763599999999,0.3092414,-0.20646638
414,1778412965600,0.93991595,-0.1991749033333333,-0.1474882744444444,-0.2355664622222222,0.2177161511111111,-0.0802246088888888
415,1778412965610,0.9785631666666668,-0.1919658044444444,-0.1162635526666666,-0.2683486088888889,0.14430419,-0.0163486481111111
416,1778412965620,0.954247764,-0.193136275,-0.0243459329,-0.258533475,0.0543806764,0.0104607593
417,1778412965630,0.912167027777778,-0.1641017133333333,0.0227350665555555,-0.1327998933333333,0.041546098,0.0720205866666666
418,1778412965640,0.95859253,-0.14805742,-0.027593073,-0.02286095812,0.12603306,0.127865604
419,1778412965650,1.01922957,-0.1298348116666666,-0.0373124732222222,0.0010435306666666,0.15523156,0.1248928099999999
420,1778412965660,1.039959088888889,-0.1059919556666666,0.0004031403333333,0.0017222498666666,0.1325623377777778,0.0587855668888888
421,1778412965670,1.0199619800000002,-0.0855781632,0.0459417076,0.0051158457,0.09964446,0.0153475379999999
422,1778412965680,0.9584569977777778,-0.06750394,0.1530238388888888,0.1357692884111111,-0.0315519572222222,-0.0688136413333333
423,1778412965690,0.9370702211111112,-0.0604845599999999,0.1754133466666666,0.2509479288888889,-0.0733610594444444,-0.0945455844444444
424,1778412965700,0.9003879149999999,-0.06410435,0.2412183499999999,0.595682956,0.0545639349999999,-0.0612068979999999
425,1778412965710,0.8850516733333333,-0.0999042033333333,0.2888481733333333,0.7313453455555555,0.2274812111111111,0.0119115205555555
426,1778412965720,0.8218840511111111,-0.14616029,0.3276783466666667,0.8045112888888889,0.3892624066666666,0.1417250522222222
427,1778412965730,0.830969252,-0.16074109,0.321872436,0.8560261,0.470871618,0.2716590559999999
428,1778412965740,0.8846553,-0.15781409,0.27208906,0.9439881,0.45523393,0.43438876
429,1778412965750,1.03657273,-0.1516338432,0.285041008,0.97697387,0.06452074,0.6341358149999999
430,1778412965760,1.188372211111111,-0.1350858,0.2201889977777777,0.9040115266666666,-0.0396287164444444,0.6590448
431,1778412965770,1.2724319666666666,-0.1536674999999999,0.1556696533333333,0.7810275911111111,-0.0456014455555555,0.6080729877777779
432,1778412965780,1.3059908999999998,-0.15817996,0.14785924,0.55487838,0.003436016,0.340623705
433,1778412965790,1.298497211111111,-0.1387818155555555,0.1963461577777777,0.4492696755555555,0.0679652444444444,0.1246722244444444
434,1778412965800,1.230549433333333,-0.0776061533333333,0.27948786,0.3740675888888888,0.31650372,-0.3393595877777777
435,1778412965810,1.0693917000000002,-0.05628377,0.24914563,0.3542761319999999,0.525603502,-0.6876918360000001
436,1778412965820,0.9837667888888888,-0.060244025,0.2122684888888889,0.3254034333333333,0.6270855777777777,-0.8701858333333333
437,1778412965830,0.874572379,-0.0809254515,0.1185617919999999,0.210421611,0.66286088,-1.02445191
438,1778412965840,0.84706163,-0.09168218,0.064394,0.09796463,0.582901,-1.0702044
439,1778412965850,0.8598367622222223,-0.1061003655555555,0.2547879077777778,-0.0563082411111111,0.2846463491111111,-1.02086149
440,1778412965860,0.8768499240000001,-0.088069161,0.444824748,-0.1240172708,0.0560299644,-0.935207169
441,1778412965870,0.9347801777777778,-0.0503484644444444,0.4508765477777777,-0.0854931655555555,0.0937396055555555,-0.8564757333333334
442,1778412965880,0.9805247222222222,-0.0399684557777777,0.40141907,-0.0643171264444444,0.1590493622222222,-0.8175851111111112
443,1778412965890,1.01477274,-0.07297377,0.351392462,-0.0709957212,0.25841894,-0.79678916
444,1778412965900,1.0194666555555554,-0.122270006,0.3685106577777778,-0.15802279,0.3194900866666666,-0.7721109166666666
445,1778412965910,0.9921920333333334,-0.12658259,0.4204615333333333,-0.2171731666666666,0.2731335666666666,-0.75840078
446,1778412965920,0.923093535,-0.093136533,0.492812304,-0.190645432,0.224211488,-0.70051962
447,1778412965930,0.8959737222222223,-0.0207905088888888,0.4830736,-0.0962848033333333,0.2251481166666666,-0.55505655
448,1778412965940,0.9200537,0.008384636,0.4568254400000001,-0.07185091,0.2341072099999999,-0.4996730699999999
449,1778412965950,1.0775018555555556,0.0135339877777777,0.4304858377777777,-0.0565118573333333,0.1920860177777777,-0.3853767522222222
450,1778412965960,1.0995797333333333,-0.0095635658888888,0.4636618822222222,-0.0673713624444444,0.1208205033333333,-0.31336465
451,1778412965970,1.07470904,-0.0218366399999999,0.5312566139999999,-0.0661089426,0.138876124,-0.316296716
452,1778412965980,1.0754896,0.002774552,0.54201335,-0.0161280641111111,0.2484281888888888,-0.33793428
453,1778412965990,1.0662208,0.019360885,0.5954311,0.027106347,0.35627666,-0.37261683
454,1778412966000,1.13040738,0.0419597659999999,0.495632568,0.1492758007,0.5945070809999999,-0.345861711
455,1778412966010,1.2408074222222223,0.0205703064444444,0.3749879888888889,0.20038335,0.7514948666666666,-0.2958536933333333
456,1778412966020,1.25268581,-0.0251142705,0.387851885,0.129301099,0.618879922,-0.2673067699999999
457,1778412966030,1.2179334777777775,-0.0505652816666666,0.5104599888888889,0.0389160634311111,0.38396842,-0.1951317666666666
458,1778412966040,1.1979967,-0.047990605,0.5573801,0.00022906772,0.32390177,-0.14660335
459,1778412966050,1.1777760000000002,-0.0083328033,0.56394755,-0.03837647808,0.2717354159999999,-0.0966360348
460,1778412966060,1.1730427333333333,0.0418350965555555,0.6188776,0.0016543778666666,0.2341750911111111,-0.0627136538888888
461,1778412966070,1.2207724111111111,0.0536752168888888,0.6011699222222222,0.052151084,0.2738123,-0.061084725
462,1778412966080,1.39553874,0.0544665932,0.4448613,0.2314958403999999,0.371120252,-0.1532615775
463,1778412966090,1.4403585,0.048173543,0.4228905,0.2500656,0.3721587,-0.18630841
464,1778412966100,1.3897423444444446,0.0052137191666666,0.5105175888888889,0.1186655644444444,0.2858256155555556,-0.2408774322222222
465,1778412966110,1.3524326,0.0119946028,0.5492149399999999,0.0543501326,0.2568918139999999,-0.2593046479999999
466,1778412966120,1.2609746666666668,0.0219355617777777,0.6093648333333334,-0.0341819926666666,0.2925449333333333,-0.2830259
467,1778412966130,1.1499451,0.0300932209999999,0.6366835,-0.04191939,0.3605526,-0.29198498
468,1778412966140,1.1236835,0.0326949952222222,0.5789836777777778,-0.0207433544444444,0.4262526,-0.2702659755555555
469,1778412966150,1.1326643555555558,0.0312856983333333,0.5955259555555555,-0.002078578,0.3793531133333333,-0.2746097844444444
470,1778412966160,1.12673648,0.0017988854399999,0.681051932,0.0679720297,0.223600638,-0.289480528
471,1778412966170,1.0575955777777777,0.0028287564444444,0.6523754577777778,0.1497509011111111,0.0496907261111111,-0.2599494388888889
472,1778412966180,0.9830147,0.033751972,0.65180635,0.15355173,-0.0096972,-0.21623993
473,1778412966190,0.9287645,0.0787820392,0.687616369,0.0683385374999999,0.1101510345,-0.168410591
474,1778412966200,0.8558764888888889,0.1087461838888888,0.7832096288888889,0.0890734061111111,0.2451618505555555,-0.1354723461111111
475,1778412966210,0.84565912,0.111366254,0.90300388,0.1835443199999999,0.39311075,-0.0948034965
476,1778412966220,0.8737942111111112,0.0851946722222222,1.022536,0.3161049611111111,0.4595098666666666,-0.0446427533333333
477,1778412966230,0.9451872533333332,0.0257941866666666,1.0758961333333332,0.5058069888888889,0.4790569588888889,0.0279038427777777
478,1778412966240,0.990405348,-0.023358069,1.07153512,0.677108904,0.4663513399999999,0.1254222135
479,1778412966250,0.98008764,-0.07607151,1.0249684,0.73813254,0.48394373,0.23097663
480,1778412966260,0.9964029422222224,-0.0590922,1.0360055555555556,0.6727718977777778,0.3666610588888889,0.3603405
481,1778412966270,0.99476224,0.0206140065,1.1261113799999998,0.6107709100000001,0.262572688,0.42840246
482,1778412966280,0.8128183933333334,0.2001268455555555,1.2535318555555557,0.6155558466666666,0.3228836733333333,0.42990922
483,1778412966290,0.76605076,0.23754434,1.2521768,0.62940174,0.39903596,0.42950198
484,1778412966300,0.808992276,0.3326047589999999,1.18908772,0.603135318,0.968834316,0.391690529
485,1778412966310,0.8268097222222222,0.3319875177777778,1.1244220777777778,0.3974833833333333,1.4032688666666666,0.2908396499999999
486,1778412966320,0.797738574,0.241541531,1.18939266,0.031382278,1.5557363599999998,0.231220962
487,1778412966330,0.8338426533333334,0.1725168433333333,1.2971624000000002,-0.2359312666666666,1.1838389777777776,0.2613832466666667
488,1778412966340,0.9070956,0.14308763,1.2846177,-0.37307495,0.84312195,0.28717458
489,1778412966350,0.920962304,0.1248426499999999,1.28989846,-0.5461890759999999,0.5043460319999999,0.29652054
490,1778412966360,0.91221786,0.10528053,1.1997042,-0.7678180377777778,0.3965925733333333,0.2220854077777777
491,1778412966370,0.8392562800000001,-0.0916212008,1.0370726959999998,-0.940552055,0.36146886,0.09384141
492,1778412966380,0.8238895,-0.21345758,0.97981334,-0.99491745,0.33123192,0.03672719
493,1778412966390,0.8009309,-0.31864664,0.8385246,-1.0993724,0.30435464,0.002519745
494,1778412966400,0.742616529,-0.2241990565,0.819511269,-1.1525161000000002,0.291755924,0.0143701806
495,1778412966410,0.63110393,-0.028233355,0.74211645,-1.2184876,0.1802763,0.06910209
496,1778412966420,0.574829276,0.071022438,0.156728655,-1.04897745,-0.3374167449999999,0.4591280399999999
497,1778412966430,0.6650049277777778,0.0460460501111111,-0.2472637666666667,-0.9914559777777776,-0.7773285577777779,0.7405589555555555
498,1778412966440,0.72845715,-0.014543531,-0.3153233,-1.0053018,-0.9369633,0.8149466
499,1778412966450,0.82667322,-0.1355658421,-0.2958251992,-0.938352992,-1.12657034,0.715989336
500,1778412966460,0.6984554,-0.19418816,-0.025641741,-0.8668431688888888,-0.9486373444444444,0.47884486
501,1778412966470,0.572685853,-0.071824313,0.0853342523,-0.7180815199999999,-0.5717377480000001,0.375930676
502,1778412966480,0.5270429266666666,0.0636114366666666,-0.0192389293333333,-0.34332162,-0.2851893033333333,0.2317910833333333
503,1778412966490,0.62448764,0.11747637,-0.22211662,-0.16164546,-0.24487339,0.1222458099999999
504,1778412966500,0.6857785444444445,-0.0536650555555555,-0.6008548555555556,0.0802500608888889,-0.2964560566666667,-0.1305770833333333
505,1778412966510,0.8221719866666667,-0.1771749766666666,-0.7947313166666666,0.28162604,-0.33975835,-0.1822361
506,1778412966520,0.920962256,-0.2146283819999999,-0.8806916300000001,0.5075988060000001,-0.444376121,-0.1480082924999999
507,1778412966530,0.8844689555555555,-0.1672353644444444,-0.7217054044444444,0.8513429666666666,-0.4955922644444445,-0.0487320372222222
508,1778412966540,0.8229139,-0.14147167,-0.63479316,1.0233983,-0.41957572,-0.04703524
509,1778412966550,0.8500157222222221,0.0314381468888888,-0.461043151111111,1.2150685222222224,0.1267253555555555,-0.1040476488888889
510,1778412966560,0.9998346944444444,0.1142207504444444,-0.5056968444444445,1.3997480111111111,0.7195271855555555,-0.3044734
511,1778412966570,1.02675496,0.1058323883,-0.58020459,1.42399186,0.8071430339999999,-0.3470223
512,1778412966580,1.1043022,-0.038477857,-1.1761053,1.313754222222222,0.7014732444444445,-0.5817980822222223
513,1778412966590,1.1018631,-0.14269125,-1.188545,1.1156361,0.25915194,-0.46302223
514,1778412966600,1.1944667111111111,-0.1280393133333333,-1.1385081666666668,1.073216211111111,0.0996105194444444,-0.3730919355555555
515,1778412966610,1.2819921333333335,-0.1114394333333333,-1.097503011111111,1.0392803,-0.0280226169999999,-0.3011477
516,1778412966620,1.2987953,-0.10534152,-1.0962834,0.89432621,0.125979611,-0.2280903609999999
517,1778412966630,1.4290976666666666,-0.0194625183888888,-1.099213911111111,0.6282479177777778,0.2915183804444444,-0.1556303044444444
518,1778412966640,1.4786534,-0.0050307815,-1.172416,0.33252996,0.1069746239999999,-0.16370706
519,1778412966650,1.3626811444444444,0.0006064037777777,-1.0880140077777776,0.1456107093333333,-0.1316630386666666,-0.1665576866666666
520,1778412966660,1.1977527,-0.0142996149999999,-0.91642547,-0.20448112,-0.53502584,-0.15026842
521,1778412966670,1.1857195,-0.0168065363333333,-0.8743362388888889,-0.3486410666666666,-0.6094134666666666,-0.1163324626666666
522,1778412966680,1.2238248444444446,-0.0518119657777777,-0.5679159,-0.528841,-0.702398,-0.073912516
523,1778412966690,1.2568111,-0.09119435,-0.37611952,-0.606907297,-0.5501137700000001,-0.1025001736
524,1778412966700,1.2330156555555556,-0.0746960944444444,-0.3063119155555556,-0.6602410288888889,-0.5348901111111111,-0.1470105777777778
525,1778412966710,1.1935574,-0.0624548649999999,-0.241315913,-0.68430164,-0.5730205500000001,-0.1707318109999999
526,1778412966720,1.0780811666666663,-0.0493999013333333,-0.2608756555555555,-0.6326850500000001,-0.8150653666666667,-0.1521688444444444
527,1778412966730,1.032716,-0.0390673185555555,-0.2255145177777777,-0.5971201677777778,-0.9137511311111112,-0.1210835066666666
528,1778412966740,1.00296088,-0.0062015814,-0.0874075334,-0.523160137,-0.966406176,-0.084235839
529,1778412966750,0.96151948,-0.020814222,-0.0428277033333333,-0.3958799277777778,-0.9063531244444446,-0.0366508366666666
530,1778412966760,0.942713496,-0.0452831284,-0.0558691153999999,-0.335813278,-0.859263583,-0.0071392769999999
531,1778412966770,0.9311857244444444,-0.0734460244444444,-0.0762171811111111,-0.2713349611111111,-0.8182553666666667,0.0537630436666666
532,1778412966780,0.9124889088888888,-0.0881047384444444,-0.0649970166666666,-0.2369238977777777,-0.8270786911111112,0.1153907435555555
533,1778412966790,0.90021714,-0.0750836508,-0.07460191,-0.228609589,-0.762199955,0.202511147
534,1778412966800,0.9136948555555556,-0.0414590606666666,-0.0780601077777777,-0.2361773011111111,-0.6831223722222223,0.2622655722222222
535,1778412966810,0.9210293000000002,-0.021403689,-0.07250423,-0.24296449,-0.6468109,0.27923355
536,1778412966820,0.941274436,-0.0245258218,-0.066418508,-0.2582357,-0.50448346,0.28412032
537,1778412966830,0.9755955333333332,-0.0372582706666666,-0.11310619,-0.2739819722222222,-0.3396904655555556,0.26212984
538,1778412966840,1.0001159666666668,-0.0593801579999999,-0.1304446011111111,-0.2895246333333333,-0.3164782577777777,0.2483518355555555
539,1778412966850,1.02073331,-0.0830963142,-0.079650985,-0.304049212,-0.309745368,0.225112488
540,1778412966860,1.0347555,-0.08924301,-0.06786981,-0.30221668,-0.30534726,0.20898612
541,1778412966870,1.0429402333333335,-0.08889069,-0.0474350166666666,-0.27404984,-0.2469095422222222,0.1605934466666666
542,1778412966880,1.0645133,-0.088511262,-0.045039212,-0.23758904,-0.156667052,0.1174812
543,1778412966890,1.0718309,-0.08704776,-0.0612840649999999,-0.22219568,-0.1196497099999999,0.10392039
544,1778412966900,1.0752456888888888,-0.0951241166666666,-0.1083362666666666,-0.1836698933333333,-0.1488346322222222,0.0843732766666666
545,1778412966910,1.06980631,-0.107122104,-0.1108509823999999,-0.1738624,-0.17218257,0.08192989
546,1778412966920,1.0868824,-0.1048536733333333,-0.043061456,-0.1241801535555555,-0.1832456933333333,0.0919070575555555
547,1778412966930,1.0951418,-0.0919532,-0.0125786471111111,-0.0549508006666666,-0.0939941233333333,0.0917034446666666
548,1778412966940,1.0853835,-0.074836685,-0.01247024,-0.0037414389,-0.0370631561,0.080830365
549,1778412966950,1.090683588888889,-0.0567716033333333,-0.0256586773333333,0.0600921016666666,0.0283110727777777,0.0618398013333333
550,1778412966960,1.1018631,-0.04896627,-0.03640456,0.07841752,0.05444176,0.051998373
551,1778412966970,1.11018064,-0.0512103065,-0.0410145898,0.0905122945,0.115221061,0.0163707065
552,1778412966980,1.1050340333333333,-0.0674429633333333,-0.0578692323333333,0.0930778486666666,0.1360916816666667,-0.0236194279999999
553,1778412966990,1.1072021666666667,-0.0774808133333333,-0.0594953444444444,0.085611938,0.1088071705555555,-0.0491392711111111
554,1778412967000,1.1216203,-0.082169433,-0.044859327,0.0806776514999999,0.0347724816999999,-0.068231641
555,1778412967010,1.1157663,-0.074065975,-0.0240427306666666,0.0814717544444444,-0.0166201350777777,-0.0840933077777777
556,1778412967020,1.0871365666666666,-0.0762341233333333,-0.0137711286666666,0.0932814677777777,0.0041486711222222,-0.1166718277777777
557,1778412967030,1.06353765,-0.069470515,-0.03699911,0.10040802,0.0339172954,-0.137929314
558,1778412967040,1.0544856666666669,-0.0638451866666666,-0.039622908,0.1030550233333333,0.040392276,-0.1461961133333333
559,1778412967050,1.0476017666666668,-0.0744250733333333,-0.0155598505333333,0.1105209311111111,0.050301574,-0.15026842
560,1778412967060,1.04617083,-0.077092914,0.00145740206,0.13021736,0.0976897479999999,-0.150146251
561,1778412967070,1.047927,-0.06433302,-0.004908823,0.15110834,0.16256173,-0.14904673
562,1778412967080,1.0479812222222222,-0.0584315924444444,-0.0581707387777777,0.1786643355555555,0.1244177106977778,-0.1451101588888889
563,1778412967090,1.04134125,-0.07912047,-0.0509023615,0.2259982159999999,-0.0264344141159999,-0.1342642279999999
564,1778412967100,1.0403655333333337,-0.08542165,-0.032725486,0.2531198366666667,-0.0821844066666666,-0.1240019966666666
565,1778412967110,1.0345116,-0.08655993,-0.042990312,0.27511033,-0.11231954,-0.1203369099999999
566,1778412967120,1.012553,-0.1004875688,-0.090124159,0.302109782,-0.184521684,-0.089916712
567,1778412967130,1.0100894666666669,-0.0942297511111111,-0.1021299433333333,0.3049061066666667,-0.2100550966666666,-0.0705867911111111
568,1778412967140,1.0151303,-0.0884299566666666,-0.1045691066666666,0.2990691244444444,-0.1763906233333333,-0.0426065972666666
569,1778412967150,1.0113089599999998,-0.088023429,-0.12813248,0.2736443,-0.0167830299999999,0.0033749312399999
570,1778412967160,1.0027719,-0.07607151,-0.16110696,0.2384594999999999,0.08192989,0.031229567
571,1778412967170,0.9919312333333332,-0.0610841855555555,-0.1921114844444444,0.2194553577777777,0.1052778322222222,0.0469758505555555
572,1778412967180,0.99950346,-0.0479418196,-0.175790744,0.181039852,0.109173681,0.08315158
573,1778412967190,1.0350502888888888,-0.0439287138888888,-0.1210775244444444,0.1804290122222222,0.0545775044444444,0.0889206968888888
574,1778412967200,1.063700211111111,-0.0860178922222222,-0.0978749533333333,0.2204055744444444,0.0558670731111111,0.0467043623333333
575,1778412967210,1.0591471,-0.09948751,-0.1191228,0.25556323,0.058717694,0.0153475379999999
576,1778412967220,1.0637002666666666,-0.099080985,-0.2106423733333333,0.3108788255555555,-0.0123442041111111,-0.0257913286666666
577,1778412967230,1.0645403777777778,-0.0966418144444444,-0.2684099711111111,0.3439324555555555,-0.1243328688888888,-0.0519898887777777
578,1778412967240,1.0775629,-0.099975345,-0.29556602,0.36050678,-0.2156748959999999,-0.070247432
579,1778412967250,1.0776035666666666,-0.1043658446666666,-0.3263096766666666,0.3674840133333333,-0.2480633577777777,-0.0843647933333333
580,1778412967260,1.0676843,-0.103878014,-0.35950267,0.35940725,-0.2399866099999999,-0.09101624
581,1778412967270,1.0504475,-0.0900560713333333,-0.38716689,0.35940725,-0.23998661,-0.09101624
582,1778412967280,1.035948011111111,-0.0535261586666666,-0.3875293977777778,0.2345907977777777,-0.2127699755555555,-0.0936632476666666
583,1778412967290,1.004235428,-0.023001343,-0.387339674,0.1186723545,-0.1409071952,-0.0994459355
584,1778412967300,0.97716068,-0.010396948,-0.40571472,-0.0969635183333333,0.0558670717777777,-0.0933917566666666
585,1778412967310,0.9742337,-0.006006448,-0.4161218,-0.15920207,0.09720107,-0.08674031
586,1778412967320,0.9739288,-0.0051967802222222,-0.4233105844444444,-0.3989172044444444,0.1263859966666666,-0.0400189786111111
587,1778412967330,0.9759715777777777,-0.0046039277777777,-0.4318646411111111,-0.5657633444444444,0.1075854753333333,0.0153475366666666
588,1778412967340,0.987527125,-0.040673107,-0.367811095,-0.6989008999999999,-0.0955823267999999,0.145335828
589,1778412967350,0.9890583544444446,-0.0333014025555555,-0.3296771055555555,-0.7369363333333333,-0.2377468466666666,0.2163162799999999
590,1778412967360,0.98960036,-0.024086772,-0.3155672,-0.7426376,-0.33588964,0.2566322
591,1778412967370,0.997283816,0.0155283449999999,-0.3078106459999999,-0.778249967,-0.405709477,0.268665891
592,1778412967380,1.025378288888889,0.0426718666666666,-0.2941296211111111,-0.8312782688888889,-0.4198471933333333,0.25778603
593,1778412967390,1.06873316,0.058930267,-0.274140987,-0.91782852,-0.3853682699999999,0.181192563
594,1778412967400,1.0417884666666668,0.0653290188888889,-0.2210189933333333,-0.9710944333333332,-0.4174038222222222,0.1261823755555555
595,1778412967410,1.0164313,0.06329638,-0.17940071,-0.9863656,-0.4360686,0.10819632
596,1778412967420,0.97464836,0.0273796476,-0.0753336636,-0.943484125,-0.4884792779999999,0.1184585538
597,1778412967430,0.96688575,-0.012348281,-0.021251239,-0.8660287,-0.5735092,0.13629529
598,1778412967440,0.96688575,-0.012348281,-0.021251239,-0.8660287,-0.5735092,0.13629529
599,1778412967450,0.96688575,-0.012348281,-0.021251239,-0.8660287,-0.5735092,0.13629529
600,1778412967460,0.96688575,-0.012348281,-0.021251239,-0.8660287,-0.5735092,0.13629529
601,1778412967470,0.96688575,-0.012348281,-0.021251239,-0.8660287,-0.5735092,0.13629529
602,1778412967480,1.002517916666667,-0.0323697756666666,-0.1883544796666666,-0.5573472066666666,-0.8878919333333334,0.3105903766666666
603,1778412967490,1.020334,-0.042380523,-0.2719061,-0.40300646,-1.0450833,0.39773792
604,1778412967500,1.020334,-0.042380523,-0.2719061,-0.40300646,-1.0450833,0.39773792
605,1778412967510,1.020334,-0.042380523,-0.2719061,-0.40300646,-1.0450833,0.39773792
606,1778412967520,1.020334,-0.042380523,-0.2719061,-0.40300646,-1.0450833,0.39773792
607,1778412967530,0.9997365555555556,0.006978727,-0.1908207499999999,-0.3782332155555555,-0.6975790888888889,0.42217182
608,1778412967540,0.922995965,-0.0180254407,-0.0453867946,-0.218797853,-0.05783196972,0.324924932
609,1778412967550,0.9127463622222224,-0.0598747655555555,-0.0492339038888888,-0.0905835624444444,0.2175040466666666,0.23498106
610,1778412967560,0.9333098577777778,-0.0892159088888888,-0.0863566677777777,-0.0180963498888888,0.3330644788888889,0.19120367
611,1778412967570,0.982161015,-0.1093661425,-0.1542620549999999,0.093566529,0.420049122,0.119558086
612,1778412967580,0.98155123,-0.106317185,-0.1952553,0.1659722933333333,0.3140603333333333,0.1010018977777777
613,1778412967590,0.9833128244444445,-0.0888364877777777,-0.1975589611111111,0.18959172,0.23044212,0.106974624
614,1778412967600,0.99569833,-0.027013771,-0.15549688,0.26350424,0.14912309,0.1228566539999999
615,1778412967610,0.99569833,-0.027013771,-0.15549688,0.26350424,0.14912309,0.1228566539999999
616,1778412967620,0.9792068655555556,-0.0387692016666666,-0.2491473177777778,0.3237066244444444,0.1853412377777777,0.1657517068888888
617,1778412967630,0.968870552,-0.091328502,-0.303200615,0.351466244,0.21370491,0.203610662
618,1778412967640,0.9930151933333332,-0.1701013833333333,-0.2767742966666666,0.3437288566666667,0.26017003,0.2739395333333333
619,1778412967650,1.024351722222222,-0.2388587811111111,-0.2205921455555555,0.34562925,0.3030650788888888,0.3344812777777778
620,1778412967660,1.045244,-0.27739424,-0.17427845,0.35513133,0.32634515,0.3482593
621,1778412967670,1.0860288111111112,-0.2730850533333333,-0.0650308912222222,0.4061031444444444,0.2582017433333333,0.3424223044444444
622,1778412967680,1.118612022222222,-0.2537072177777777,0.0187307672222222,0.45836452,0.19684553,0.3226037
623,1778412967690,1.1268307000000002,-0.2333943855555555,0.0240867705555555,0.4703778466666667,0.1776801999999999,0.3107939933333333
624,1778412967700,1.1922434,-0.173375964,-0.016693047,0.547975826,0.0902984936,0.2058708
625,1778412967710,1.2172967,-0.13561767,-0.043722063,0.57931226,0.08315159,0.1338519
626,1778412967720,1.213275388888889,-0.09932829,-0.1170427381111111,0.6215286066666666,0.0637402134444444,0.0299145464444444
627,1778412967730,1.14529852,-0.130574698,-0.190876992,0.6345328520000001,-0.0424997001,-0.0527161178
628,1778412967740,1.0480929444444445,-0.2071665755555555,-0.2213306666666666,0.6125016400000001,-0.2491493333333333,-0.10547296
629,1778412967750,0.9806161555555556,-0.2833431055555555,-0.18357778,0.5577290066666667,-0.39514182,-0.1085271966666666
630,1778412967760,0.9715201,-0.3105974,-0.11741538,0.51578414,-0.42324078,-0.09345963
631,1778412967770,0.9879641333333332,-0.28080908,0.0208040616666666,0.47465377,-0.1907115986666666,-0.1276670766666666
632,1778412967780,0.9898443,-0.23809317,0.14202048,0.43026555,0.091092594,-0.17409147
633,1778412967790,0.944103874,-0.164247385,0.126739098,0.348534164,0.330254556,-0.229434232
634,1778412967800,0.9350952433333334,-0.1129571296666666,0.0535735855555555,0.2351337755555556,0.2644289933333333,-0.2390448999999999
635,1778412967810,0.9595682,-0.082413346,0.00801876,0.15294088,0.13324106,-0.24189551
636,1778412967820,0.95373856,-0.0770654703,-0.0052015233499999,0.0845259895999999,-0.04304946,-0.233465826
637,1778412967830,0.9481041,-0.07091877,-0.016616823,0.036269058,-0.21310934,-0.20341213
638,1778412967840,0.9270662833333334,-0.0925494333333333,-0.0305268489999999,0.0151608891111111,-0.2944877755555555,-0.17422721
639,1778412967850,0.8824844580000001,-0.145081633,-0.0484692929,-0.0721563332,-0.432220234,-0.132981454
640,1778412967860,0.9044125266666668,-0.1625298133333333,-0.0155598518666666,-0.13843326,-0.4916556799999999,-0.12827793
641,1778412967870,0.9021359733333332,-0.1484639533333333,0.0216882569333333,-0.1871822688888889,-0.4014539044444444,-0.1748380544444444
642,1778412967880,0.878118314,-0.128635557,0.070107748,-0.2317249079999999,-0.3297811599999999,-0.2225927399999999
643,1778412967890,0.88611877,-0.096804425,0.09588974,-0.28022618,-0.27419407,-0.2490220666666666
644,1778412967900,0.8758743,-0.03286777,0.14003865,-0.35963634,-0.24609509,-0.299926
645,1778412967910,0.8417564399999999,-0.0167509768,0.194224746,-0.423836379,-0.15031424178,-0.342013377
646,1778412967920,0.7388371333333333,0.0323223475555555,0.2774247122222222,-0.49829865,0.0031305922,-0.40560257
647,1778412967930,0.6823264,0.044270877,0.3096522,-0.49829865,0.0031305922,-0.40560257
648,1778412967940,0.6852534,0.0288309514,0.2868216,-0.427929042,0.13507359844,-0.4070686099999999
649,1778412967950,0.72555048,-0.0292564487777777,0.27935234,-0.3320803222222222,0.1326980811111111,-0.2919171122222222
650,1778412967960,0.7381325222222223,-0.0831010531111111,0.2727394955555555,-0.2769004644444444,0.0931287558888888,-0.1823039644444444
651,1778412967970,0.755303165,-0.170253835,0.2668448499999999,-0.205091972,0.034650311,0.0232427359999999
652,1778412967980,0.77019733,-0.18318142,0.2757478,-0.1885991,0.025121093,0.0782648
653,1778412967990,0.7430955555555555,-0.2274726133333333,0.3618537844444444,-0.1218131264444444,0.0923227825555555,0.2065427233333333
654,1778412968000,0.8042085099999999,-0.250724999,0.357962969,-0.066231114,0.219080372,0.432311856
655,1778412968010,0.8465737,-0.24370325,0.39947453,-0.06513159,0.2121167,0.5144097
656,1778412968020,0.8777341111111112,-0.21955211,0.3756587822222222,-0.0535254914444444,0.1784183,0.5692502277777778
657,1778412968030,0.8914849,-0.18488884,0.3389527,-0.04692834,0.1224901539999999,0.6469636
658,1778412968040,0.9613060555555556,-0.1560219644444444,0.3090051644444444,-0.0694075188888888,0.1060244211111111,0.6479138222222223
659,1778412968050,1.0500239666666669,-0.1132823528888888,0.3404703999999999,-0.0956739553333333,0.0792828833333333,0.6046115
660,1778412968060,1.08213018,-0.0980727939999999,0.349678936,-0.0642153171,0.059633963,0.575677726
661,1778412968070,1.071302311111111,-0.1028210362222222,0.2854231688888889,-0.0058794046666666,-0.02985516,0.49771324
662,1778412968080,1.0484148,-0.1197325899999999,0.2652594,0.00633754,-0.01641652,0.437443
663,1778412968090,1.0176508,-0.15610667,0.17251006,-0.025426516,0.05505261,0.3989596
664,1778412968100,1.0125285333333334,-0.1712396666666666,0.1688513133333333,-0.065335204,0.0638080866666666,0.38613181
665,1778412968110,0.9978123177777776,-0.1442055628888889,0.2649070566666667,-0.18363595,0.091092594,0.34153998
666,1778412968120,0.964217815,-0.076422142,0.248169965,-0.0978119144,0.0519372874,0.343128178
667,1778412968130,0.9324087344444444,-0.0492914971111111,0.2175262311111111,-0.019928891,0.022066858,0.33909658
668,1778412968140,0.8985111277777779,-0.0854589188888888,0.1734857333333333,0.0102741111111111,0.0794186277777777,0.3001381
669,1778412968150,0.99314934,-0.1538870259999999,0.151621652,-0.0235939768,0.216698068,0.253700142
670,1778412968160,1.0630260444444444,-0.1519058833333333,0.1357057488888889,-0.07734854,0.3306211,0.16867019
671,1778412968170,1.1316818888888889,-0.1475086111111111,0.2038330333333333,-0.1915769711111111,0.3322499977777778,-0.0768225257777777
672,1778412968180,1.1472621,-0.106317185,0.35188028,-0.19165333,0.24265908,-0.2870982
673,1778412968190,1.0712244666666666,-0.1081363927777777,0.4054132233333333,-0.0749136288888889,0.1625702126666666,-0.5187450833333334
674,1778412968200,0.8176493333333332,-0.15847131,0.4439012255555555,0.2506764466666666,0.1086035542222222,-0.8325848
675,1778412968210,0.7616603,-0.21199408,0.26964986,0.35329878,0.08009735,-0.8325848
676,1778412968220,1.0013626288888888,-0.1962614444444444,0.2132509222222222,0.3231636599999999,0.3013937322222222,-0.8119517333333334
677,1778412968230,1.1565309,-0.16074108,0.15324064,0.29465744,0.46378577,-0.8093726
678,1778412968240,1.1988606000000002,-0.1083565877777777,0.1236217111111111,0.2742279866666666,0.4989434488888888,-0.8207751022222223
679,1778412968250,1.1326169666666666,0.0059454686666666,0.21040862,0.3125756355555555,0.2379589411111111,-0.6937188666666667
680,1778412968260,1.10183565,0.0376089016999999,0.2487187839999999,0.298200354,0.102576526,-0.472062774
681,1778412968270,1.0949316999999998,0.0512631533333333,0.2254806366666666,0.2543415333333333,0.12163496,-0.2388412833333333
682,1778412968280,1.1343039,0.053051874,0.15128931,0.20180866,0.17050274,-0.1203369099999999
683,1778412968290,1.1974851444444443,0.03470392,0.0709526457777777,0.0856119386666666,0.1661589488888889,-0.0175618573333333
684,1778412968300,1.2409294333333332,0.0025509621111111,0.0169691474444444,-0.0225758973333333,0.0949612966666666,0.0607538533333333
685,1778412968310,1.19666741,-0.0597809284,0.0918620679999999,-0.14664916,0.09097043,0.142770282
686,1778412968320,1.1196689444444443,-0.0990267808888888,0.2268323433333333,-0.1987798866666666,0.1485970822222222,0.2172665011111111
687,1778412968330,1.0923502,-0.11021984,0.30160296,-0.1873774,0.23227467,0.28045526
688,1778412968340,1.13655709,-0.1171714694,0.308938758,-0.146068857,0.3964704209999999,0.353695838
689,1778412968350,1.2182553,-0.12233437,0.2728682311111111,-0.1225512299999999,0.4429491166666667,0.4209501155555555
690,1778412968360,1.339315933333333,-0.1254239899999999,0.2113233066666666,-0.1390441033333333,0.22512268,0.5219435333333333
691,1778412968370,1.44191948,-0.116610468,0.2473315159999999,-0.175832376,-0.0016340159999999,0.5550921799999999
692,1778412968380,1.4715798,-0.08851126,0.2977003,-0.19104248,-0.2112768,0.5296809
693,1778412968390,1.3560480222222224,-0.0732427566666666,0.3869128333333333,-0.1487582755555555,-0.1436084886666666,0.3949551644444444
694,1778412968400,1.2521524200000005,-0.07704718,0.4215246119999999,-0.096040456,-0.0081089967999999,0.240994506
695,1778412968410,1.1965535333333337,-0.0811124566666666,0.4055724466666667,-0.05596888,0.07398888,0.14912309
696,1778412968420,1.1750143555555554,-0.0995417166666666,0.3444577577777778,0.0324003566666666,0.2911196366666667,-0.0684148946666666
697,1778412968430,1.1889718,-0.1124151,0.30404213,0.0269841770499999,0.315288823,-0.113861932
698,1778412968440,1.239818366666667,-0.1391951133333333,0.3865028988888889,0.0078307224444444,0.2023007266666666,-0.1588881633333333
699,1778412968450,1.2488703,-0.1333546688888889,0.4922882222222222,0.0234412633333333,0.15645325,-0.1675757722222222
700,1778412968460,1.19410626,-0.100609528,0.6133589620000001,0.1558729499999999,0.046989426,-0.179955602
701,1778412968470,1.1319562666666667,-0.0661420686666666,0.7105597466666667,0.36775551,-0.07831571,-0.2005615133333333
702,1778412968480,1.071099,-0.030184686,0.7733683,0.48218757,-0.10315683,-0.22418094
703,1778412968490,0.94914379,0.021080499,0.7015744749999999,0.6806518340000001,-0.121909839,-0.334072363
704,1778412968500,0.8943848777777779,0.0352324088888888,0.5982530722222221,0.7870682155555556,-0.0677276900888888,-0.4694700522222221
705,1778412968510,0.8751426,0.02423922,0.5383241,0.80166066,-0.0035887277,-0.54854083
706,1778412968520,0.84003987,-0.0381333229,0.479345026,0.76256644,0.25497527969,-0.6608756689999999
707,1778412968530,0.7923938,-0.092170015,0.481461,0.6196282,0.6537593,-0.7629482
708,1778412968540,0.7867837179999999,-0.0869440995,0.5561208480000001,0.5120579679999999,0.652843004,-0.735093569
709,1778412968550,0.7706039266666667,-0.031150195,0.7112915133333334,0.3848592233333333,0.5032872133333333,-0.6481089366666667
710,1778412968560,0.8278633666666666,0.0681374427777777,0.8117851755555556,0.3182768611111111,0.2709531736666666,-0.5541063377777777
711,1778412968570,0.96762962,0.2187444659999999,0.9718067,0.274377302,-0.0746913462,-0.547319144
712,1778412968580,0.9961862,0.25388676,1.0344812,0.28427303,-0.11170869,-0.5803049
713,1778412968590,0.9689420066666666,0.2051169844444444,1.1236191,0.3371452633333333,0.2136268566666666,-0.7370890077777779
714,1778412968600,0.924807046,0.1197142958,1.078751995,0.347740069,0.483088551,-0.805829696
715,1778412968610,0.8652944,-0.0447282196666666,0.94841915,0.2698163133333333,0.8714245066666666,-0.8085581333333334
716,1778412968620,0.81231568,-0.106170829,0.96673321,0.203030354,1.05820124,-0.7423626750000001
717,1778412968630,0.7960525,-0.09899968,1.0452133,0.17737478,1.1595408,-0.68292725
718,1778412968640,0.9399972666666666,0.0139642284444444,1.0797208444444444,0.1556557595555555,1.138907777777778,-0.5341520055555555
719,1778412968650,1.01560806,0.0771081572,0.98514898,0.08709154721,0.97304921,-0.441642575
720,1778412968660,1.0478356,0.12658259,0.9627390666666664,-0.0373889419,0.6744602266666667,-0.3722774611111111
721,1778412968670,1.0210657333333333,0.1382905833333333,1.0822379666666666,-0.2095715133333333,0.1642415598,-0.21725801
722,1778412968680,1.0049672,0.14967337,1.1015887,-0.2421704029999999,-0.01757712954,-0.071644747
723,1778412968690,0.8517536333333333,0.1659243188888889,1.263989788888889,-0.2493444666666666,-0.1307128277777777,0.2309087444444444
724,1778412968700,0.7876509822222222,0.1654161611111111,1.2993780111111113,-0.2284399111111111,-0.0374568144444444,0.3306804577777777
725,1778412968710,0.7754415600000001,-0.0377461,1.06841597,-0.20178576,0.075088401,0.399326113
726,1778412968720,0.7961135055555556,-0.23013876,0.9282790511111112,-0.1410802666666666,0.1233317644444444,0.5646349466666667
727,1778412968730,0.85608655,-0.3166953,0.82901174,-0.10972344,0.08437328,0.6121453
728,1778412968740,0.9817035722222222,-0.4008465444444444,0.8571977488888889,-0.0657424355555555,0.0718848444444444,0.6751304555555556
729,1778412968750,1.0316828,-0.38132305,0.8079265666666666,-0.0460595794444444,0.0956400155555555,0.6799493555555556
730,1778412968760,1.01702886,-0.2654788899999999,0.595540832,0.0429272895999999,0.154376374,0.614161091
731,1778412968770,0.8896419666666665,-0.1975149044444444,0.4250891777777777,0.1174438655555555,0.0141937144444444,0.4671030077777777
732,1778412968780,0.8712399,-0.14000817,0.22522657,0.118122585,-0.087274805,0.40567893
733,1778412968790,0.8717886690000001,-0.094276849,0.0447648079999999,0.1208103175,-0.2573957705,0.277767509
734,1778412968800,0.749373,-0.1627025833333333,-0.2413860333333333,0.1144575,-0.18745375,0.21937053
735,1778412968810,0.7169931,-0.19735907,-0.33169618,0.0727366394,-0.1042563586,0.252111934
736,1778412968820,0.7430922,-0.2490998999999999,-0.398072,-0.016874656,-0.026190076,0.32687965
737,1778412968830,0.8148646,-0.263491,-0.5096029,0.019165333,0.13812783,0.31771693
738,1778412968840,0.8239382800000001,-0.1921758575999999,-0.520292548,0.1256970921,0.380641825,0.205687541
739,1778412968850,0.8604634622222223,0.0352561222222222,-0.5167273177777778,0.3937504388888889,0.7555671511111111,0.0392384528888888
740,1778412968860,0.97947112,0.0814546173333333,-0.6816420844444444,0.563769588888889,0.9959694622222222,0.0112752223333333
741,1778412968870,1.27556223,-0.0045490479,-1.031831558,1.0018964,1.4525031,0.0361163444
742,1778412968880,1.365415,-0.14635001,-1.1553417,1.160228,1.5150539,0.011682454
743,1778412968890,1.37838526,-0.292700012,-1.2072503099999998,1.25203832,1.45952791,-0.0259151948099999
744,1778412968900,1.4168204444444443,-0.24409961,-1.192196866666667,1.326989277777778,1.379378,-0.0830073533333333
745,1778412968910,1.3634638,-0.18220575,-1.1631471,1.3526449,1.3470709,-0.131943
746,1778412968920,1.22866316,-0.038923005,-1.10604008,1.62373892,1.10566414,-0.129866126
747,1778412968930,1.2175406,-0.079730265,-1.1031132,1.6696746,1.0074399,-0.13377555
748,1778412968940,1.3061229666666665,-0.2576979466666667,-0.8380977000000001,1.6953302,0.6348060755555556,-0.18033569
749,1778412968950,1.4093078599999995,-0.295444052,-0.93805478,1.6126215299999995,0.1089293384,-0.40175426
750,1778412968960,1.3208460333333332,-0.27487377,-0.92425788,1.4453579444444444,-0.0622300659999999,-0.5753502666666667
751,1778412968970,1.2683599333333335,-0.2459222111111111,-0.9595851233333332,1.3552240333333332,-0.3202112266666666,-0.6276115777777778
752,1778412968980,1.2839165,-0.21857983,-1.011614,1.2659045,-0.51975465,-0.56442285
753,1778412968990,1.2909493444444446,-0.1830493011111111,-0.995139421111111,1.0866548111111112,-0.4437381091111111,-0.4854199433333332
754,1778412969000,1.1509209,-0.11412251,-0.97914255,0.6391753,-0.024968382,-0.35734564
755,1778412969010,1.0771496111111114,-0.0939587322222222,-0.976107127777778,0.5084539866666666,0.025121094,-0.3329117466666667
756,1778412969020,1.0658955666666667,-0.0737034866666666,-0.9637656166666666,0.2087061533333333,-0.0327057786666666,-0.31010678
757,1778412969030,1.0618303,-0.03823394,-0.93984145,-0.3804662129999999,-0.255074552,-0.28893074
758,1778412969040,0.938696408888889,0.0634251088888888,-0.5843599955555555,-1.2162478044444445,-0.7510621511111111,-0.2330042955555555
759,1778412969050,0.8615069200000001,0.0653019047777777,-0.3972521577777778,-1.7174819666666667,-1.1398324555555557,-0.1626889944444444
760,1778412969060,0.82509996,0.0191779481,-0.1812697238,-1.82200466,-1.31947594,-0.077562328
761,1778412969070,0.7420791999999999,-0.0569342195555555,-0.0237039566666666,-1.8250588666666667,-1.4549618000000002,0.09903361
762,1778412969080,0.69382095,-0.067503944,-0.067625895,-1.7725259999999998,-1.4268628,0.18821731
763,1778412969090,0.7642519333333334,-0.1045182963333333,-0.042492317,-1.6406508777777775,-1.2960736444444445,0.36278388
764,1778412969100,0.8612156011111112,-0.1265622666666666,0.0112438808888888,-1.5276442,-1.110511866666667,0.50232853
765,1778412969110,0.902665446,-0.1108052485,0.024199582,-1.4695458,-1.0279796,0.53273517
766,1778412969120,0.95151895,-0.078022845,0.038051,-1.2182160666666666,-0.6861087133333333,0.5533682499999999
767,1778412969130,1.0139921,-0.04969802,0.10906124,-1.045007,-0.42873842,0.46920705
768,1778412969140,1.06040942,-0.0470149359999999,0.138203186,-0.95985488,-0.3576358,0.397188157
769,1778412969150,1.1097192,-0.0681306644444444,0.18663352,-0.7041542,-0.16973919,0.1790546
770,1778412969160,1.06353765,-0.109991175,0.189721435,-0.4549284939999999,-0.166074094,0.0534644048559999
771,1778412969170,1.0479540555555555,-0.1547515788888888,0.1357463988888889,-0.2318674344444444,-0.2019783377777778,-0.0014846981222222
772,1778412969180,1.0579817222222223,-0.1718528477777777,0.0717013397111111,-0.1226869748888889,-0.2484706011111111,-0.0022991609555555
773,1778412969190,1.0649767799999998,-0.1763517499999999,0.00096956883,-0.0391094952,-0.33381276,0.0217003492
774,1778412969200,1.0329871555555554,-0.1340389835555555,-0.0224708218888888,0.00633754,-0.40369368,0.05688515
775,1778412969210,1.0328584333333335,-0.0950123162222222,-0.0054779616222222,0.008780929,-0.38292488,0.0898709
776,1778412969220,1.06444024,-0.0459173125999999,-0.01132383192,-0.0275033975,-0.220439502,0.127010415
777,1778412969230,1.0728065,-0.04677102,-0.023446491,-0.060855657,-0.15202461,0.1338519
778,1778412969240,1.0705672000000002,-0.0493185964444444,-0.0072124811111111,-0.1109451345555555,-0.1626126322222222,0.1753895155555555
779,1778412969250,1.0940578,-0.044331856,0.01387276,-0.1506502,-0.21433103,0.23036577
780,1778412969260,1.114411211111111,-0.0800656477777777,0.0181142001666666,-0.1613739622222222,-0.2733117366666666,0.2491662911111111
781,1778412969270,1.1075544666666666,-0.1089189533333333,0.0332539713333333,-0.1772559877777778,-0.2913656466666666,0.2545960333333333
782,1778412969280,1.1130832,-0.11021984,0.040734082,-0.17202985,-0.27663746,0.25602135
783,1778412969290,1.098275433333333,-0.08882632,0.0662741906666666,-0.1455598111111111,-0.2698502566666667,0.2582611311111111
784,1778412969300,1.0867097,-0.06896744,0.09149924,-0.1094180179999999,-0.224776519,0.256998701
785,1778412969310,1.0822243555555555,-0.08189841,0.0531196322222222,-0.0400868514333333,-0.20842618,0.2317910833333333
786,1778412969320,1.0894233,-0.08704776,0.05366167,0.0051158457,-0.22960222,0.21875967
787,1778412969330,1.09025264,-0.10241451,0.0543446348,0.091611818,-0.248904998,0.19200456
788,1778412969340,1.0964969,-0.0932269833333333,0.0543121113333333,0.1561987333333333,-0.2222720466666666,0.1432182286666666
789,1778412969350,1.0984483,-0.08070593,0.039026666,0.1944785,-0.190508,0.098422766
790,1778412969360,1.09082881,-0.0806327525,0.0183638765,0.223921334,-0.184521684,0.0595728802
791,1778412969370,1.0834032666666669,-0.0727041061111111,0.0226334338888888,0.2588889455555556,-0.1556896955555555,0.0173836948666666
792,1778412969380,1.076953,-0.06945527,0.037075333,0.27144524,-0.13431004,0.0031305922
793,1778412969390,1.0592284333333335,-0.0846797366666666,0.012582035,0.2827798577777777,-0.1051251155555555,-0.0148300140222222
794,1778412969400,1.0457318,-0.09436526,-0.020275572,0.2940466,-0.06345176,-0.037261683
795,1778412969410,1.05865937,-0.0682631276,-0.0530488281999999,0.290381515,-0.0404839023,-0.0295650081
796,1778412969420,1.0621554333333334,-0.064712448,-0.0775180755555555,0.2912638433333334,-0.061890706,-0.0166795234888888
797,1778412969430,1.0598788,-0.06433302,-0.073723815,0.29221407,-0.09704836,-0.0066429637
798,1778412969440,1.05480551,-0.078809475,-0.0889320174999999,0.280302535,-0.138891396,0.01925696033
799,1778412969450,1.061044322222222,-0.08981215,-0.11302489,0.2623504033333333,-0.1442193377777778,0.0271572514444444
800,1778412969460,1.0722170111111111,-0.0835787211111111,-0.1277140944444444,0.2322152766666666,-0.1448980544444444,0.0153305694444444
801,1778412969470,1.08755736,-0.079291212,-0.118732542,0.18629314,-0.0872748030999999,-0.0302369388
802,1778412969480,1.0652992666666663,-0.0781583533333333,-0.1278292766666666,0.1700446,-0.035963632,-0.06658235
803,1778412969490,1.0538298,-0.0716139384,-0.166180422,0.124536488,0.057801422,-0.135608088
804,1778412969500,1.0574398,-0.067503944,-0.17427845,0.104208848,0.0663872182222222,-0.1563768933333333
805,1778412969510,1.0562201333333334,-0.05766597,-0.1471122466666666,0.0633499523333333,0.0764322626666666,-0.18976988
806,1778412969520,1.04675619,-0.06734235,-0.129562439,0.0359636324,0.1269493307999999,-0.2185611489999999
807,1778412969530,1.0440243,-0.07777893,-0.12887947,0.025273805,0.17355698,-0.22967857
808,1778412969540,1.0412870444444442,-0.0985660488888889,-0.1685802966666666,0.0297533514444444,0.1377206066666666,-0.2300858011111111
809,1778412969550,1.04065829,-0.110975983,-0.196063272,0.033825666,0.09597938,-0.2278460299999999
810,1778412969560,1.0403045444444443,-0.1158299357777777,-0.2196503611111111,0.0474000517777777,-0.0442440057777777,-0.1932313455555555
811,1778412969570,1.01387015,-0.1153420955,-0.259816975,0.0565491848,-0.196372122,-0.1502684299999999
812,1778412969580,0.997595477777778,-0.1218465372222222,-0.2744265588888889,0.0452960198888888,-0.2350998388888888,-0.1305855677777777
813,1778412969590,0.9999804111111112,-0.1047181723333333,-0.2737761411111111,-0.025494388,-0.2192178111111111,-0.1045227511111111
814,1778412969600,1.0059428,-0.081681594,-0.26483253,-0.05780142,-0.1996707,-0.09773556
815,1778412969610,0.9943432777777778,-0.0311603564444444,-0.2227670611111111,-0.1468154422222222,-0.0464159091111111,-0.068143406
816,1778412969620,0.9835838,-0.0205635312222222,-0.2274827844444444,-0.2065851511111111,0.0589213073333333,-0.0433701567777777
817,1778412969630,0.9842341999999998,-0.033355605,-0.24894746,-0.23807772,0.08009735,-0.023823043
818,1778412969640,0.9900882444444444,-0.0348733094444444,-0.2706018288888889,-0.2918322844444445,0.0416818422222222,0.0173158239999999
819,1778412969650,0.999601,-0.02774552,-0.2862972,-0.32115296,-0.026190076,0.037948888
820,1778412969660,0.99472268,-0.0318433208,-0.28463856,-0.330315668,-0.0954601504,0.0390484132
821,1778412969670,0.97276338,-0.087589802,-0.3000649355555556,-0.34314343,-0.1930871222222222,0.0518626299999999
822,1778412969680,0.979706495,-0.1113174745,-0.3176557299999999,-0.344792722,-0.183116733,0.0519983714999999
823,1778412969690,0.9844916833333331,-0.1007612994444444,-0.3119795822222222,-0.34843746,-0.1279979533333333,0.0367271906666666
824,1778412969700,0.9706799222222222,-0.0835719522222222,-0.2994686933333333,-0.3493198066666667,-0.0567324433333333,0.0226098328888888
825,1778412969710,0.96273908,-0.04916141,-0.292248756,-0.374541004,0.072278502,0.0122933016
826,1778412969720,0.9655848,-0.0159460526666666,-0.2839393333333333,-0.41094749,0.1650305666666666,0.004963134
827,1778412969730,0.9739999111111112,0.0014736631111111,-0.2784105644444444,-0.4434581444444444,0.2011214566666666,0.0042844148222222
828,1778412969740,0.98101452,0.00740896866,-0.273753776,-0.4887694319999999,0.23447372,-0.00653606568
829,1778412969750,0.9808194,-0.0062503647,-0.2567528,-0.528841,0.2701472,-0.028098974
830,1778412969760,0.991389151111111,-0.0101191545222222,-0.2247116288888888,-0.5836815422222222,0.3564802733333334,-0.0643425782222222
831,1778412969770,0.99408852,0.0177510359999999,-0.18129716,-0.628164784,0.444360844,-0.110929864
832,1778412969780,0.9847221255555556,0.0377359403333333,-0.1202305942222222,-0.6220970333333333,0.5173367333333334,-0.1105633513333333
833,1778412969790,0.981673115,-0.0083389005,-0.075812351,-0.564881,0.559994215,-0.054059981
834,1778412969800,0.9864295,-0.03945352,-0.096682474,-0.5276193,0.56029963,-0.015882028
835,1778412969810,1.005726011111111,-0.1339610644444444,-0.1419120764444444,-0.3973052344444444,0.2608826777777778,0.1701464204444444
836,1778412969820,1.02584642,-0.20116418,-0.157984824,-0.27521724,-0.068949385,0.35546729
837,1778412969830,1.0278953,-0.21418934,-0.16940013,-0.220974,-0.23937577,0.43866467
838,1778412969840,1.0319978666666667,-0.2032605133333333,-0.1633022122222222,-0.2037175644444444,-0.3159352877777778,0.4815597211111111
839,1778412969850,1.0442683,-0.16610725,-0.14671588,-0.14332004,-0.5838936,0.6316924
840,1778412969860,1.0200527,-0.1211317277777777,-0.0909504293333333,-0.1581839877777777,-0.5151393544444445,0.6281630666666667
841,1778412969870,1.0043709444444444,-0.0618972455555555,-0.0619345108888888,-0.12499462,-0.4906376066666666,0.6151995433333333
842,1778412969880,1.00947962,0.0009207854,-0.0431275189999999,-0.0554801987999999,-0.5128521,0.581969462
843,1778412969890,1.0113089999999998,0.043112272,-0.0155598511999999,0.0220159526666666,-0.5242342166666666,0.53171708
844,1778412969900,0.9961862,0.05646671,-0.0007622396,0.110548084,-0.485425034,0.503658808
845,1778412969910,0.9844510155555556,0.0149432842666666,-0.0318345153333333,0.2662191177777778,-0.4219512366666667,0.4818312222222222
846,1778412969920,0.9845865488888887,-0.0400904157333333,-0.0395585425555555,0.3914427888888889,-0.3202791055555555,0.4137556977777777
847,1778412969930,0.981258476,-0.093029822,-0.0260807902,0.4559211,-0.2228829,0.34520507
848,1778412969940,0.9570613066666668,-0.1419459533333333,-0.0495354126666666,0.5427971733333332,-0.0325021651111111,0.2506594844444444
849,1778412969950,0.936884,-0.1565945,-0.07274815,0.58786416,0.048944138,0.15889664
850,1778412969960,0.922794754,-0.18376377,-0.143971819,0.577662998,0.0259151966,0.134646006
851,1778412969970,0.9270730722222223,-0.18439085,-0.2317648822222222,0.5318698,-0.0984736693333333,0.1352772166666666
852,1778412969980,0.9279132333333332,-0.1661546911111111,-0.2479785688888889,0.5198564666666666,-0.2462987133333333,0.1764076
853,1778412969990,0.930103052,-0.1015272632,-0.281321301,0.52690155,-0.454027516,0.246980824
854,1778412970000,0.94273794,-0.061893854,-0.29532212,0.54693735,-0.5454103,0.2719034
855,1778412970010,0.962120174,-0.0379656299,-0.173013149,0.587925195,-0.4025941749999999,0.223402111
856,1778412970020,0.9636233333333334,-0.0547254161111111,-0.1177677122222222,0.6208498766666666,-0.1695355699999999,0.1629689566666666
857,1778412970030,0.9466677666666666,-0.0886772611111111,-0.1147594051111111,0.6280443055555556,0.0813190411111111,0.0889885664444444
858,1778412970040,0.9238832,-0.153691889,-0.1220985862,0.5892079889999999,0.144847159,0.0512653554
859,1778412970050,0.9339569,-0.17025384,-0.12961122,0.5396072,0.09353599,0.045279052
860,1778412970060,0.9424127455555557,-0.1821515433333333,-0.1414005288888889,0.4843594666666666,-0.0162129037777777,0.0623827762222222
861,1778412970070,0.952518981,-0.178327477,-0.1024053665999999,0.346945976,-0.314204556,0.11363286
862,1778412970080,0.964538,-0.15186862,-0.033060871,0.3127792533333333,-0.3983996666666666,0.1596432322222222
863,1778412970090,1.0249836,-0.101560805,0.0323037154999999,0.31756422,-0.36795911,0.1958529
864,1778412970100,1.056952,-0.07924243,0.05292992,0.32336727,-0.31512082,0.20287764
865,1778412970110,1.0389732,-0.0588855533333333,0.0733477773333333,0.2758569277777777,-0.1161203648888888,0.1659553155555555
866,1778412970120,1.03493228,-0.0720042059999999,0.1454292144,0.199243106,-0.0591758296,0.158041448
867,1778412970130,1.0908190222222225,-0.0881860366666666,0.2896002277777778,0.1217876744444444,-0.0957587944444444,0.1520415744444444
868,1778412970140,1.1138149777777775,-0.1140005544444444,0.4052302722222222,0.1022405577777777,-0.2036751333333333,0.1405712255555555
869,1778412970150,1.1162542,-0.13610551,0.4978339,0.10834903,-0.3071798,0.14362547
870,1778412970160,1.0954298,-0.1362681133333333,0.52948211,0.2656082611111111,-0.5477857555555555,0.2106150466666666
871,1778412970170,1.0631582222222222,-0.13946614,0.4722633144444444,0.3904247111111111,-0.6529872222222222,0.2590755888888889
872,1778412970180,1.0528540400000002,-0.151277116,0.36242967,0.478155956,-0.6452227,0.275629562
873,1778412970190,1.084433166666667,-0.16553811,0.19716598,0.5510096666666666,-0.6060198666666666,0.2024025333333333
874,1778412970200,1.0828071,-0.16635117,0.14543532,0.568317,-0.5954997,0.1338519
875,1778412970210,1.0739719,-0.1518178022222222,0.0826267733333333,0.5858279722222223,-0.5464961955555556,0.0118691007777777
876,1778412970220,1.0746765333333332,-0.1098404244444444,-0.0703631866666666,0.58297735,-0.46294588,-0.20341213
877,1778412970230,1.03862467,-0.0868678691999999,-0.108231922,0.470337138,-0.476873166,-0.35600178
878,1778412970240,0.9535143222222222,-0.0483700304444444,-0.1556256044444444,0.2553596099999999,-0.44380598,-0.5558710000000001
879,1778412970250,0.8809965,-0.044575773,-0.14327055,0.13156123,-0.4067479,-0.6340594
880,1778412970260,0.8623490800000001,-0.0212451428,-0.1301966199999999,-0.0114381154,-0.284822798,-0.67003836
881,1778412970270,0.8418580444444445,0.0067043205555555,-0.1291301633333333,-0.1015788072222222,-0.2089012733333333,-0.6612761044444445
882,1778412970280,0.82897824,-0.0024788025999999,-0.13337973,-0.181032212,-0.194295237,-0.6108472620000001
883,1778412970290,0.7884098444444444,-0.0665418244444444,-0.05927853,-0.3104291711111111,-0.1659383611111111,-0.5380885444444445
884,1778412970300,0.7819054,-0.092170015,-0.04396598,-0.40544987,-0.10560022,-0.4929537500000001
885,1778412970310,0.762953058,-0.1163482473,-0.0124793875,-0.45443983,0.0308630592,-0.421362446
886,1778412970320,0.7824812888888889,-0.1385988755555555,-0.0419807720186666,-0.5085473333333334,0.1124722524444444,-0.3012834311111111
887,1778412970330,0.9879675333333334,-0.1379585944444444,0.1077501879626666,-0.6182283555555556,0.0842375311111111,-0.1894305244444444
888,1778412970340,1.11801639,-0.123781619,0.203835064,-0.7078193,0.091703445,-0.12766708
889,1778412970350,1.2107109,-0.12509876,0.29257807,-0.79578125,0.097811915,-0.17286977
890,1778412970360,1.2087054333333334,-0.1143122255555555,0.3211874511111111,-0.7411443777777778,0.0754141818888888,-0.2299500544444444
891,1778412970370,1.21103111,-0.1003412205,0.257429667,-0.637999419,-0.00951394535,-0.291740654
892,1778412970380,1.2622079,-0.1168056,0.27038163,-0.5888397966666666,-0.1637664466666666,-0.2991115311111111
893,1778412970390,1.3341815,-0.279504116,0.2874070199999999,-0.624377505,-0.358918568,-0.264985542
894,1778412970400,1.4327971,-0.3884373,0.2872119,-0.7731799,-0.5722875,-0.211964
895,1778412970410,1.4720676444444445,-0.4861868788888889,0.4392431266666666,-0.9833113444444443,-0.9611935888888888,-0.0869269577777777
896,1778412970420,1.58037272,-0.530378492,0.591345492,-1.2093248,-1.3755517,0.11613733
897,1778412970430,1.6512921222222223,-0.4020966444444444,0.7513107911111111,-1.228804088888889,-1.3608234666666663,0.1888281533333333
898,1778412970440,1.4618196666666667,0.20601474,0.8982807333333334,-1.0315005,-0.4890086655555555,0.1487752483333333
899,1778412970450,1.2533963,0.37663785,0.8631601,-0.7084301,0.09903361,-0.108119965
900,1778412970460,0.9207753,0.3040827733333333,0.5090540833333334,-0.3004859435555555,0.6491185144444445,-0.4801938172222222
901,1778412970470,0.77653921,0.1630989433333333,0.05243192,0.0116315496666666,1.1729794,-0.8329920333333334
902,1778412970480,0.691610465,-0.01163178,-0.23077566,-0.1041341909999999,1.16149548,-0.95915236
903,1778412970490,0.5516988566666667,-0.11127682,-0.1070794166666666,-0.3248180333333333,0.6749098633333334,-0.8460234666666666
904,1778412970500,0.4661247700000001,-0.12217176,0.15128931,-0.47142136,0.19432579,-0.6322269
905,1778412970510,0.4563071244444445,-0.0778229704444444,0.2063230144444444,-0.5811023955555555,-0.0561894643333333,-0.1772559966666666
906,1778412970520,0.5300343444444445,-0.0435967198888888,0.1505575722222222,-0.6265765944444445,0.0055145951111111,0.0939432177777777
907,1778412970530,0.62605482,-0.056375241,0.2408433099999999,-0.611977355,0.37069267,0.240689091
908,1778412970540,0.7237515666666666,-0.1397439233333333,0.3332613,-0.5285016777777778,0.7037130222222222,0.2529671166666667
909,1778412970550,0.7533671,-0.18025441,0.34675804,-0.4952444,0.8089145,0.2346417
910,1778412970560,0.735564248,-0.217521837,0.345142082,-0.468916894,0.793215706,0.257243052
911,1778412970570,0.7393249533333334,-0.2106051,0.4890021,-0.4372139088888888,0.6042806577777777,0.3519243688888889
912,1778412970580,0.7654917555555555,-0.1580817111111111,0.5098841111111112,-0.36275841,0.5513405377777778,0.4306557955555555
913,1778412970590,0.98353302,-0.128178208,0.32694593,-0.21181129,0.53830916,0.6158104
914,1778412970600,1.0994138333333332,-0.18100649,0.24141653,-0.17874917,0.5248705,0.6585697
915,1778412970610,1.17623939,-0.2788668689999999,0.265283778,-0.284120338,0.2445832384,0.7370025
916,1778412970620,1.1755564,-0.3181588,0.42313445,-0.34803024,0.110639706,0.7764632
917,1778412970630,1.234462333333333,-0.2002047866666666,0.4769993466666666,-0.3102934444444444,0.2666093728888888,0.73146412
918,1778412970640,1.2692051699999998,-0.06786981512,0.496952755,-0.215697805,0.469710998,0.624606572
919,1778412970650,1.2158331,0.0015549688,0.44950795,-0.13782242,0.54625016,0.585268
920,1778412970660,1.2595958222222223,-0.0120908132222222,0.3516499322222222,-0.0455844811111111,0.5347119266666667,0.5704040666666667
921,1778412970670,1.41093906,-0.0526768527,0.3250524999999999,0.0696823997,0.4976877899999999,0.54855612
922,1778412970680,1.4706141666666666,-0.0977801,0.42274825,0.016518328,0.4727448766666666,0.5125772
923,1778412970690,1.5224532555555557,-0.1132823577777777,0.4777446833333333,-0.0300418077777777,0.45876325,0.4333027888888889
924,1778412970700,1.5399069,-0.10095101,0.4475566000000001,-0.02481567,0.41125292,0.32687965
925,1778412970710,1.4799203555555556,-0.1137430844444444,0.4640887466666666,0.0317895099999999,0.3258700444444444,0.1663625584444444
926,1778412970720,1.4457246,-0.1080246,0.47560704,0.09552124,0.26526043,0.0153475379999999
927,1778412970730,1.3894950666666666,-0.0935420416666666,0.5233164433333334,0.1652935711111111,0.2430663055555555,-0.1231705615555555
928,1778412970740,1.291470977777778,-0.0640348966666666,0.5868432111111112,0.27511033,0.24326992,-0.3206948
929,1778412970750,1.17681865,-0.0332062045,0.613761403,0.291542137,0.270391529,-0.4153761239999999
930,1778412970760,1.0410973,0.029605385,0.71918833,0.2844087911111111,0.2099278411111111,-0.5063245222222222
931,1778412970770,1.0569247666666668,0.0851370818888888,0.8352384366666666,0.28060797,0.12530005,-0.5552602
932,1778412970780,1.08556324,0.1449962648,0.961799984,0.314326734,-0.0962542592,-0.7225712200000001
933,1778412970790,1.063059922222222,0.2007976266666666,1.000119308888889,0.3274395866666666,-0.33426072,-0.9964955
934,1778412970800,0.942878166,0.238227306,1.03331032,0.323306166,-0.3833524769999999,-1.1253639
935,1778412970810,0.8271993277777778,0.24388617,1.0465142666666667,0.3385027111111111,-0.0587686055555555,-1.2513545444444445
936,1778412970820,0.7794662,0.2365686699999999,1.0432621,0.33069745,0.1662268,-1.2693406
937,1778412970830,0.70430326,0.2055790619999999,0.99997908,0.177130432,0.47763673,-1.16280885
938,1778412970840,0.5998521,0.1218668599999999,1.0728065,-0.07124006,0.6452074,-0.9773556
939,1778412970850,0.5997131888888889,0.070203961,1.2713478444444444,-0.2897282555555555,0.74111044,-0.74163643
940,1778412970860,0.5381107,0.010335969,1.4442306,-0.3852919,0.74111044,-0.64444387
941,1778412970870,0.6971172777777778,-0.0226469847777777,1.385880288888889,-0.3505415,0.7389385822222222,-0.4869810077777778
942,1778412970880,0.72072501,-0.0739860254,1.24716421,-0.34998494,0.6719625340000001,-0.4457963259999999
943,1778412970890,0.6048117222222222,-0.1797259388888888,1.1225790222222225,-0.3261754755555555,0.4981289588888889,-0.4131363722222222
944,1778412970900,0.5760159955555556,-0.1860440555555555,1.1690892666666666,-0.31565532,0.4876088199999999,-0.40499175
945,1778412970910,0.57434752,-0.13962705,1.1058725,-0.0663609201,0.857965486,-0.1817881452
946,1778412970920,0.5771678,-0.10582935,1.0074064,0.0145500425555555,1.0479593,-0.0644019685555555
947,1778412970930,0.4953168222222222,-0.1297738277777777,0.7802928411111111,-0.022372281,1.0789089,0.0605502349999999
948,1778412970940,0.4841745999999999,-0.14683784,0.703562415,-0.148848208,0.659379062,0.537011102
949,1778412970950,0.5093894866666666,-0.1702640066666666,0.6709436333333333,-0.20203774,0.4369085,0.7953995
950,1778412970960,0.4258615666666666,-0.2153818022222222,0.6670951666666666,-0.1264878106666666,0.0131077648888888,1.1123613555555556
951,1778412970970,0.3902057,-0.21077448,0.6645205,0.057037864,-0.2980171,1.405025
952,1778412970980,0.5559945044444444,-0.1659310977777778,0.4183408166666666,0.3264893666666666,-0.4199150666666666,1.8408306333333333
953,1778412970990,0.689625622,-0.194618074,0.365865871,0.388850084,-0.2332672885,2.03120451
954,1778412971000,0.8695697199999999,-0.1821854388888888,0.3652855488888888,0.4158088199999999,0.1363207433333333,2.1366163333333335
955,1778412971010,0.9003574033333334,-0.2520980466666667,0.1560863446666666,0.4384780555555555,0.2506509854444444,2.1463899555555557
956,1778412971020,0.84193933,-0.31864664,-0.065674566,0.4608079,0.0092390645,2.1520913
957,1778412971030,0.9730547088888888,-0.2696159988888889,-0.3477912962222222,0.4329804111111111,-0.7407456333333333,2.107703088888889
958,1778412971040,1.1653186777777778,-0.14882982,-0.5260740533333333,0.3904247311111111,-1.1986774555555555,1.8802641777777775
959,1778412971050,1.16029017,-0.059527866,-0.489995063,0.33705024,-1.34085548,1.43178012
960,1778412971060,1.0200188166666666,-0.0989082133333333,-0.55092645,0.31359372,-1.2387218,1.1258678
961,1778412971070,0.972648205,-0.16582065,-0.654086909,0.32458895,-1.2100121,0.8845832
962,1778412971080,1.0781523888888889,-0.2436219255555555,-0.6261679466666666,0.3327335811111111,-1.1072539855555557,0.43594134
963,1778412971090,1.1211087444444443,-0.2048798411111111,-0.6398273155555556,0.4599934533333333,-0.6168793966666667,-0.2742704233333333
964,1778412971100,1.02238886,-0.205877868,-0.857062196,0.592323365,-0.0460349749999999,-0.658187933
965,1778412971110,1.001169522222222,-0.3225154133333333,-1.1272947333333334,0.6849888500000001,0.3448741977777778,-0.7550072111111111
966,1778412971120,1.0367068,-0.43261668,-1.2880934,0.7534037,0.39476004,-0.6609367
967,1778412971130,1.1995334,-0.5771860959999999,-1.32881536,0.691952505,-0.072232689,-0.5552601349999999
968,1778412971140,1.2679703,-0.6459929466666667,-1.3743383333333332,0.5894930666666667,-0.4835110666666666,-0.5010983433333334
969,1778412971150,1.24881064,-0.58074121,-1.33941354,0.459830544,-0.8554763400000001,-0.472062758
970,1778412971160,1.247068,-0.3310626722222222,-1.2311389,0.3317155222222222,-1.348945888888889,-0.3617573133333333
971,1778412971170,1.2621466888888888,-0.2662553722222222,-1.2418679,0.31542626,-1.6296642,-0.18691926
972,1778412971180,1.21363782,-0.246648536,-1.36327474,0.1950893442,-1.7237957300000002,0.0496084310999999
973,1778412971190,1.2244515333333332,-0.24135554,-1.399726,-0.0626372975555555,-1.5072910888888889,0.1724031522222222
974,1778412971200,1.2110564444444445,-0.2247217755555555,-1.3651102,-0.3227818799999999,-1.3796240000000002,0.1263181246666666
975,1778412971210,1.20146955,-0.095685459,-1.2485119,-0.573555032,-1.3291272800000002,0.0032222203999999
976,1778412971220,1.2260777,0.02423922,-1.1726599,-0.7395833,-1.2686534,-0.08735116
977,1778412971230,1.1594477,0.021637442,-1.036981266666667,-0.9103490866666668,-1.2687891333333332,-0.2285247488888889
978,1778412971240,1.07861168,0.011457986,-0.84004294,-1.0426247,-1.24568555,-0.338042875
979,1778412971250,1.0593843333333333,0.005430534,-0.7902527288888889,-1.1227881333333334,-1.1086793555555556,-0.3738385188888888
980,1778412971260,1.01808993,-0.0140648453,-0.706864403,-1.24127213,-0.99529923,-0.3939353869999999
981,1778412971270,1.005455,-0.0294529389999999,-0.65576994,-1.2716312,-1.0145409,-0.39094225
982,1778412971280,0.977702688888889,-0.1077535766666666,-0.4403881666666667,-1.2982371333333331,-0.9387280011111112,-0.4021411011111111
983,1778412971290,0.979990076,-0.128028812,-0.359816727,-1.26112474,-0.8313478200000001,-0.420690495
984,1778412971300,0.9602389333333332,-0.1531796666666666,-0.2339974033333333,-1.1549594333333333,-0.7304969666666667,-0.4501944266666666
985,1778412971310,0.9219507777777776,-0.1665679822222222,-0.1611611722222222,-0.9870443288888888,-0.6609961377777779,-0.4773432022222221
986,1778412971320,0.9200537,-0.16049717,-0.14598413,-0.83121043,-0.66574717,-0.48256934
987,1778412971330,0.8979724777777778,-0.1684651188888888,-0.1360445233333333,-0.5388181933333333,-0.6956786733333333,-0.4835874133333334
988,1778412971340,0.8710203599999999,-0.1814343769999999,-0.135684745,-0.210818658,-0.73098562,-0.477560374
989,1778412971350,0.8529935266666667,-0.1932396022222222,-0.1396727811111111,-0.0219650466666666,-0.7319222533333334,-0.4516197333333333
990,1778412971360,0.8203933800000001,-0.21703502,-0.1517568133333333,0.2696806,-0.6303858655555555,-0.3690196111111111
991,1778412971370,0.8060836,-0.22516558,-0.1515942,0.3557422,-0.56251395,-0.32802498
992,1778412971380,0.8131572066666667,-0.2286617233333333,-0.2055641622222222,0.5189062644444444,-0.4378332444444444,-0.1987289711111111
993,1778412971390,0.81388897,-0.2253010888888888,-0.2321172033333333,0.6213928533333334,-0.3846895277777777,-0.10913804
994,1778412971400,0.825700636,-0.227263272,-0.217433422,0.68566076,-0.278225662,-0.032733775
995,1778412971410,0.8729473,-0.209311,-0.23382463,0.7550326666666667,-0.0491986577333333,0.0957757633333333
996,1778412971420,0.933713,-0.15122834,-0.2513866,0.7827244,-0.0023670332,0.15034479
997,1778412971430,0.918779214,-0.1378495019999999,-0.273698886,0.794208335,-0.02405211072,0.16085136
998,1778412971440,0.88587487,-0.13220283,-0.28776067,0.81326675,-0.08177718,0.19127154
999,1778412971450,0.923169734,-0.128470918,-0.26197871,0.7880387590000001,-0.0272896012,0.200922934
1000,1778412971460,1.0008206,-0.114366435,-0.2614177,0.7491278,0.07398888,0.18088715
