id,timestamp,acc_x,acc_y,acc_z,gyro_x,gyro_y,gyro_z
0,1778412866150,0.3206665999999999,-0.035116377,1.573285425,0.867021335,-4.239127275,-0.660936765
1,1778412866160,0.3641337177777777,-0.0092857720555555,1.710414788888889,0.8757768244444445,-4.104146922222223,-0.6468193933333333
2,1778412866170,0.3732975255555555,0.0048884966044444,1.7426728444444446,0.8431983,-3.9222503,-0.63650286
3,1778412866180,0.4103084933333333,-0.0130901950399999,1.8171384666666663,0.8130631666666667,-3.4863089777777776,-0.6715926355555556
4,1778412866190,0.37239978,-0.039941356,1.7829698,0.8383115,-3.171519,-0.7189672
5,1778412866200,0.2818694344444444,-0.1029599388888889,1.6179332333333332,0.8471348266666667,-3.1054117111111115,-0.7641699333333333
6,1778412866210,0.21742123,-0.14635001,1.5628351,0.78089184,-3.0896654,-0.7886038
7,1778412866220,0.1907336966,-0.153204063,1.56171613,0.706918262,-3.05460282,-0.78774861
8,1778412866230,0.0902627177111111,-0.1598263955555555,1.6586638444444446,0.2962863733333333,-2.8052142777777775,-0.8022460544444444
9,1778412866240,-0.0046649063,-0.20272525,1.7873604,0.06253549,-2.551509,-0.79654485
10,1778412866250,-0.1144680566666666,-0.26038104,1.9582037333333335,-0.0785023566666666,-2.155332066666667,-0.7042390466666667
11,1778412866260,-0.1697829388888889,-0.2973140777777778,2.0514745555555556,-0.1423019566666666,-1.6052302222222223,-0.5270254755555556
12,1778412866270,-0.216878514,-0.292956104,2.1591076,-0.0464396648,-1.083811024,-0.346594728
13,1778412866280,-0.2352881244444444,-0.2849827466666667,2.147289966666667,0.063757182,-0.7484151533333334,-0.2127784533333333
14,1778412866290,-0.2438252,-0.2739794,2.0890243,0.15294088,-0.4690543399999999,-0.08735116
15,1778412866300,-0.203603341,-0.265149612,1.92586536,0.229174618,0.0206848135,0.126567548
16,1778412866310,-0.17525412,-0.26324704,1.7985805,0.26350424,0.3581092,0.277401
17,1778412866320,-0.148728192,-0.234068544,1.6629628799999998,0.25373068,0.5676298,0.38124505
18,1778412866330,-0.052259148,-0.1519092666666666,1.477355777777778,0.1687550411111111,0.8004304977777777,0.5002923755555555
19,1778412866340,0.009024917,-0.1036341,1.428132,0.08758023,0.94024664,0.55594736
20,1778412866350,0.0403285722,-0.0709980465,1.40599975,0.0115297427999999,1.003591512,0.538354983
21,1778412866360,0.060521826,-0.050185855,1.389319,-0.06818583,1.0752438,0.51196635
22,1778412866370,0.1408009,-0.008933448,1.3539509,-0.1322569233333333,1.1170530444444442,0.44137955
23,1778412866380,0.1013595746,-0.0109122221999999,1.32470842,-0.244277814,1.1761559,0.338485739
24,1778412866390,0.036343586,-0.027257688,1.3192843,-0.3736858,1.2120737,0.23708509
25,1778412866400,0.0145862174,-0.0818767304,1.4055759,-0.4485146,1.2774343,0.229449505
26,1778412866410,0.015610667,-0.09168218,1.4391084,-0.45187426,1.306755,0.23708509
27,1778412866420,0.0147434078888888,-0.09222422,1.4541905333333334,-0.4306982244444444,1.3377045555555556,0.2449582322222222
28,1778412866430,-0.01258305166,-0.111366258,1.4503589900000002,-0.3264062319999999,1.42831358,0.292794356
29,1778412866440,0.0043633982,-0.1077264711111111,1.431736622222222,-0.29549736,1.4417522,0.30733252
30,1778412866450,0.0028355311999999,-0.093470902,1.4012098666666666,-0.2779864044444444,1.611771422222222,0.3250471011111111
31,1778412866460,0.00880844072,-0.077135599,1.37317162,-0.307592148,1.74326644,0.336042344
32,1778412866470,0.0286737595555555,-0.0650918748888888,1.3420363333333334,-0.3763328244444444,1.8525131333333336,0.3154092844444444
33,1778412866480,0.0184563609999999,-0.0681645466666666,1.3229431,-0.4587971866666667,1.9467193333333332,0.2979662
34,1778412866490,0.005610083,-0.07387626,1.3034297,-0.5483881,2.0367174,0.28412032
35,1778412866500,-0.0285890662222222,-0.1088376511111111,1.3635076888888888,-0.6586799911111112,2.1442945333333334,0.2946404788888889
36,1778412866510,-0.0527164899999999,-0.1270501,1.4322786,-0.699206294,2.29699949,0.330300378
37,1778412866520,-0.0570765009999999,-0.136213911111111,1.4434175444444444,-0.6467345355555555,2.3952847444444445,0.3633947266666666
38,1778412866530,-0.0523099622222222,-0.1462686877777777,1.4260147666666667,-0.5748581955555555,2.4651250444444446,0.4020138488888889
39,1778412866540,-0.04320374,-0.15537491,1.3505361,-0.5471664,2.510735,0.40690064
40,1778412866550,-0.0677851222222222,-0.1660801522222222,1.344448366666667,-0.5716003155555556,2.550507933333334,0.4211537377777777
41,1778412866560,-0.0953815866666666,-0.1789840211111111,1.3667972666666666,-0.5975273888888889,2.5952355666666667,0.4411080822222222
42,1778412866570,-0.139270316,-0.20233498,1.4259247,-0.5852833239999999,2.72624192,0.533834676
43,1778412866580,-0.1398557177777777,-0.2098259244444444,1.466440588888889,-0.5335241833333333,2.8143516,0.60074282
44,1778412866590,-0.132489438,-0.206603508,1.4663996,-0.4622586699999999,2.896256,0.65001786
45,1778412866600,-0.1303429686666666,-0.1894622733333333,1.3919308333333331,-0.3315373566666666,3.0528364666666667,0.7361472866666667
46,1778412866610,-0.1186315853333333,-0.17377708,1.3116348555555557,-0.2870812377777778,3.098785822222222,0.7690651755555556
47,1778412866620,-0.116101288,-0.1702050479999999,1.22255922,-0.332881216,3.15885908,0.797048765
48,1778412866630,-0.1480946777777777,-0.1768124755555555,1.2297669444444443,-0.41481618,3.244778133333333,0.8291318455555555
49,1778412866640,-0.15302722,-0.17244908,1.2436397,-0.4561502,3.3165188,0.86809033
50,1778412866650,-0.154807816,-0.167814662,1.25406101,-0.389812178,3.35097059,0.876092435
51,1778412866660,-0.1638442488888888,-0.1639933022222222,1.2426605666666668,-0.2607384511111111,3.382761811111111,0.8847189488888889
52,1778412866670,-0.2114117139999999,-0.157375034,1.19696315,-0.162134126,3.37149516,0.8818954720000001
53,1778412866680,-0.2667262511111111,-0.1622045911111111,1.1192286,-0.0751766333333333,3.400951488888889,0.9172974577777776
54,1778412866690,-0.28455928,-0.15878975,1.0767092,-0.063299045,3.4185302,0.95910656
55,1778412866700,-0.268363216,-0.1277025764,1.04231384,-0.0971399825,3.51687672,1.0058363680000002
56,1778412866710,-0.2626880922222223,-0.1076451735555555,1.030219288888889,-0.11949699,3.5920110000000003,1.0317974
57,1778412866720,-0.2640431844444444,-0.0840631746666666,0.9921716933333332,-0.0737513238888888,3.6399962777777777,1.0325439444444444
58,1778412866730,-0.270948728,-0.0509176044,0.973568984,0.0120795039999999,3.6171778,1.01237238
59,1778412866740,-0.27870527,-0.042868353,0.9466406,0.07108735,3.6017845,1.0024767
60,1778412866750,-0.2970972966666667,-0.0230670644444444,0.8000297333333334,0.1435066833333333,3.5145012555555555,0.9398988111111112
61,1778412866760,-0.3153233,-0.0152752819999999,0.75480014,0.17920731,3.4979405,0.8937459000000001
62,1778412866770,-0.3158924022222222,0.0190627642222222,0.6054452222222222,0.0934850765333333,3.4395027666666667,0.8326612
63,1778412866780,-0.34572746,0.0265320348,0.592662628,-0.05987830624,3.39837242,0.74421052
64,1778412866790,-0.3945555333333333,0.020092636,0.6086229133333333,-0.1539844222222222,3.4321047777777776,0.7066230444444446
65,1778412866800,-0.4276401666666667,0.0187646453333333,0.5863824711111111,-0.2751357911111111,3.535813133333334,0.6865329555555556
66,1778412866810,-0.4475870999999999,0.01984872,0.64278144,-0.31382278,3.5846808,0.6817819
67,1778412866820,-0.4751801666666667,0.0165151923333333,0.5594838333333334,-0.2897961233333333,3.5840699,0.6764879
68,1778412866830,-0.4968989266666666,0.017897386,0.52109749,-0.27900449,3.4845018999999997,0.6587733166666667
69,1778412866840,-0.50334646,0.0333251152,0.533659202,-0.234168303,3.41132243,0.650506495
70,1778412866850,-0.4859125,0.046953958,0.5075906,-0.20081604,3.3745494,0.6359683
71,1778412866860,-0.5018483888888888,0.0596647306666666,0.4842321988888889,-0.20509197,3.39654,0.56694263
72,1778412866870,-0.5407724199999999,0.0536860590999999,0.409039123,-0.254509509,3.4424144599999997,0.550877341
73,1778412866880,-0.5948687355555555,0.0426650904444444,0.3573006644444444,-0.3260397233333333,3.4908138666666666,0.55757628
74,1778412866890,-0.640357493,0.0209219535,0.381866801,-0.3486410649999999,3.55505475,0.61917003
75,1778412866900,-0.6239625477777778,0.0267766306666666,0.3520936999999999,-0.28640252,3.6179380333333335,0.7009896111111111
76,1778412866910,-0.58719885,0.04402696,0.2923341,-0.22769332,3.6427112,0.753251
77,1778412866920,-0.450934827,0.101499831,0.147755568,-0.247790196,3.543754,0.6850194000000001
78,1778412866930,-0.3685614822222222,0.1742039344444444,0.1095694015555555,-0.3286867222222222,3.371834466666667,0.3992989666666667
79,1778412866940,-0.48079024,0.1505880533333333,0.048458109,-0.38284853,3.268262,0.20165595
80,1778412866950,-0.6468365199999999,0.089023492,0.0217451706,-0.54557824,3.06203992,-0.0175465866
81,1778412866960,-0.7209262,0.05329579,-0.001250073,-0.6064186,3.0184255,-0.03298575
82,1778412866970,-0.8174087777777778,-0.0002574678888888,0.1463940363333333,-0.7760984088888888,3.102722366666667,0.0729623108888888
83,1778412866980,-0.813520018,0.0012378773999999,0.285126379,-0.8440382120000001,3.33899804,0.275690636
84,1778412866990,-0.7589162633333334,0.0383152433333333,0.35521382,-0.7188823555555556,3.5430752666666665,0.4267192288888888
85,1778412867000,-0.713730685,0.07293108,0.269756595,-0.434281846,3.75449632,0.5941863919999999
86,1778412867010,-0.7019007,0.08085837,0.19616999,-0.2476985688888889,3.856236444444445,0.7058764233333333
87,1778412867020,-0.63900748,0.1270771975555555,-0.0025814533333333,-0.0983888277777777,3.888000455555555,0.8078200555555556
88,1778412867030,-0.55814236,0.17263202,-0.23187329,0.03321482,3.8528428,0.89191335
89,1778412867040,-0.5296786155555555,0.2174110688888889,-0.4369191077777777,0.0448887902222222,3.6283224444444446,0.8883840166666667
90,1778412867050,-0.4943682866666666,0.27446724,-0.5791496466666667,0.0239163666666666,3.4354304555555557,0.85743442
91,1778412867060,-0.47518018,0.30196884,-0.59671164,-0.023593975,3.2615426,0.7923452
92,1778412867070,-0.4436133,0.3302462422222222,-0.6246198011111112,-0.1511507588888889,3.1867476666666668,0.6853112
93,1778412867080,-0.379031256,0.366451254,-0.682850831,-0.32842202,3.15000192,0.5411037550000001
94,1778412867090,-0.3531168022222222,0.3959377422222222,-0.7224303444444444,-0.4997239555555555,3.1268847777777777,0.3547071388888889
95,1778412867100,-0.3905715666666666,0.3890979133333333,-0.7669858,-0.6379790666666667,3.109238066666667,0.2085788999999999
96,1778412867110,-0.43075684,0.3802966,-0.7883082,-0.7353074,3.0868402,0.1246891999999999
97,1778412867120,-0.4659079511111111,0.3683717644444444,-0.7750553644444445,-0.79272705,2.9292417,0.026953636
98,1778412867130,-0.47030184,0.36688116,-0.77339876,-0.79272705,2.9292417,0.026953636
99,1778412867140,-0.47030184,0.36688116,-0.77339876,-0.79272705,2.9292417,0.0269536359999999
100,1778412867150,-0.47030184,0.36688116,-0.77339876,-0.79272705,2.9292417,0.026953636
101,1778412867160,-0.469496907,0.360953988,-0.783213374,-0.6560194260000001,2.7459646199999996,0.0309852279999999
102,1778412867170,-0.4784289888888888,0.3448473588888888,-0.8715684955555556,-0.3339807355555556,2.2375505111111114,0.0325870052222222
103,1778412867180,-0.49664482,0.34078208,-0.9361827,-0.3437543,2.1252904,0.022677705
104,1778412867190,-0.4593256,0.36468592,-0.9127667,-0.29183227,1.9340951,0.058106847
105,1778412867200,-0.40758476,0.40154782,-0.90544915,-0.1913139588888889,1.7798901222222223,0.0445324621111111
106,1778412867210,-0.3979703666666666,0.4121175533333333,-0.9152057833333332,-0.0827104116666666,1.6401418888888888,0.0088572851111111
107,1778412867220,-0.397105473,0.411475244,-1.0289838,0.0422553595,1.42367119,-0.055220592
108,1778412867230,-0.3922688166666666,0.3859371466666667,-1.2506928666666666,0.036065441,1.045516,-0.1594311266666666
109,1778412867240,-0.3875043,0.380317922,-1.26701898,-0.0306798036,0.91043726,-0.1957154539999999
110,1778412867250,-0.4065142222222222,0.3564198488888889,-1.2014962222222223,-0.1040900711111111,0.6237598944444445,-0.2731166066666666
111,1778412867260,-0.412707,0.34688,-1.166562,-0.10300412,0.52303797,-0.2932067
112,1778412867270,-0.432598404,0.29678865,-1.08992035,0.0468367153,0.1990751251999999,-0.324115558
113,1778412867280,-0.4787304933333333,0.2483579722222222,-1.0732198333333334,0.1975327333333333,-0.0614155946666666,-0.3088850966666666
114,1778412867290,-0.4946934888888889,0.2219336755555555,-1.0843315,0.3233672644444444,-0.3019536622222222,-0.2563522366666666
115,1778412867300,-0.490107849,0.218616419,-1.08747805,0.41560521,-0.527329164,-0.208665428
116,1778412867310,-0.4822537299999999,0.2251046,-1.09482,0.4766899299999999,-0.7066739,-0.18325418
117,1778412867320,-0.4733507879999999,0.238837099,-1.09303936,0.536980561,-1.09498952,-0.190767602
118,1778412867330,-0.4603283499999999,0.2456206944444444,-1.0786096888888888,0.5512133,-1.2326134,-0.19974706
119,1778412867340,-0.4624964811111111,0.2464879522222222,-1.0404773777777778,0.5372995633333333,-1.4257768333333332,-0.25241567
120,1778412867350,-0.474887444,0.2303183219999999,-1.03859106,0.47974416,-1.5579506200000002,-0.300659016
121,1778412867360,-0.49713266,0.21117085,-1.0333225,0.40155572,-1.6327183,-0.33291176
122,1778412867370,-0.5254778288888889,0.1956685944444444,-0.9627661777777776,0.3236387544444444,-1.7157935888888889,-0.3409206355555556
123,1778412867380,-0.52643317,0.19507235,-0.8756608,0.27938625,-1.8526233,-0.3463504
124,1778412867390,-0.5474371111111112,0.1879987722222222,-0.8211285144444445,0.3370095322222222,-2.011240011111111,-0.3558524566666666
125,1778412867400,-0.5656020755555555,0.1844213233333333,-0.7875764677777778,0.4151979677777778,-2.1653772333333334,-0.3420066
126,1778412867410,-0.58061314,0.17872995,-0.7892839,0.46935976,-2.2808273,-0.3268033
127,1778412867420,-0.5701959000000001,0.18629136,-0.7799235666666666,0.4873458288888888,-2.4549612444444446,-0.2940890166666666
128,1778412867430,-0.56219134,0.192584412,-0.74904978,0.4852418,-2.5173016,-0.28404397
129,1778412867440,-0.5510687,0.20604862,-0.7023885,0.5484984488888889,-2.6674342666666666,-0.3139076144444444
130,1778412867450,-0.5724622333333333,0.1958854033333333,-0.6552821266666666,0.6182029066666668,-2.7901466666666668,-0.3390202333333333
131,1778412867460,-0.5830523,0.18824269,-0.6543065,0.6556682,-2.8764796,-0.3475721
132,1778412867470,-0.6038665466666666,0.1661072499999999,-0.6474768333333334,0.6619124088888889,-2.9201891111111116,-0.3437712644444444
133,1778412867480,-0.6387771222222223,0.1354719988888889,-0.5731804555555555,0.6648308877777778,-3.0356393333333336,-0.3064417133333333
134,1778412867490,-0.63601272,0.129477068,-0.519944964,0.687493311,-3.08905454,-0.254723313
135,1778412867500,-0.6286342333333333,0.1349299633333333,-0.4926303655555555,0.7286304811111112,-3.1290312222222223,-0.2108780477777777
136,1778412867510,-0.6232986,0.13967279,-0.4861563999999999,0.76378816,-3.1727407,-0.18569757
137,1778412867520,-0.6125662711111111,0.1523191877777777,-0.4905875566666667,0.8370898222222222,-3.300068411111111,-0.1996791833333333
138,1778412867530,-0.6011022,0.16263144,-0.50472456,0.89573115,-3.4140253,-0.21135315
139,1778412867540,-0.6011022,0.16263144,-0.50472456,0.8957311499999999,-3.4140253,-0.2113531499999999
140,1778412867550,-0.5924770244444445,0.1630108633333333,-0.47644378,0.8578586277777779,-3.494521411111111,-0.2275066655555555
141,1778412867560,-0.56887466,0.15970443,-0.3778269,0.7253048,-3.7762578,-0.28404397
142,1778412867570,-0.58680862,0.136940918,-0.2807236999999999,0.67118369,-3.81461897,-0.3048127779999999
143,1778412867580,-0.60492352,0.1136448433333333,-0.2341396766666666,0.6263475000000001,-3.827772533333333,-0.3074597866666667
144,1778412867590,-0.603980376,0.086468456,-0.1819862259999999,0.5771743,-3.7722873,-0.26449687
145,1778412867600,-0.5945164166666667,0.0667112056666666,-0.1510149033333333,0.5375710333333333,-3.731666,-0.22519903
146,1778412867610,-0.58963805,0.055003207,-0.13473347,0.5151733,-3.723114,-0.19913621
147,1778412867620,-0.483247727,0.0973837277,-0.0614700497999999,0.589452324,-3.8812014,-0.226502162
148,1778412867630,-0.4168739522222222,0.1297535033333333,-0.0275151557777777,0.6872965044444445,-4.0563652999999995,-0.2873697022222222
149,1778412867640,-0.3021416133333333,0.1808337266666666,-0.0433053716666666,0.8664783577777778,-4.464003766666667,-0.4679090044444444
150,1778412867650,-0.246410708,0.2285194279999999,0.0003597769999999,1.12406579,-5.153115,-0.773821329
151,1778412867660,-0.2616311,0.22486067,0.0038721769999999,1.3043879,-5.680956,-0.98712915
152,1778412867670,-0.265683167,0.218418223,0.0078022843,1.3293105,-5.7832118,-1.01987056
153,1778412867680,-0.3892774722222222,0.0537463618888888,0.2375341844444444,1.3980513,-6.451234111111112,-1.1502932666666668
154,1778412867690,-0.4724971,-0.03457519,0.35505122,1.3166049,-6.4225245,-1.0653176
155,1778412867700,-0.483619669,-0.0764556775,0.671514814,1.0315225,-5.70398495,-0.70284087
156,1778412867710,-0.47835106,-0.088755175,0.780198,0.9146674,-5.3034525,-0.5363239
157,1778412867720,-0.4489455644444444,-0.0984576438888888,0.7046854422222223,0.760869631111111,-4.8893828333333325,-0.3430246733333333
158,1778412867730,-0.4434405,-0.1207082599999999,0.6447328,0.5182275,-4.472624,-0.09407048
159,1778412867740,-0.3658817755555555,-0.1094271205555555,0.6941393866666667,0.4002661377777778,-4.4000007000000005,0.0145330743111111
160,1778412867750,-0.2230584155555555,-0.0541122341888888,0.8390428644444445,0.3072816277777777,-4.346110377777778,0.1353450877777777
161,1778412867760,-0.13888006,0.0042380523,0.90172946,0.38872793,-4.379775,0.13751699
162,1778412867770,-0.0764102822222222,0.0332912387,0.9173401088888888,0.41865944,-4.439638222222222,0.0895315427777777
163,1778412867780,-0.0019147448,0.077742339,0.921925756,0.4675272119999999,-4.56315136,-0.024540791
164,1778412867790,-0.0438541866666666,0.05361085,0.9588263333333332,0.4180486,-4.642642666666666,-0.1345221444444444
165,1778412867800,-0.1407771888888888,0.0074089684444444,1.0717326444444444,0.27694288,-4.5728025,-0.14782503
166,1778412867810,-0.1548352559999999,-0.0146898821999999,1.14438689,0.1260636,-4.3785534,-0.05619795
167,1778412867820,-0.1340017246666666,-0.001534642,1.2636509666666669,0.0220159526666666,-3.9426118333333338,0.1169517966666666
168,1778412867830,-0.0500063057777777,0.0224233952222222,1.2214703222222223,-0.001603474,-3.685241500000001,0.20654273
169,1778412867840,-0.0157051868999999,0.0299560163,1.24693263,-0.0515707791999999,-3.4448121,0.2563878579999999
170,1778412867850,0.0570832751111111,0.0635978855555555,1.2755691222222223,0.0292103771111111,-3.3154074444444444,0.2707495633333333
171,1778412867860,0.14885014,0.10308529,1.2929413,0.068033114,-3.3107922,0.25174543
172,1778412867870,0.118677658,0.1218180859999999,1.36882992,0.2167744197999999,-3.28165468,0.191454805
173,1778412867880,0.10930516,0.14113629,1.4073992,0.4608079,-3.2503183,0.14912309
174,1778412867890,0.0850354525,0.146624405,1.30867385,0.818275691,-3.28171581,0.105630763
175,1778412867900,0.107069255,0.1603650455555555,1.2751759444444444,0.9317032833333332,-3.2645033888888886,0.1383993288888888
176,1778412867910,0.14055698,0.17799819,1.2380295,0.9751413,-3.238712,0.16011834
177,1778412867920,0.277778406,0.222540421,1.1184280599999998,0.888462054,-3.17805509,0.1542542055
178,1778412867930,0.39362052,0.2529111,1.0791484,0.7851678,-3.1061583,0.113693945
179,1778412867940,0.3981736577777777,0.2503093222222222,1.088254533333333,0.4658982899999999,-3.0163636222222223,-0.0783072233333333
180,1778412867950,0.394644988,0.2330959229999999,1.11215938,0.278653245,-2.97568127,-0.187224688
181,1778412867960,0.3930581577777778,0.20360945,1.1845440444444444,0.1011546093333333,-2.9422477,-0.2887271433333334
182,1778412867970,0.41694506,0.19214536,1.34234955,0.0425607833,-2.8920563800000005,-0.349160292
183,1778412867980,0.41779878,0.1757182444444444,1.3848774444444445,0.0600920984444444,-2.829716022222222,-0.3994262466666666
184,1778412867990,0.4027165666666666,0.1240892222222222,1.4357477555555556,0.1661759033333333,-2.7897394666666666,-0.4658728466666667
185,1778412868000,0.370634405,0.097685577,1.44093781,0.26863535,-2.77630066,-0.498023781
186,1778412868010,0.3189515333333333,0.0653290133333333,1.414300033333333,0.33191913,-2.759197,-0.51127917
187,1778412868020,0.3034560811111111,0.0577404966666666,1.3891528888888889,0.3257428044444445,-2.6894925222222223,-0.4717098244444445
188,1778412868030,0.4214575299999999,0.08549279,1.3273336,0.209994009,-2.5483859,-0.492892658
189,1778412868040,0.4100679788888889,0.0794185872222222,1.319640011111111,0.0526940588888888,-2.4057116888888888,-0.5428395955555555
190,1778412868050,0.30187738,0.034239803,1.3434626,-0.15920207,-2.2356246,-0.60412794
191,1778412868060,0.29244695,0.01189703564,1.4096859,-0.3669665,-2.1110117,-0.6328378
192,1778412868070,0.2834887733333333,-0.0184597481666666,1.5239134444444444,-0.5490668222222221,-2.0046565,-0.7129944833333334
193,1778412868080,0.25867364,-0.040429186,1.599697,-0.6455128,-1.8978261,-0.76844585
194,1778412868090,0.0687472388888888,-0.1333783811111111,1.8279589777777776,-0.6569153,-1.5708192,-0.7399396333333333
195,1778412868100,0.0287821666666666,-0.1424473366666666,1.8699465333333332,-0.59277635,-1.4172928666666669,-0.6621583999999999
196,1778412868110,0.020489,-0.130532006,1.88778092,-0.498543002,-1.06194268,-0.5092022519999999
197,1778412868120,0.022711352,-0.1120356688888888,1.9071810333333337,-0.4392500788888889,-0.6949320844444444,-0.3882273677777778
198,1778412868130,0.045856334,-0.1124151,1.8823049,-0.37796175,-0.36093438,-0.2932067
199,1778412868140,0.027562585,-0.13415417,1.8420281,-0.2089708384,0.02612899,-0.1249488055999999
200,1778412868150,0.0142589628888888,-0.1117612686666666,1.7590322111111112,-0.0093408713333333,0.2327497688888889,0.0296006396666666
201,1778412868160,0.092362102,-0.0435665658,1.63195502,0.226853404,0.36788276,0.165249452
202,1778412868170,0.1444935322222222,-0.0097194011111111,1.5496364555555555,0.3309689288888889,0.4783782444444444,0.2236464533333333
203,1778412868180,0.1744919,0.008872469,1.516247,0.36185065,0.582901,0.24502611
204,1778412868190,0.186913349,0.0093846938,1.40875292,0.342242458,0.784847074,0.2798444009999999
205,1778412868200,0.2365381933333333,0.0292903273333333,1.3030943666666668,0.2793862733333333,0.8899535333333333,0.2753648466666666
206,1778412868210,0.2638229733333334,0.0434849232222222,1.236996311111111,0.21341476,0.9420792,0.24808034
207,1778412868220,0.2742843,0.0541738913999999,1.2048264,-0.06235223265,1.0044466799999998,0.1382500059999999
208,1778412868230,0.28087005,0.056222793,1.2275106,-0.21486552,1.0392039,0.066658705
209,1778412868240,0.2205480944444444,0.0258856552222222,1.3182409000000002,-0.3041849688888889,1.091058077777778,0.014108875
210,1778412868250,0.116278127,-0.0186504785,1.4110092399999998,-0.4091760459999999,1.21903739,-0.0098117333
211,1778412868260,0.09662149,-0.026525937,1.4376448,-0.42927292,1.2823211,0.025731942
212,1778412868270,0.13452919,-0.0324775047,1.47474757,-0.461525652,1.46032201,0.0868777528
213,1778412868280,0.1603243933333333,-0.0366078266666666,1.491011766666667,-0.4875070133333333,1.6516801333333333,0.129779588
214,1778412868290,0.1814028566666666,-0.0435188006666666,1.4881661333333334,-0.5070541266666666,1.7663158,0.1481050066666666
215,1778412868300,0.2006722766666666,-0.0382339386666666,1.4784908,-0.5463519933333333,1.946923,0.1686702033333333
216,1778412868310,0.227866968,-0.0198426216,1.47845826,-0.577708822,2.0466743700000003,0.152666002
217,1778412868320,0.2259481511111111,-0.0447112822222222,1.5022997444444444,-0.6458522222222222,2.1753120555555556,0.1249606811111111
218,1778412868330,0.21034764,-0.06774786,1.5184423,-0.6882722,2.255401,0.1191915699999999
219,1778412868340,0.172305783,-0.118766077,1.57768047,-0.767621228,2.5136059,0.179665444
220,1778412868350,0.14860623,-0.15000875,1.6148198,-0.8129528755555555,2.7803307444444445,0.26620215
221,1778412868360,0.14958191,-0.15854584,1.6043314,-0.8183826,3.0165927,0.39651623
222,1778412868370,0.1866504622222222,-0.1403029022222222,1.605307066666667,-0.7988355,3.127767,0.4637094
223,1778412868380,0.2194809711111111,-0.1264572477777777,1.594029388888889,-0.7853969,3.2529907,0.4875324699999999
224,1778412868390,0.200834892,-0.12915998,1.5497612,-0.745264204,3.4570136500000004,0.561811525
225,1778412868400,0.2236105999999999,-0.1127403166666666,1.5277822666666667,-0.6978421066666667,3.5736854666666664,0.6209008133333334
226,1778412868410,0.2591614499999999,-0.0845171216666666,1.4936948666666667,-0.6340425155555555,3.604906622222222,0.6266020555555555
227,1778412868420,0.259356602,-0.0645281522,1.41594236,-0.4776520279999999,3.6742309,0.5985845160000001
228,1778412868430,0.2400546688888888,-0.062571401,1.3323982444444444,-0.4525529888888888,3.7147912222222224,0.5830961422222223
229,1778412868440,0.1800511604444444,-0.0752144177777777,1.2946486888888888,-0.5223252999999999,3.8013956666666666,0.5524180266666667
230,1778412868450,0.1024937888,-0.087974644,1.28717878,-0.56634702,3.88705002,0.555703036
231,1778412868460,0.043905,-0.10046318,1.2524207,-0.5917583,3.9676821,0.58648974
232,1778412868470,0.0343922502,-0.0932920298,1.26186023,-0.55193105,3.94135457,0.60316587
233,1778412868480,0.026343001,-0.08216943,1.2836419,-0.4769189999999999,3.8949912000000007,0.6286382
234,1778412868490,0.0269392408888888,-0.0643906122222222,1.254148388888889,-0.4177346977777778,3.9312347333333335,0.6157425488888889
235,1778412868500,-0.0105951306,-0.0516249649,1.14675892,-0.375884872,3.980876400000001,0.5801369160000001
236,1778412868510,-0.0593124066666666,-0.057340744,1.1060604333333337,-0.3322839555555555,3.951121288888889,0.5419657666666667
237,1778412868520,-0.0966384326666666,-0.0790899766666666,1.1071581,-0.303642,3.9440626333333335,0.5264231
238,1778412868530,-0.118878886,-0.08899909,1.1235716,-0.2857238,3.9835641,0.5211291
239,1778412868540,-0.1271449493333333,-0.0852048344444444,1.1041768777777776,-0.2726923911111111,4.006640522222223,0.5242511977777777
240,1778412868550,-0.1754065733333333,-0.0787545966666666,1.0606717,-0.1696882766666666,4.1264345,0.5426444622222222
241,1778412868560,-0.23577596,-0.09631659,0.96469045,-0.0490052212,4.16865064,0.5832522330000001
242,1778412868570,-0.2568612022222222,-0.0833043166666666,0.939478928888889,0.1241631837777777,4.137429688888889,0.6584339266666667
243,1778412868580,-0.23967862,-0.06555261,0.8621844600000002,0.34352523,4.1051226,0.7269846
244,1778412868590,-0.1818568155555555,-0.0075410913333333,0.7040451400000001,0.4915538788888888,4.033585733333333,0.7261022666666667
245,1778412868600,-0.15050674,0.0342499636666666,0.5954412666666666,0.5385891066666666,3.9998534333333335,0.6897229
246,1778412868610,-0.124309079,0.0782820025,0.470170736,0.487318676,3.97305748,0.6324254
247,1778412868620,-0.0935623666666666,0.14008947,0.3245616366666666,0.1798860314222222,3.8547431777777774,0.4447731555555555
248,1778412868630,-0.10348164,0.17897385,0.33090347,0.0051158457,3.8143594,0.34398335
249,1778412868640,-0.168427521,0.169064742,0.4185396449999999,-0.4015251628599999,3.9307868,0.1397160345999999
250,1778412868650,-0.29983796,0.1106128244444444,0.6133657044444445,-0.7074798999999999,4.165867822222222,-0.0071350351111111
251,1778412868660,-0.470265241,0.0419353719999999,0.68964693,-0.679292715,4.38006483,-0.0023135832999999
252,1778412868670,-0.5727264855555556,-0.022867187,0.5773236433333334,-0.4321914088888889,4.448283133333334,0.1334446764444444
253,1778412868680,-0.59573597,-0.042380523,0.52612823,-0.24540788,4.4178762,0.28656372
254,1778412868690,-0.523640306,-0.00654916308,0.4279273919999999,-0.0980257112,4.3553868,0.373426203
255,1778412868700,-0.4170873566666666,0.0665587606666666,0.3047129033333333,0.057037864,4.281047,0.45088163
256,1778412868710,-0.3761432277777777,0.1092374017777777,0.0444944699999999,0.3393850388888889,4.2238985,0.4455876333333333
257,1778412868720,-0.381760074,0.1287453184,-0.169540388,0.265947612,4.05491088,0.393584172
258,1778412868730,-0.40929216,0.13869712,-0.2565089,0.13033953,3.9108732,0.34153998
259,1778412868740,-0.453215442,0.139062988,-0.227906597,-0.144824245,3.89761793,0.286930236
260,1778412868750,-0.44176018,0.1516314755555555,-0.2506989011111111,-0.2775112955555555,3.896959544444445,0.2503201266666666
261,1778412868760,-0.46076538,0.1561778111111111,-0.200032,-0.37063158,3.8846067999999994,0.1918824
262,1778412868770,-0.5586850400000001,0.107957516,-0.297572232,-0.370509414,3.85369784,0.162806069
263,1778412868780,-0.5911016,0.09817646,-0.37096676,-0.37307495,3.7972555,0.15339902
264,1778412868790,-0.5709513533333334,0.1153014488888889,-0.3857575977777778,-0.5017601088888889,3.618956055555555,0.1728103933333333
265,1778412868800,-0.5578740379999999,0.129550249,-0.2804706449999999,-0.641114752,3.5342247,0.156453252
266,1778412868810,-0.5469695788888889,0.13151512,-0.1556052788888889,-0.59250489,3.604770777777778,0.1305940544444444
267,1778412868820,-0.537665488,0.113174283,-0.197200526,-0.420721054,3.74209616,0.0935970694999999
268,1778412868830,-0.59524816,0.07524829,-0.30532268,-0.34803024,3.7887037,0.08376243
269,1778412868840,-0.6546824933333333,0.06700933,-0.44817656,-0.3371028511111111,3.778455111111111,0.18251607
270,1778412868850,-0.65137947,0.06500379,-0.50448066,-0.375029668,3.71344739,0.272697486
271,1778412868860,-0.6306466,0.08646846,-0.43956834,-0.3911288922222222,3.6835702111111113,0.3109976066666666
272,1778412868870,-0.4912481777777777,0.1648876644444444,-0.4508427044444444,-0.2857238033333333,3.5779615333333337,0.2963372933333333
273,1778412868880,-0.4541728500000001,0.19921893,-0.4634722,-0.18676655,3.4753391999999996,0.20837528
274,1778412868890,-0.4926947499999999,0.1968068555555555,-0.6534798244444444,-0.1306704093333333,3.3406812666666665,0.129304493
275,1778412868900,-0.5435615222222222,0.1657447588888888,-0.7585808577777777,-0.0707649577777777,3.1135817333333335,0.0118181982444444
276,1778412868910,-0.576009236,0.132599198,-0.916760824,-0.208276013,2.9334947,0.01137703054
277,1778412868920,-0.5788176644444444,0.1191837846666666,-0.9690064222222224,-0.3403607055555555,2.8283756666666666,0.0317725425555555
278,1778412868930,-0.5537518,0.120891206,-0.9488969,-0.40117395,2.774621,0.041003123
279,1778412868940,-0.4604807866666667,0.160365054,-0.9085286466666668,-0.4071466655555555,2.744214422222222,0.0149403056666666
280,1778412868950,-0.4680523844444444,0.1452828733333333,-0.9393603933333332,-0.37884408,2.7398028,0.0091711933333333
281,1778412868960,-0.5091943560000001,0.1005851416,-1.05476278,-0.297016843,2.69398917,0.0642764046
282,1778412868970,-0.52472574,0.071589544,-1.12534,-0.06879667,2.4575913,0.21326205
283,1778412868980,-0.5129398477777777,0.060017053,-1.141655366666667,0.0936886988888888,2.265649511111111,0.2850026544444444
284,1778412868990,-0.5072796289999999,0.0534390946,-1.15183247,0.399112334,1.9427692,0.39346199
285,1778412869000,-0.4742519177777777,0.0289854315555555,-1.2313286777777777,0.960481,1.3256912,0.5803813
286,1778412869010,-0.37511334,0.06890646,-1.4701773,1.09248506,0.871953888,0.594919402
287,1778412869020,-0.3135006777777778,0.15662499,-1.6856607666666668,0.9948920777777778,0.4788533311111111,0.5293415755555555
288,1778412869030,-0.2806566,0.21851885,-1.7762011,0.7326349,0.21944688,0.4105657
289,1778412869040,-0.277321047,0.26611005,-1.73569882,0.343952809,-0.0008704643999999,0.2102459869
290,1778412869050,-0.31573998,0.2585415166666667,-1.5756001,-0.2266243366666666,-0.3332426533333333,-0.1068982713333333
291,1778412869060,-0.3633003333333333,0.2226044522222222,-1.4053766666666665,-0.50379628,-0.5291210066666667,-0.31214295
292,1778412869070,-0.457203506,0.1460633875999999,-1.0365116950000002,-0.7028103,-0.6834617599999999,-0.494847363
293,1778412869080,-0.5371655,0.1113784459999999,-0.90496135,-0.7676823,-0.7604285,-0.5778615
294,1778412869090,-0.6465438499999999,0.0507621086,-0.736064245,-0.764689128,-0.83183655,-0.5975308
295,1778412869100,-0.7864822177777778,-0.0134831715555555,-0.5612996777777778,-0.6417799044444445,-0.902077182222222,-0.5179985
296,1778412869110,-0.8309122911111111,-0.0419197901111111,-0.4875182988888889,-0.5321667288888889,-0.9050635588888888,-0.42148461
297,1778412869120,-0.834359658,-0.0263186086,-0.363130946,-0.172984308,-0.88015455,-0.18111621
298,1778412869130,-0.8301772000000001,-0.0085540218888888,-0.3534386622222222,-0.0048613242222222,-0.8642725144444445,-0.1013242896666666
299,1778412869140,-0.7844021111111111,0.040242863,-0.4924982444444444,0.32662513,-0.8439109533333333,0.0401886586666666
300,1778412869150,-0.784082305,0.0605645097,-0.5744725340000001,0.44553673,-0.842282,0.08742751
301,1778412869160,-0.7486717333333333,0.0887551799999999,-0.7210989800000001,0.5024812477777778,-0.8587069966666667,0.1411820655555555
302,1778412869170,-0.7201673333333333,0.1073131761111111,-0.7791477311111111,0.5121869777777778,-0.8758107188888888,0.1759324866666666
303,1778412869180,-0.7004372,0.113817625,-0.8231883,0.4931827999999999,-0.88015455,0.1802763
304,1778412869190,-0.6448750066666666,0.1623062166666666,-0.8636276533333334,0.3797009555555555,-0.9496553944444444,0.1381957088888888
305,1778412869200,-0.634890698,0.164412037,-0.882075918,0.327948613,-0.982349285,0.1100899465
306,1778412869210,-0.6258393566666666,0.1786486433333333,-0.8822466333333333,0.1988901688888888,-1.0510560444444446,0.0280735205555555
307,1778412869220,-0.62217045,0.18084389,-0.8573569000000001,0.1128285766666666,-1.0970053,-0.0368544513333333
308,1778412869230,-0.6326710609999999,0.175290718,-0.81765133,0.0805554818,-1.1625492000000002,-0.0861905469999999
309,1778412869240,-0.6735047533333334,0.1566046666666666,-0.7750452166666667,0.1093671073333333,-1.278427,-0.1264453826666666
310,1778412869250,-0.6896167755555556,0.1448763422222222,-0.7561619722222223,0.16257869,-1.3795561333333335,-0.1328253466666666
311,1778412869260,-0.681067157,0.139624003,-0.759983335,0.196738633,-1.44573802,-0.1334090419999999
312,1778412869270,-0.69726628,0.1248751733333333,-0.7351851666666667,0.2514909,-1.5761132,-0.126649
313,1778412869280,-0.6999493849999999,0.11881791,-0.7283961800000001,0.27865324,-1.64493524,-0.1178935179999999
314,1778412869290,-0.6880686133333334,0.1164193933333333,-0.7181821733333335,0.2830513466666666,-1.7263815777777778,-0.1121922766666666
315,1778412869300,-0.6819232688888889,0.1105653933333333,-0.69881112,0.2768071377777777,-1.7512226888888889,-0.11578949
316,1778412869310,-0.693296576,0.1035121416,-0.707718148,0.266558486,-1.77974928,-0.130110468
317,1778412869320,-0.7188123000000001,0.0873628206666666,-0.72054003,0.2349980311111111,-1.818755333333333,-0.1304498188888888
318,1778412869330,-0.7311707,0.077931374,-0.70751077,0.19936527,-1.8819441,-0.11667182
319,1778412869340,-0.7222677319999999,0.0673697847,-0.675133891,0.2000982909999999,-1.94180713,-0.1092805698
320,1778412869350,-0.72458494,0.043051295,-0.6369884,0.21036053,-2.0548139,-0.09712471
321,1778412869360,-0.70225133,0.0501248765,-0.57853985,0.275232506,-2.18309174,-0.088206342
322,1778412869370,-0.6944849888888889,0.0477805661111111,-0.5721031666666667,0.3276432066666667,-2.2682030666666666,-0.0995681033333333
323,1778412869380,-0.719686311111111,0.0284129048888888,-0.5781740000000001,0.33130828,-2.3028178,-0.10323319
324,1778412869390,-0.7586905780000001,-0.0042593956,-0.532421322,0.3280708019999999,-2.38425133,-0.06761316155
325,1778412869400,-0.7606608911111111,-0.03091644,-0.4594543077777778,0.3617827744444444,-2.502980488888889,0.0190804923333333
326,1778412869410,-0.7608777222222222,-0.0352527364444444,-0.3486077388888888,0.4899249388888889,-2.5529342666666666,0.1217028327777777
327,1778412869420,-0.75251342,-0.0343251752,-0.3556549,0.57283728,-2.5775311199999997,0.178443756
328,1778412869430,-0.714936691111111,0.002124108,-0.4213660688888889,0.6468448222222222,-2.6637013666666665,0.2203885988888888
329,1778412869440,-0.683106918,0.0253124518,-0.461081804,0.668373796,-2.81453982,0.209719136
330,1778412869450,-0.6735759,0.03936205,-0.43810484,0.6648987777777777,-2.956772144444445,0.18495946
331,1778412869460,-0.6917985133333333,0.016677802,-0.3939152466666666,0.6265511333333333,-3.032653088888889,0.1715208244444444
332,1778412869470,-0.741552415,-0.0241934839999999,-0.2899559399999999,0.523725177,-3.0362163,0.2163162879999999
333,1778412869480,-0.74754363,-0.03433127,-0.24211778,0.4766899299999999,-2.991319,0.26762745
334,1778412869490,-0.6780714033333334,-0.0295003655555555,-0.20595713,0.4381386733333333,-2.916456222222222,0.3817201633333333
335,1778412869500,-0.626887164,0.034681899,-0.157841539,0.50417805,-3.0029252,0.39834878
336,1778412869510,-0.5924024511111111,0.0525098377777777,-0.2591242088888889,0.5307838544444444,-3.185636311111111,0.3540962822222222
337,1778412869520,-0.5747523755555555,0.0675513677777777,-0.3013387311111111,0.4372563577777777,-3.2964032333333333,0.3169703444444444
338,1778412869530,-0.5542397,0.088419795,-0.27117437,0.2757212,-3.3443887000000005,0.27801186
339,1778412869540,-0.6027079388888889,0.0523912669999999,-0.1116765764888888,0.0230340333333333,-3.3555876,0.2285332299999999
340,1778412869550,-0.643866791,0.0218488359,0.0021647604799999,-0.0605502329999999,-3.28825188,0.247225163
341,1778412869560,-0.6050556266666667,0.0327390377777777,0.06130778,-0.1861047966666666,-3.1827178333333332,0.2981698266666666
342,1778412869570,-0.5397570766666666,0.07322582,0.106703384,-0.2378486466666666,-3.204911933333334,0.3148663066666666
343,1778412869580,-0.472686084,0.123330372,0.094133542,-0.1953794999999999,-3.3548952400000003,0.261274646
344,1778412869590,-0.4409200166666667,0.1295095899999999,0.1673878133333333,-0.25701398,-3.575289,0.14790139
345,1778412869600,-0.45588025,0.11454937,0.2713573,-0.37246412,-3.603999,0.06543701
346,1778412869610,-0.49550146,0.0943042855,0.443428325,-0.327055261,-3.58622322,0.0457066454
347,1778412869620,-0.5425587333333333,0.0805060553333333,0.6062210111111112,-0.1477317155555555,-3.592732022222222,0.0503694455555555
348,1778412869630,-0.5268295333333334,0.100707096,0.5305390666666666,0.2317401866666666,-3.7090645333333336,0.1041240059999999
349,1778412869640,-0.429738472,0.123037668,0.3561793119999999,0.2996664,-3.8192614,0.108685004
350,1778412869650,-0.38023558,0.13064787,0.30916438,0.1535517248888888,-3.834763277777778,0.0715454866666666
351,1778412869660,-0.352471788,0.109542979,0.344791448,-0.2270290162,-3.65549321,0.010804361
352,1778412869670,-0.35138566,0.0579573094444444,0.5949500333333333,-0.5606729388888889,-3.4913992,-0.06658235
353,1778412869680,-0.3792599,0.049393125,0.6954979,-0.5661027,-3.4781642,-0.10017895
354,1778412869690,-0.420701354,0.0167082914,0.72428007,-0.4145973038,-3.5821914900000005,-0.065895149
355,1778412869700,-0.4158779,-0.014787449,0.71967614,-0.098117344,-3.848948500000001,0.01901262
356,1778412869710,-0.3194698533333333,0.0183039133333333,0.7029780000000001,-0.0767376886666666,-3.930191333333333,0.0175873106666666
357,1778412869720,-0.1895628795,0.032020161,0.60007462,-0.25641077,-3.9698353,-0.0372693174
358,1778412869730,-0.124488965,0.012043386,0.6188776,-0.4732538999999999,-4.030981,-0.1130067399999999
359,1778412869740,-0.1465146445,-0.0638787294,0.8649986399999999,-0.828522686,-4.1413002400000005,-0.243483716
360,1778412869750,-0.16766222,-0.12802577,1.0239927,-0.93627614,-4.151929,-0.2779355
361,1778412869760,-0.2244067322222222,-0.1610053322222222,1.2440902555555555,-0.93770148,-4.013673866666667,-0.20992784
362,1778412869770,-0.253459923,-0.1457554545,1.59125453,-0.7895506400000001,-3.75194602,-0.08684721172
363,1778412869780,-0.2295357577777778,-0.1050637205555555,1.6849052777777778,-0.4556666062222221,-3.4716485,0.0114109664666666
364,1778412869790,-0.1204948379999999,0.0091265486666666,1.4915910666666667,0.0647752626666666,-3.1257055,0.035480046
365,1778412869800,-0.107628234,0.045734376,1.323187,0.2280751,-3.0169747,-0.009773556
366,1778412869810,-0.1595079497777777,0.0772267313333333,1.0766685644444445,0.1984829388888889,-2.910483711111111,-0.068550638
367,1778412869820,-0.1576616348,0.10018268,0.953305676,0.036269052,-2.8119132500000004,-0.111174201
368,1778412869830,-0.1215619739999999,0.1238182,1.0093577,-0.10911259,-2.7653055,-0.14538164
369,1778412869840,-0.0057117153333333,0.1461772333333333,1.1091500666666667,-0.1912969977777777,-2.6353307333333333,-0.2616462488888889
370,1778412869850,0.0077016692599999,0.135379858,1.10876594,-0.179543282,-2.61436509,-0.40938983
371,1778412869860,3.7264833333333384e-05,0.0783006393333333,1.1631809444444443,-0.0575299368888888,-2.7655770111111107,-0.5409391800000001
372,1778412869870,-0.0066467298888888,0.0371905169844444,1.2305324666666666,0.057512966,-2.854964244444444,-0.6141729922222221
373,1778412869880,-0.049545575,-0.0003963645699999,1.3068446,0.2005258879999999,-2.85736029,-0.611946792
374,1778412869890,-0.10640865,-0.058966853,1.3424869,0.29587916,-2.784242,-0.5546493
375,1778412869900,-0.142282692,-0.0709858472,1.33749268,0.302293054,-2.78185967,-0.55165615
376,1778412869910,-0.1291200028888889,-0.0843240224444444,1.240597477777778,0.5647198111111111,-2.6848773555555554,-0.2326649364444444
377,1778412869920,-0.079089984,-0.0582351,1.1999481,0.7191963,-2.6730676,-0.023212196
378,1778412869930,0.1275165781,0.0528994290999999,1.06819041,0.828660116,-2.84092836,0.0758061424
379,1778412869940,0.2701377066666667,0.1197427626666666,1.047988,0.8415693755555556,-2.987585988888889,0.0639947288888889
380,1778412869950,0.3565452,0.1750712,1.056952,0.7888329,-3.2203867,-0.06291727
381,1778412869960,0.34626412,0.164814499,1.19873156,0.6805907600000001,-3.39234031,-0.2561893469999999
382,1778412869970,0.3216346333333333,0.14211196,1.3109640555555555,0.5634302600000001,-3.475721,-0.4310545666666666
383,1778412869980,0.302404847,0.12322366,1.3138937700000002,0.446880582,-3.40840552,-0.52337396
384,1778412869990,0.2823437033333333,0.06890646,1.3234410666666667,0.1842977144444444,-3.2432594666666668,-0.6184489333333333
385,1778412870000,0.32626903,0.04841746,1.3585854,-0.11216683,-3.043241,-0.7305733
386,1778412870010,0.205100383,-0.0092810282,1.51283829,-0.376358286,-2.74928606,-0.8382046080000001
387,1778412870020,0.0289380022222222,-0.0806551088888888,1.630843788888889,-0.7153530666666666,-2.1794944555555555,-0.8862036466666666
388,1778412870030,-0.04905774,-0.11217117,1.6553406,-0.7823426,-2.0108328,-0.855797
389,1778412870040,-0.101883992,-0.161927123,1.84567476,-0.61539809,-1.45392343,-0.54915167
390,1778412870050,-0.11741538,-0.18659624,1.9796886,-0.381016,-1.2484955,-0.4007158
391,1778412870060,-0.1480675866666666,-0.1543077933333333,1.9210978,-0.0086027666666666,-1.1379999666666667,-0.2531622533333333
392,1778412870070,-0.142050968,-0.0964568532,1.80381866,0.39996752,-0.99132872,-0.0709804551999999
393,1778412870080,-0.0921090346666666,-0.0436712456666666,1.6932492333333335,0.4631155511111111,-0.8147260066666666,0.0114194524444444
394,1778412870090,0.0018476656,-0.00527469816,1.61659434,0.457203891,-0.371807463,0.144236316
395,1778412870100,0.0690589,0.0005793021,1.5855498,0.40827504,-0.06284091,0.17172444
396,1778412870110,0.0423635802222222,-0.0162306219666666,1.5107080444444445,0.4075284466666666,0.1198278688888889,0.1842807388888888
397,1778412870120,-0.0107140392,-0.0447221213999999,1.3661895,0.407725275,0.245041376,0.210329979
398,1778412870130,0.0022562293333333,-0.0341584971,1.3002486666666666,0.3592036366666666,0.27442312,0.27373594
399,1778412870140,0.0564362186666666,0.0129479108,1.2331411,0.2531877033333333,0.3213904888888889,0.3098437933333333
400,1778412870150,0.09418232,0.043051295,1.2267789,0.18837002,0.3465031,0.30916506
401,1778412870160,0.1557306288888889,0.0869833961111111,1.236942088888889,0.0257489053333333,0.4689440422222222,0.2255468688888888
402,1778412870170,0.157557972,0.092907857,1.24637157,-0.056579728,0.5236488,0.17661121
403,1778412870180,0.14592315,0.08720021,1.2731535,-0.1360577433333333,0.5786250544444445,0.1057529344444444
404,1778412870190,0.0978139716666666,0.0345616376666666,1.3322457444444449,-0.1702651944444444,0.6583067166666666,0.0644868077777777
405,1778412870200,0.07808383,0.002286719,1.3571218,-0.16836478,0.74905145,0.07398888
406,1778412870210,0.0513885011111111,-0.0149636098888888,1.3364025111111113,-0.0829140344444444,0.8248643833333333,0.1357523146666666
407,1778412870220,0.05627361,-0.0167591071666666,1.3218861333333334,-0.0293630888888888,0.8429183222222222,0.1681950866666667
408,1778412870230,0.065717254,0.0005305187499999,1.31371385,0.0301605832,0.8604700000000001,0.1984795399999999
409,1778412870240,0.069790658,0.0192795803333333,1.2740478666666666,0.038712445,0.9048174866666666,0.19676917
410,1778412870250,0.074181154,0.030824969,1.268519,0.016721943,0.9329164599999998,0.19432579
411,1778412870260,0.0807940082222222,0.0462459218888888,1.2949976666666667,-0.0717830356666666,1.051556611111111,0.1555030522222222
412,1778412870270,0.0703868988888888,0.0515070702222222,1.3163369555555555,-0.1435406191111111,1.1710791,0.1238747388888888
413,1778412870280,0.064961112,0.0491918984,1.34756032,-0.2375890319999999,1.3523242,0.083395922
414,1778412870290,0.04595119,0.0190898690555555,1.3641954222222223,-0.2813121133333333,1.4448064333333337,0.0643510594444444
415,1778412870300,0.03292875,0.0042380523,1.3729764,-0.35841462,1.5718627,0.055663455
416,1778412870310,0.0082596285,-0.03201101388,1.41281106,-0.429761589,1.78126116,0.0953074435
417,1778412870320,-0.0263734896555555,-0.0850151215555555,1.4714442,-0.4683671300000001,1.9628049000000003,0.14301461
418,1778412870330,0.0033911193,-0.1024145131111111,1.4944265333333333,-0.3850882911111111,2.1206071888888887,0.2220853977777778
419,1778412870340,0.008284020025,-0.0963409852,1.47047298,-0.3250012889999999,2.22119328,0.258342581
420,1778412870350,-0.00027440625,-0.094121344,1.4252051,-0.29549736,2.2896082,0.27801186
421,1778412870360,0.01999506865,-0.0777941758,1.39408137,-0.350107108,2.41257175,0.308920732
422,1778412870370,0.047319833,-0.05799119,1.3934655,-0.41949937,2.5437207,0.3250471
423,1778412870380,0.0477263614444444,-0.0582351073333333,1.4005661777777778,-0.4636839733333333,2.672813133333334,0.3144590866666666
424,1778412870390,0.0258551688999999,-0.068586319,1.40476482,-0.484737856,2.81495226,0.3074547159999999
425,1778412870400,0.0070735829999999,-0.0802181,1.402033,-0.4793624,2.9176357,0.31038678
426,1778412870410,-0.0788392845555555,-0.1018995817777777,1.3398613555555554,-0.4651092755555555,3.016660822222222,0.3616300744444444
427,1778412870420,-0.0957250967999999,-0.095194581,1.27603174,-0.454439818,3.10357753,0.451675732
428,1778412870430,-0.0705630611111111,-0.0814918849999999,1.2687901333333331,-0.4543176599999999,3.1080163333333335,0.5064687333333333
429,1778412870440,-0.05695454,-0.0795676499999999,1.2730722333333333,-0.4323271533333333,3.121455,0.5249977733333333
430,1778412870450,-0.06250364,-0.08265726,1.2851055,-0.41522342,3.139373,0.525405
431,1778412870460,-0.0696585311111111,-0.0834974194444444,1.2743460333333334,-0.3880746555555555,3.1581057555555554,0.5311062444444444
432,1778412870470,-0.095773878,-0.078949728,1.21523556,-0.29158795,3.19502137,0.54647924
433,1778412870480,-0.1236081611111111,-0.0808956433333333,1.1551995444444445,-0.2280326777777778,3.1809785777777777,0.5643635
434,1778412870490,-0.1603548799999999,-0.0896495433333333,1.1551995,-0.1871483333333333,3.168082933333334,0.5860825000000001
435,1778412870500,-0.2128935099999999,-0.112686455,1.1682602599999998,-0.1356233577,3.1619745000000004,0.6180705200000001
436,1778412870510,-0.2521725855555555,-0.1398455688888888,1.1827078777777775,-0.037711334,3.165707488888889,0.6881618666666667
437,1778412870520,-0.2593545633333333,-0.1602532611111111,1.1502941444444443,0.14744325,3.107609,0.8222768
438,1778412870530,-0.202774022,-0.127556218,1.0803253,0.2988112049999999,3.0057197,0.906207182
439,1778412870540,-0.1529188166666666,-0.0897782751111111,1.0135788466666666,0.4918253755555555,2.860402488888889,0.9924995533333334
440,1778412870550,-0.14912456,-0.0575033579999999,0.98908216,0.55548924,2.8076067,1.0024767
441,1778412870560,-0.1360614577777777,-0.0129817878666666,0.9506855555555556,0.54062528,2.793082111111111,0.9582921022222222
442,1778412870570,-0.1264403,0.034971554,0.9295359,0.48402008,2.7819512,0.89680016
443,1778412870580,-0.153856532,0.0869197023999999,0.94916512,0.381397748,2.9401224499999996,0.8128697060000001
444,1778412870590,-0.1705180733333333,0.12300514,0.8786284666666666,0.20017974,3.2126749,0.7127314666666666
445,1778412870600,-0.17866896,0.14918554,0.8616966,0.07719582,3.3372877,0.6549046
446,1778412870610,-0.17866896,0.14918554,0.8616965999999999,0.0288167183999999,3.42928132,0.59809582
447,1778412870620,-0.2982355477777778,0.1195903177777777,0.8484166900000001,0.0098668796666666,3.5143655222222225,0.5022606711111111
448,1778412870630,-0.338510599,0.10493905,0.8185568919999999,0.1029124917999999,3.4357562899999996,0.4446509859999999
449,1778412870640,-0.3613998055555555,0.1008087266666666,0.7787717,0.2987297666666667,3.2599137333333332,0.35029545
450,1778412870650,-0.37560117,0.10210962,0.7665081,0.37895438,3.2432172,0.31283015
451,1778412870660,-0.426296196,0.107988011,0.61844461,0.358185552,3.2973993900000003,0.257853899
452,1778412870670,-0.4673748,0.11332979,0.4807292499999999,0.25678492,3.3342335,0.21814883
453,1778412870680,-0.5095351555555556,0.1024721088888888,0.5313081111111111,0.1582348933333333,3.4205665,0.20389573
454,1778412870690,-0.6696305419999999,0.0280443186,0.5855768400000001,0.0374907495,3.71882288,0.2786837869999999
455,1778412870700,-0.69092447,0.013019053,0.5920162,0.053983625,3.8302414,0.36719555
456,1778412870710,-0.6407284511111111,0.0353848573333333,0.5374432688888889,0.2114464844444444,3.7914186,0.4569222344444444
457,1778412870720,-0.4063804080000001,0.16402482,0.281275542,0.480843692,3.5257950800000004,0.47714807
458,1778412870730,-0.3850393944444444,0.2039346733333333,0.2328692733333333,0.4467584177777778,3.4379417333333335,0.3432367744444444
459,1778412870740,-0.4971428333333334,0.16928833,0.1998388966666666,0.3492264577777778,3.475407011111111,0.21251546
460,1778412870750,-0.56253284,0.13381879,0.14028257,0.23235102,3.5333695,0.16072918
461,1778412870760,-0.6276721466666667,0.1048536811111111,0.1790178922222222,0.1644791064444444,3.639521222222222,0.1941900377777777
462,1778412870770,-0.63754636,0.095837903,0.1491154086,0.110181574,3.819307170000001,0.280210897
463,1778412870780,-0.5980023999999999,0.13138978,0.055287774,0.1657686766666666,3.8227075999999993,0.30916506
464,1778412870790,-0.5602562977777779,0.1665341111111111,-0.1034952011111111,0.20391269,3.671760533333333,0.2931472933333333
465,1778412870800,-0.559239955,0.1967950249999999,-0.1381483,0.19508934,3.530926200000001,0.26396236
466,1778412870810,-0.55984974,0.2148601,-0.13253821,0.1860623733333333,3.3893452888888884,0.2117009977777778
467,1778412870820,-0.5597955511111111,0.2129426444444444,-0.1100944966666666,0.14520348,3.283736655555556,0.1332410593333333
468,1778412870830,-0.54326344,0.2182749199999999,-0.03152623,0.1040731024999999,3.36385955,0.031840414
469,1778412870840,-0.5312064666666667,0.2225807411111111,-0.2059808622222222,0.07597413,3.3861554666666667,-0.0237721386666666
470,1778412870850,-0.613325404,0.206536443,-0.2280498929999999,0.04665346,3.3641648,-0.061695572
471,1778412870860,-0.6594287333333333,0.1927958033333333,-0.3264011666666666,0.0297533510666666,3.2146430888888893,-0.0350897818888888
472,1778412870870,-0.6721124,0.18287653,-0.3109328,-0.0009926268,3.131432,-0.02260135
473,1778412870880,-0.615987136,0.216256526,-0.292199972,0.03071034662,3.11267908,0.0086816672
474,1778412870890,-0.5621364266666666,0.2433170399999999,-0.3399893333333333,0.0466534613333333,3.1074054666666666,-0.0091118046666666
475,1778412870900,-0.572076,0.24852058,-0.329257,0.04909685,3.111885,-0.04214846
476,1778412870910,-0.5313602860000001,0.270037109,-0.503651346,0.0565491831,3.04463066,-0.079165808
477,1778412870920,-0.55814236,0.25925294,-0.51813996,-0.019318044,2.9671142,-0.14293826
478,1778412870930,-0.525542888,0.291376764,-0.589595376,-0.0598172182999999,2.87699128,-0.203412136
479,1778412870940,-0.4967295466666666,0.3118610255555556,-0.6416736255555556,-0.1186825333333333,2.6899168,-0.3329117533333333
480,1778412870950,-0.5903257777777777,0.2674004166666666,-0.6326758166666667,-0.14515258,2.5877018,-0.4379775
481,1778412870960,-0.62059415,0.24369105,-0.6884121400000001,-0.156521976,2.45215463,-0.486295517
482,1778412870970,-0.6599165,0.2133966,-0.7031203,-0.21486552,2.3537471,-0.51433337
483,1778412870980,-0.6479070177777778,0.2144739011111111,-0.7566227288888889,-0.3259039777777778,2.365421144444445,-0.5095823433333333
484,1778412870990,-0.573390174,0.246913803,-0.957726556,-0.73665126,2.406158,-0.5166546000000001
485,1778412871000,-0.5477894,0.2810191177777777,-0.9563159577777776,-0.9469320388888888,2.3584303111111113,-0.5904177888888889
486,1778412871010,-0.55473663,0.286422203,-0.92693823,-1.07536604,2.2582716599999997,-0.6844543399999999
487,1778412871020,-0.5718321,0.26096034,-0.9452076,-1.1176977,2.1766014,-0.7550072
488,1778412871030,-0.6363752177777777,0.1989377633333333,-0.935383191111111,-1.1046663444444444,2.0583686666666665,-0.7624731222222222
489,1778412871040,-0.69664127,0.132614445,-0.939490815,-1.03999798,1.96011728,-0.707605444
490,1778412871050,-0.7271935333333334,0.0940535857777777,-0.9023527888888888,-0.9248057888888888,1.840839111111111,-0.6117295555555555
491,1778412871060,-0.7594142666666666,0.037105824,-0.82532258,-0.5644737466666667,1.6402776,-0.3958290333333333
492,1778412871070,-0.7680326,0.01545822,-0.80904114,-0.24479704,1.4814574,-0.2015796
493,1778412871080,-0.6931061566666666,0.0477229727777777,-0.9043617222222224,0.0810984651111111,1.3117097,-0.0300418097777777
494,1778412871090,-0.6191672199999999,0.100874785,-1.0752914,0.638686636,0.943300876,0.235741232
495,1778412871100,-0.5750233733333333,0.1344455111111111,-1.1918581666666666,0.79738474,0.75271654,0.29328305
496,1778412871110,-0.51079196,0.19799936,-1.3317851,0.8444199733333333,0.2621807415,0.24706227
497,1778412871120,-0.4439283639999999,0.2672595,-1.4773484,0.7039251,-0.0287556344,0.135195778
498,1778412871130,-0.4460524433333332,0.2698429866666667,-1.4496679666666663,0.4029810133333333,-0.22980583,-0.0359890799999999
499,1778412871140,-0.51254005,0.2120279555555555,-1.2812705666666666,0.0441846166666666,-0.3823140366666667,-0.2176652333333333
500,1778412871150,-0.5610693,0.16702195,-1.1580249,-0.2047865499999999,-0.503322879,-0.3302851169999999
501,1778412871160,-0.6563797244444445,0.0750077628888888,-0.854131811111111,-0.3003162611111111,-0.6529193888888889,-0.3800827322222222
502,1778412871170,-0.694631967,0.033483662144,-0.7439031899999999,-0.259686436,-0.7144928060000001,-0.36198808
503,1778412871180,-0.75362122,-0.0053661667066666,-0.6036429533333334,-0.0938414076666666,-0.7836406533333333,-0.2714197933333333
504,1778412871190,-0.7800929666666667,-0.0098786249999999,-0.5587419688888889,0.0956569865555555,-0.8464900644444444,-0.1696119275555555
505,1778412871200,-0.787256322,0.0153850443,-0.5580020400000001,0.349816959,-0.953089716,-0.0560681443
506,1778412871210,-0.8033497311111111,0.0267054876666666,-0.5893161888888889,0.5851492277777778,-1.1103082444444443,0.031636799
507,1778412871220,-0.8124559,0.034727637,-0.6062549,0.6910973,-1.1910758,0.08437328
508,1778412871230,-0.77134988,0.0633939446,-0.634848018,0.807280456,-1.2360342,0.178321588
509,1778412871240,-0.7202486444444445,0.1166904133333333,-0.6873199777777778,0.84442,-1.2006457666666668,0.2495056466666666
510,1778412871250,-0.722487256,0.131574746,-0.73113418,0.835501611,-1.18234068,0.26316827
511,1778412871260,-0.7323191266666667,0.1405671433333333,-0.7651157999999999,0.8203933322222222,-1.2011208555555557,0.2757720866666667
512,1778412871270,-0.7472997,0.14479503,-0.7768441,0.800439,-1.2234507,0.2914505
513,1778412871280,-0.729207183,0.154170579,-0.78298168,0.739476404,-1.28013738,0.326513136
514,1778412871290,-0.6540524066666666,0.1937003333333333,-0.7578694333333333,0.7029070466666667,-1.3588551999999998,0.3262687866666667
515,1778412871300,-0.5998284111111111,0.2317716577777777,-0.7472996777777777,0.71756738,-1.4590341444444443,0.2774010144444444
516,1778412871310,-0.60419987,0.237958996,-0.77318842,0.7613447499999999,-1.6701633,0.14979502
517,1778412871320,-0.6228107,0.22583634,-0.7897717,0.7570688,-1.7903169,0.08009735
518,1778412871330,-0.6469787866666666,0.2168825666666666,-0.7659288333333333,0.6320487333333333,-1.8888669666666664,0.00878093
519,1778412871340,-0.67997872,0.203706998,-0.705711876,0.51138604,-1.93398824,-0.045202696
520,1778412871350,-0.7103869933333333,0.1921419644444444,-0.6497533744444444,0.41377265,-1.924839111111111,-0.0733016677777777
521,1778412871360,-0.7562270600000001,0.146356108,-0.580521658,0.313593718,-1.8966044,-0.06914791
522,1778412871370,-0.74656796,0.13918495,-0.54009247,0.28793812,-1.8892742,-0.0555871
523,1778412871380,-0.72946334,0.14308763,-0.47835106,0.30259845,-1.9063779,-0.061695572
524,1778412871390,-0.758687564,0.1183544678,-0.444617425,0.409008057,-1.99385131,-0.0773943482
525,1778412871400,-0.79218036,0.100646116,-0.43322653,0.5683848911111111,-2.138432022222222,-0.0739125177777777
526,1778412871410,-0.8259526,0.0684186266666666,-0.4701392366666666,0.6540392466666667,-2.2863248666666665,-0.0237975889999999
527,1778412871420,-0.8080654,0.07476046,-0.46981403,0.68376714,-2.3730652,0.016569233
528,1778412871430,-0.8080654,0.07476046,-0.46981403,0.68376714,-2.3730652,0.016569233
529,1778412871440,-0.76325485,0.0855171835,-0.447861491,0.623354348,-2.45986655,0.0254265177
530,1778412871450,-0.76062365,0.088429955,-0.4310922233333333,0.5242681555555556,-2.468578011111111,-0.0106643751111111
531,1778412871460,-0.8035733233333333,0.0591396296666666,-0.4318239866666666,0.3291363855555556,-2.502437622222222,-0.0734374166666666
532,1778412871470,-0.834310863,0.026873519,-0.43849511,0.21463646,-2.5295186,-0.08674031
533,1778412871480,-0.8218603266666666,0.0137508023333333,-0.4785272511111111,-0.0166710408888888,-2.655760288888889,-0.0989572566666666
534,1778412871490,-0.8171987799999999,0.0069211356111111,-0.4872100088888889,-0.2086976655555555,-2.7582468,-0.1220337088888888
535,1778412871500,-0.804150628,0.005994252,-0.45331916,-0.583206415,-2.93634275,-0.180505365
536,1778412871510,-0.7126228933333334,0.0330202183333333,-0.3499899266666666,-0.8217762133333333,-3.058512211111111,-0.2460356988888888
537,1778412871520,-0.6779664,0.039849885,-0.22455578,-1.0346226,-3.135479,-0.343907
538,1778412871530,-0.6768823111111111,0.0406155127777777,-0.1683126622222222,-1.0587849777777778,-3.1443023333333335,-0.3772999844444444
539,1778412871540,-0.7611080666666666,0.0002845704444444,0.1347165322222222,-1.1258423555555557,-3.1714510555555555,-0.5016413422222222
540,1778412871550,-0.95350678,-0.0781996844,0.380192918,-0.79761384,-3.1000498199999997,-0.470474564
541,1778412871560,-1.0416968444444443,-0.0954425622222222,0.5289265277777777,-0.3750856846666667,-2.9996672,-0.2634787833333333
542,1778412871570,-1.0325907,-0.070187025,0.5651854,-0.094452254,-2.923515,-0.12216945
543,1778412871580,-0.8989640299999999,0.0245654541,0.47686015,0.3336295092,-2.91227548,-0.017042638
544,1778412871590,-0.7765155111111111,0.1182352133333333,0.3764244066666667,0.6014385222222223,-2.9074293333333334,0.0027742646666666
545,1778412871600,-0.76715448,0.1349408,0.27773572,0.685905085,-2.87098215,-0.0699420105
546,1778412871610,-0.7976142611111111,0.1288591488888888,0.30890353,0.6873643388888889,-2.7862101666666663,-0.1151107722222222
547,1778412871620,-0.8080654,0.13333096,0.38483953,0.6910973,-2.711551,-0.12766708
548,1778412871630,-0.8256273999999999,0.135672552,0.388547058,0.75560282,-2.5473553200000003,-0.131576504
549,1778412871640,-0.8616221111111112,0.1196174131111111,0.26444294,0.8077691,-2.3235867,-0.1130067399999999
550,1778412871650,-0.8566963766666666,0.1140615366666666,0.1651925666666666,0.8021357533333333,-2.2641987777777777,-0.0768988842222222
551,1778412871660,-0.79827833,0.12723303,0.0539055799999999,0.7424085,-2.2875466,-0.02260135
552,1778412871670,-0.6916121766666667,0.1737906244444444,0.08352113,0.6522745799999999,-2.4325209999999995,-0.0714691277777777
553,1778412871680,-0.5631019566666667,0.21184164,0.1473663266666666,0.6115514255555555,-2.528347777777778,-0.1664219422222222
554,1778412871690,-0.565417136,0.196877344,0.19627365,0.587497628,-2.6744114600000004,-0.347938604
555,1778412871700,-0.6146090333333333,0.1453032,0.2945293799999999,0.6184743755555556,-2.751459722222222,-0.4463257422222222
556,1778412871710,-0.6415686055555556,0.0870782566666666,0.3234741722222222,0.7153276166666667,-2.7989021666666667,-0.4858271866666667
557,1778412871720,-0.64503765,0.05963763,0.28062615,0.76745325,-2.8538785,-0.4850127000000001
558,1778412871730,-0.6171566255555556,0.0643804533333333,0.2472976355555555,0.7254405244444444,-2.858901,-0.4819584711111112
559,1778412871740,-0.51716435,0.07305304,0.15933856,0.46569467,-2.863652,-0.47768256
560,1778412871750,-0.47209056,0.0475129356666666,0.3098351399999999,0.1083490266666666,-2.7748755000000003,-0.54711554
561,1778412871760,-0.4811967833333333,0.009197691,0.5271140766666667,-0.1023253991111111,-2.6512128333333336,-0.6037206955555555
562,1778412871770,-0.50981635,-0.013080033,0.56567323,-0.070018366,-2.6217566,-0.62795097
563,1778412871780,-0.5403296333333333,-0.0642957573333333,0.6175834622222223,0.0069483891111111,-2.669945577777778,-0.60107369
564,1778412871790,-0.556191,-0.0787546,0.7138221,0.13461547,-2.711551,-0.54976255
565,1778412871800,-0.493912969,-0.073793939,0.72199641,0.336866998,-2.74258202,-0.502360779
566,1778412871810,-0.4748820444444445,-0.0610028827777777,0.7331085333333333,0.5133407488888889,-2.7700565333333333,-0.4792436155555555
567,1778412871820,-0.4920104,-0.096804425,0.545916,0.60130274,-2.7982912,-0.4379775
568,1778412871830,-0.5011268000000001,-0.1140513666666666,0.5337913,0.54469757,-2.828833566666667,-0.3919603333333333
569,1778412871840,-0.3575073066666666,-0.10840741,0.4687536155555556,0.2485045366666666,-2.914352344444445,-0.1956747288888889
570,1778412871850,-0.207402356,-0.0894198516,0.59705312,-0.1936843939999999,-2.94098526,-0.219049836
571,1778412871860,-0.1866267433333333,-0.1029023499999999,0.8833442066666666,-0.42581144,-2.9123161333333334,-0.26918004
572,1778412871870,-0.16351563,-0.07509585,1.0798801,-0.38345936,-2.9216824,-0.29687178
573,1778412871880,-0.273537295,-0.111219904,1.2182052,0.0894662109999999,-3.0037803199999997,-0.289969192
574,1778412871890,-0.3154282922222222,-0.1214942133333333,1.2529829777777777,0.4595862,-3.0505712,-0.22071948
575,1778412871900,-0.275924646,-0.104853674,1.12741952,0.631173213,-3.05863443,-0.1660893729999999
576,1778412871910,-0.2338957466666666,-0.0676868743333333,1.0637714,0.7380646722222222,-2.9281302777777776,-0.0576232566666666
577,1778412871920,-0.1828629688888889,-0.0309096612222222,1.0281866222222222,0.7417976,-2.81173,-0.018936265
578,1778412871930,-0.1439047379999999,0.0008720021999999,1.0085101,0.660799278,-2.6565748,0.0154620719999999
579,1778412871940,-0.13131864,0.020336553,1.0427743,0.651663721111111,-2.586531,0.0224062172222222
580,1778412871950,-0.116971592,0.0391554023333333,1.0242907666666667,0.7067757333333334,-2.590264,0.0270215068888888
581,1778412871960,-0.0507133240599999,0.0945756422,1.00683613,0.7982399090000001,-2.66359964,0.0230213051
582,1778412871970,-0.0145028791333333,0.14186803,0.9397905866666668,0.8292845522222222,-2.652638266666667,-0.0454741843333333
583,1778412871980,-0.0464081965,0.133477296,0.875819402,0.717180479,-2.64600704,-0.098774001
584,1778412871990,-0.0584925722222222,0.1337103844444444,0.8676047666666666,0.5997417133333333,-2.6340412555555557,-0.1113778155555555
585,1778412872000,-0.0564294410648888,0.1197800211111111,0.8505103666666667,0.3989087066666666,-2.665941,-0.1105633533333333
586,1778412872010,0.0283797034912,0.138755046,0.9893199,0.16149273841,-2.66384381,-0.128766602
587,1778412872020,0.094670154,0.17190027,1.0940273,0.0075592347,-2.5582283,-0.18264332
588,1778412872030,0.0711931748888888,0.15210915,1.1888905444444444,-0.1013751928111111,-2.3819649555555555,-0.2840439688888889
589,1778412872040,0.03439225,0.11576895,1.2470545,-0.1207186899999999,-2.2912116,-0.3310792
590,1778412872050,0.0202654101111111,0.1049485344444444,1.281815988888889,-0.0343856088888888,-2.2745152,-0.3461467833333333
591,1778412872060,-0.0304316538,0.0721901876,1.30815248,0.223615918,-2.28589737,-0.366997048
592,1778412872070,-0.061527982,0.032044552,1.2463226,0.34719032,-2.3504639,-0.35245886
593,1778412872080,-0.0209497322222222,0.0523912684444444,1.2435515333333331,0.35465622,-2.3491064555555554,-0.3145184566666666
594,1778412872090,0.077428297,0.090325396,1.1980668099999998,0.31096705,-2.29249455,-0.245255169
595,1778412872100,0.1448661733333333,0.0936470677777777,1.1984201666666665,0.1711984284444444,-2.2618232666666667,-0.2853335288888889
596,1778412872110,0.1372437844444444,0.0519881259999999,1.3238509555555558,-0.1290839053333333,-2.1082967999999997,-0.3651509111111111
597,1778412872120,0.07271766,0.021800052,1.416668,-0.23746687,-1.9833447,-0.36895174
598,1778412872130,0.052919756,0.0022189638888888,1.4546817333333335,-0.2559280277777778,-1.8510623666666663,-0.3319615522222222
599,1778412872140,0.0307335,-0.04164877,1.5479561,-0.22341739,-1.6876947000000002,-0.255945
600,1778412872150,0.0574389877777777,-0.0223962937777777,1.6160258777777776,-0.1250115922222222,-1.6359083111111112,-0.2226877666666666
601,1778412872160,0.095401905,-0.003811198,1.6053071,0.22441001,-1.4745089,-0.17653486
602,1778412872170,0.129263637,0.0220439698999999,1.44718511,0.403388266,-1.3682214599999998,-0.1875301019999999
603,1778412872180,0.1055007377777777,0.0129377474444444,1.2684683333333335,0.5131371466666667,-1.2770016,-0.1893626533333333
604,1778412872190,0.08881616,0.010092053,1.2250715,0.5225035,-1.2851462,-0.17348062
605,1778412872200,0.116997674,0.0187846337,1.20231403,0.459097522,-1.32179711,-0.15643798
606,1778412872210,0.1292690577777777,0.0464119225555555,1.2323483333333334,0.29750806,-1.263563,-0.1671685233333333
607,1778412872220,0.1105003465,0.0503687906,1.2633024,0.17737478,-1.1886324,-0.17286977
608,1778412872230,0.1093153166666666,0.048742682,1.3342547,0.0118351655,-1.0135228866666666,-0.1547479733333333
609,1778412872240,0.1249463099999999,0.04988096,1.3680981,-0.0052685575,-0.95895386,-0.14293826
610,1778412872250,0.158195208,0.0511493241,1.37785469,-0.00734543825,-0.946187154,-0.144709717
611,1778412872260,0.1974200633333333,0.0524827366666666,1.3690737666666666,-0.0389330283333333,-0.8099750111111111,-0.1717838255555555
612,1778412872270,0.1759960477777777,0.0382203878666666,1.3974833,-0.09255184,-0.7102032711111111,-0.2101993344444444
613,1778412872280,0.0751964619,-0.01145493712,1.4711041,-0.167509588,-0.4335030439999999,-0.178978246
614,1778412872290,0.034880083,-0.032136023,1.5184423,-0.17813833,-0.32061845,-0.13866232
615,1778412872300,0.0301745266666666,-0.0375834929999999,1.5446227,-0.1215331514444444,-0.170825128,-0.0671847161111111
616,1778412872310,0.069497962,-0.02344649078,1.4985752,-0.0059404897,0.0593972592,0.0422248185
617,1778412872320,0.08491349,0.0005793021,1.4366692,0.03749075,0.19745637,0.07521057
618,1778412872330,0.083596338,0.01543382741,1.34189845,0.025640313,0.323779574,0.1020878476
619,1778412872340,0.097109325,0.024483135,1.2924535,-0.03825431,0.4240807,0.12163496
620,1778412872350,0.1278936377777777,0.0434916988888888,1.305462322222222,-0.0898369677777777,0.5049161544444445,0.1113862988888888
621,1778412872360,0.1431424939999999,0.0587107464,1.3399805800000002,-0.142587026,0.650705026,0.0799751756
622,1778412872370,0.1271415666666666,0.033250586,1.3558480666666666,-0.1180038155555555,0.7542096944444444,0.0551883544444444
623,1778412872380,0.1203118999999999,0.0188730519999999,1.3478428333333334,-0.0792489453333333,0.8022629955555556,0.052405606
624,1778412872390,0.1203119,0.01984872,1.3385537,-0.030313294,0.8302941300000001,0.058106847
625,1778412872400,0.12266976,0.0235074693333333,1.2479386666666668,0.0045049982222222,0.8528955,0.0396456839999999
626,1778412872410,0.127775744,0.0271662186,1.17602596,-0.04894413655,0.88001712,0.02047865479
627,1778412872420,0.1607343177777777,0.0235616737777777,1.0517821866666666,-0.2137201844444444,0.986738922222222,-0.0178587983222222
628,1778412872430,0.3115527333333333,0.0399413566666666,0.7022666266666666,-0.7485424333333334,1.3556227666666667,-0.1476214226666666
629,1778412872440,0.4446295800000001,0.062076796,0.3228542,-1.3382137,1.7893243,-0.3243599
630,1778412872450,-0.21379296,-0.018964522,1.1213764,-1.7420515888888888,1.398517822222222,-0.2800395238888888
631,1778412872460,-0.1086614893333333,-0.0647869786666666,1.4413172111111112,-1.2246639611111112,1.2877509,-0.0800888628888888
632,1778412872470,0.0492406774,-0.160442285,1.44326102,-0.8503909999999999,1.43515506,-0.0883285114
633,1778412872480,-0.0160375206666666,-0.0751669853333333,1.4872819666666668,-0.7035433333333333,1.5714554666666667,0.0148894013333333
634,1778412872490,0.015854584,-0.072870106,1.5284429,-0.5935908,1.6378342,0.08742751
635,1778412872500,0.0711728477777777,-0.0910859366666666,1.4646925222222222,-0.4087077066666666,1.7828086,0.0774503406666666
636,1778412872510,0.0431901873333333,-0.1032275682222222,1.4226033666666666,-0.2946828933333333,1.9650447333333336,0.0711382533333333
637,1778412872520,0.0180498336,-0.1146347382,1.41748822,-0.213926352,2.06622145,0.12383401
638,1778412872530,0.0267020991111111,-0.10989462,1.3819472222222222,-0.1302886311111111,2.1012636333333337,0.1755252666666666
639,1778412872540,0.06296099,-0.0831451,1.3424869,-0.0846787,2.1326206,0.18882816
640,1778412872550,0.0609273355,-0.0696351594,1.29020945,-0.10556968,2.2210100400000004,0.173801319
641,1778412872560,0.038294915,-0.060918186,1.2443714,-0.1543153,2.3164854,0.15584241
642,1778412872570,0.0451482988222222,-0.0398871498888888,1.2872397333333334,-0.1908218988888889,2.465600088888889,0.1115899205555555
643,1778412872580,-0.04175853584,-0.0697662652,1.2232177199999998,-0.224883414,2.60297292,0.062016269
644,1778412872590,-0.0828097133333333,-0.0853674466666666,1.2275716666666667,-0.2359058111111111,2.593945966666667,0.0718848466666666
645,1778412872600,-0.0867733585,-0.075568435,1.2609578,-0.226044028,2.56131321,0.159812918
646,1778412872610,-0.0237920383333333,-0.0470420386666666,1.2838926888888889,-0.2116076733333333,2.5657113333333337,0.2209994566666666
647,1778412872620,0.0389182611111111,-0.0361470953333333,1.317949511111111,-0.2223314377777777,2.6735088888888887,0.2014523411111111
648,1778412872630,-0.0168332993999999,-0.0445269894,1.21980596,-0.25994606,2.97322274,0.141792916
649,1778412872640,-0.1181471399999999,-0.035306938,1.103296,-0.3229855,3.0734017,0.15400986
650,1778412872650,-0.1267011586666666,-0.0062571401666666,1.0682127666666668,-0.3562427333333333,3.0377689,0.1739642077777777
651,1778412872660,-0.0805961675,0.004042919,1.07680678,-0.4110085769999999,2.93418954,0.1591409829999999
652,1778412872670,-0.0108441289444444,0.0227824954444444,1.1216508555555555,-0.4725073166666667,2.8731116666666665,0.0289728233333333
653,1778412872680,-0.0709370678,0.02923341396,1.15459788,-0.485715202,2.89399571,-0.15588822
654,1778412872690,-0.14912456,0.0030184689,1.1601591,-0.49768782,2.9371827,-0.23456535
655,1778412872700,-0.30776188,-0.0789781839999999,1.1477905666666668,-0.5275514355555555,3.042248522222222,-0.2025298077777778
656,1778412872710,-0.418512234,-0.1307911669999999,1.10656451,-0.5841837799999999,3.2015574,-0.058870404
657,1778412872720,-0.3949620533333333,-0.1253630133333333,1.1333181,-0.6030250333333333,3.259845666666666,0.10134126
658,1778412872730,-0.27399973,-0.0824031816666666,1.2066150333333332,-0.5469628311111111,3.3188263555555557,0.2765186888888889
659,1778412872740,-0.18501079,-0.046283185,1.2243397,-0.46714544,3.3739386,0.2926722
660,1778412872750,-0.1746748211111111,-0.0261600612666666,1.1970176444444445,-0.3024712044444444,3.3935534444444446,0.20966484
661,1778412872760,-0.28431535,-0.042868353,1.1599152,-0.13232478,3.3904314,0.11613733
662,1778412872770,-0.381107596,-0.0805809225,1.12822131,0.0861752771,3.31071571,0.157125177
663,1778412872780,-0.3092152011111111,-0.0613416555555555,1.179580988888889,0.4441114066666667,3.3493009333333337,0.2684419066666667
664,1778412872790,-0.20915854,-0.04384402,1.1660131,0.57931226,3.6152232,0.25296712
665,1778412872800,-0.3228847,-0.05506419,0.81605375,0.5307838355555555,4.053811411111111,0.2053210355555555
666,1778412872810,-0.4315699,-0.06417041,0.6846029833333334,0.4224602622222222,4.169465144444445,0.2307051288888889
667,1778412872820,-0.47261904,-0.0209006075,0.5095419000000001,0.1633252905,4.2053015,0.37330404
668,1778412872830,-0.3987156822222222,0.0457072727777777,0.4381928955555556,-0.1282779226666666,4.267404366666666,0.4492527033333333
669,1778412872840,-0.39243144,0.05329579,0.35846603,-0.35719293,4.3525157,0.43866467
670,1778412872850,-0.418923822,0.130559451,0.410972143,-0.693464337,4.3256996700000006,0.430662597
671,1778412872860,-0.4215693088888888,0.1601109777777777,0.4338430622222222,-0.7699220577777779,4.252336966666667,0.3950230444444444
672,1778412872870,-0.4168230988888888,0.1614931722222222,0.4757289644444444,-0.7260089466666666,4.119782755555556,0.3173775666666666
673,1778412872880,-0.399733701,0.175574275,0.6558278599999999,-0.424974079,3.97482882,0.1299424928
674,1778412872890,-0.4241711,0.1340627,0.6503428,-0.14698513,4.0128846,0.006795676
675,1778412872900,-0.489113897,0.0786326344999999,0.4785096219999999,0.2010145539999999,4.05155132,-0.0511737299999999
676,1778412872910,-0.5338048166666667,0.0291988569999999,0.2687351999999999,0.45340985,4.079263444444445,-0.0633244986666666
677,1778412872920,-0.5317653966666667,0.0294224457777777,0.1021875355555555,0.4965763955555555,4.036436222222222,-0.0454741852222222
678,1778412872930,-0.437342594,0.1099149439999999,-0.2177200239999999,0.37871003,3.91319435,-0.0982242422
679,1778412872940,-0.42490283,0.11869595,-0.30483487,0.25556323,3.8473449999999993,-0.1692047
680,1778412872950,-0.4154713833333334,0.1642473833333333,-0.3507115166666666,0.0970822983333333,3.7546998333333335,-0.2628679444444444
681,1778412872960,-0.463023967,0.173022295,-0.393989432,-0.3393256548,3.60862596,-0.507736244
682,1778412872970,-0.5771711855555556,0.082677592,-0.3020772655555556,-0.7754196888888889,3.5438218444444445,-0.7005060522222223
683,1778412872980,-0.7062424,0.018141304,-0.261368914,-0.89938096,3.5023386000000003,-0.6879361860000001
684,1778412872990,-0.7343416,-0.014787449,-0.26239336,-0.9631534,3.47595,-0.67804044
685,1778412873000,-0.7576255000000001,-0.0287211886666666,-0.2873440066666666,-0.98962345,3.2442352666666667,-0.6621584500000001
686,1778412873010,-0.7846189,-0.037014354,-0.23333678,-0.97537035,3.0715692,-0.66338015
687,1778412873020,-0.78063495,-0.0455514393333333,-0.189248845,-0.9268419333333332,3.041434033333333,-0.6548282777777777
688,1778412873030,-0.7641028944444445,-0.1115444493333333,-0.106588195,-0.6637704222222222,3.0324748555555554,-0.5716173
689,1778412873040,-0.7868142,-0.121683925,-0.16696097,-0.53739285,3.0666823,-0.459968
690,1778412873050,-0.7340841555555556,-0.0848084744444444,-0.3041606955555556,-0.3912646311111111,2.9650102,-0.3673228333333334
691,1778412873060,-0.70702296,-0.067503944,-0.36755192,-0.28633466,2.867546,-0.3164189
692,1778412873070,-0.70702296,-0.067503944,-0.36755192,-0.28633466,2.867546,-0.3164189
693,1778412873080,-0.7110340366666666,-0.0453346254444444,-0.4396462399999999,-0.32984056,2.803890711111111,-0.3291788022222222
694,1778412873090,-0.72556067,-0.040673107,-0.49399224,-0.39506546,2.8332622,-0.27610296
695,1778412873100,-0.7196253533333334,-0.0449009953333333,-0.5589858466666667,-0.4549285066666666,2.8491443000000003,-0.24678229
696,1778412873110,-0.72995114,-0.070187025,-0.6084501,-0.5130268811111112,2.8477189333333337,-0.2169865188888889
697,1778412873120,-0.738805296,-0.079529029,-0.6403971199999999,-0.4859595440000001,2.75886111,-0.167249981
698,1778412873130,-0.6893695,-0.061893856,-0.5711004,-0.3812195811111111,2.580439477777778,-0.0997038511111111
699,1778412873140,-0.6565017,-0.0575033579999999,-0.5711004,-0.26862007,2.5486076,-0.0787993
700,1778412873150,-0.6336141888888889,-0.0403682108888888,-0.6438282311111111,-0.169009552,2.485215222222222,-0.0995002322222222
701,1778412873160,-0.5979312,-0.013080033,-0.660191,-0.059023116,2.403226,-0.13805148
702,1778412873170,-0.64986112,-0.0406182226,-0.8528851599999999,-0.0609778264,2.32161656,-0.151734456
703,1778412873180,-0.6419073511111111,-0.0788630022222222,-0.9650766266666666,-0.1271665226666666,2.0557894444444447,-0.0918985777777777
704,1778412873190,-0.5976601977777778,-0.0855029577777777,-0.9564311466666666,-0.14820682,1.9554747,-0.07452337
705,1778412873200,-0.60051676,-0.1000241299999999,-1.01541296,-0.1760614509999999,1.85431848,-0.0486845263
706,1778412873210,-0.6161978777777777,-0.1041490322222222,-1.0789112666666667,-0.1799708788888888,1.7062491222222222,-0.0125393360222222
707,1778412873220,-0.60729762,-0.117732482,-1.0885269000000002,-0.116076259,1.50198176,0.00936123432
708,1778412873230,-0.5593822333333334,-0.1228222133333333,-1.0875126333333334,0.0911774372222222,1.04979194,0.0379488862222222
709,1778412873240,-0.5271649,-0.12753794,-1.1299745,0.22135578,0.83029413,0.025121093
710,1778412873250,-0.53467754,-0.135355464,-1.16189098,0.238215162,0.655836158,0.036971531
711,1778412873260,-0.5774422,-0.16122891,-1.2561404,0.25495237,0.34344888,0.063604474
712,1778412873270,-0.5866027144444445,-0.1827748922222222,-1.2502017,0.2093424466666666,0.1584215444444444,0.1002553055555555
713,1778412873280,-0.582027841,-0.174985817,-1.20878097,0.148603871,-0.143045162,0.146252106
714,1778412873290,-0.5915894,-0.17805916,-1.1729038,0.12850699,-0.3016822,0.15095563
715,1778412873300,-0.6164214555555555,-0.1962919355555555,-1.113686288888889,0.1270138073333333,-0.4551405933333334,0.1558424066666666
716,1778412873310,-0.64430586,-0.206725484,-1.04844538,0.1243532284,-0.78816095,0.184430071
717,1778412873320,-0.6495636555555556,-0.2078745933333333,-0.9951495222222222,0.1242989344444444,-0.9548136444444444,0.22832961
718,1778412873330,-0.64333022,-0.1940153866666666,-0.8707114166666667,0.1409275566666666,-1.0817341444444444,0.2717676377777778
719,1778412873340,-0.63503706,-0.181474,-0.8309936500000001,0.14988665,-1.1012813,0.27801186
720,1778412873350,-0.7230028977777778,-0.1984126622222222,-0.8848652944444444,0.1352941873333333,-1.0989057222222225,0.3182599077777778
721,1778412873360,-0.7447995500000001,-0.1984702566666666,-0.8947642444444445,0.1126249659999999,-1.118385,0.35803285
722,1778412873370,-0.73775643,-0.18955375,-0.8846858,0.0847703298,-1.25808578,0.450820555
723,1778412873380,-0.6592390222222222,-0.1433654133333333,-0.8409704622222223,0.0805215488888889,-1.4103021,0.5109483111111112
724,1778412873390,-0.644062,-0.127294,-0.8502936,0.09735378,-1.5319285,0.49791688
725,1778412873400,-0.6233832444444444,-0.0868038422222222,-0.8381518222222222,0.1576919111111111,-1.7597067,0.4593656133333333
726,1778412873410,-0.6341223333333333,-0.0702073466666666,-0.8391444766666667,0.1990937833333333,-1.9796795777777776,0.4080544644444444
727,1778412873420,-0.65137946,-0.0575033535999999,-0.786881298,0.192523791,-2.1428979999999997,0.3945004319999999
728,1778412873430,-0.6530056,-0.052137187,-0.7067079333333334,0.1828724033333333,-2.2515067666666666,0.4009957866666667
729,1778412873440,-0.6635753,-0.053112853,-0.6435742,0.1932567988888889,-2.275058266666667,0.4113123222222222
730,1778412873450,-0.683731968,-0.0356972041,-0.531689584,0.292763821,-2.25162882,0.46212123
731,1778412873460,-0.70433986,-0.03652652,-0.49472398,0.35390964,-2.2362354,0.4869216
732,1778412873470,-0.7243410499999999,-0.0241934855,-0.4735946999999999,0.525435556,-2.25798166,0.5833133260000001
733,1778412873480,-0.7131209,-0.010153031,-0.4798146,0.6984275,-2.3205323,0.68056023
734,1778412873490,-0.6233053444444444,0.0716132632222222,-0.4813322888888889,1.0072447111111111,-2.6023279555555554,0.7100165955555556
735,1778412873500,-0.56518546,0.122717515,-0.4999407700000001,1.2435475500000002,-2.83805748,0.659302729
736,1778412873510,-0.5187803166666667,0.1561879633333333,-0.5065031566666667,1.3229169666666667,-2.9145559000000003,0.5663317866666666
737,1778412873520,-0.50950128,0.1555476933333333,-0.5025903133333334,1.2616965444444446,-2.8340598111111115,0.4415831866666667
738,1778412873530,-0.580021644,0.101951072,-0.57616776,1.07922968,-2.7491791599999997,0.354245606
739,1778412873540,-0.6311818222222222,0.0607691306666666,-0.6173869666666667,0.8191037333333333,-2.711347311111111,0.3071967955555555
740,1778412873550,-0.618249478,0.0275564837299999,-0.5197284900000001,0.535392356,-2.77208589,0.313135575
741,1778412873560,-0.6201073244444445,-0.0019140683666666,-0.4001995111111111,0.4401748344444444,-2.8662309777777777,0.2943689911111111
742,1778412873570,-0.6545233111111112,-0.0162306221111111,-0.2906063922222222,0.3956508722222221,-2.927451511111111,0.2654555422222222
743,1778412873580,-0.6729447669999999,-0.0358679468,-0.265951492,0.347312504,-2.9867376200000004,0.27520195
744,1778412873590,-0.69360757,-0.03652652,-0.20796946,0.27144524,-3.011477,0.31588438
745,1778412873600,-0.6025927444444444,0.0182497098888888,-0.1781540166666666,0.1084847702222222,-2.993083788888889,0.3676706544444444
746,1778412873610,-0.5745152,0.040825553,-0.16696097,-0.066353284,-2.9650526,0.3458159
747,1778412873620,-0.5412375500000001,0.0522049436666666,-0.0007690161111111,-0.1476638493333333,-2.908718866666667,0.2931472888888888
748,1778412873630,-0.6110387150000001,0.0104731726,0.0340507679,-0.155170477,-2.90140232,0.218576418
749,1778412873640,-0.6637040366666667,-0.0164643753333333,0.0565954455555555,-0.12438377,-3.023694,0.21814883
750,1778412873650,-0.6132166800000001,-0.0139032499999999,0.0923936033333333,0.0220159532222222,-3.2715621555555554,0.2512024388888889
751,1778412873660,-0.608761124,-0.0312304807,0.0997954559999999,-0.0059404895,-3.35636135,0.245026105
752,1778412873670,-0.5801964333333334,0.004075441,0.14672604,-0.06696413,-3.2936885,0.27251422
753,1778412873680,-0.52846578,0.0347547381111111,0.1186891711111111,-0.1831693411111111,-3.3234163555555556,0.2396642277777777
754,1778412873690,-0.55350786,0.013506886,0.1686074,-0.21364383,-3.4244095999999997,0.14301461
755,1778412873700,-0.6037310188888889,-0.0366891313333333,0.3038930733333333,-0.17223348,-3.5592033999999995,0.0835588133333333
756,1778412873710,-0.61281013,-0.036282603,0.34944114,-0.15675868,-3.5905602,0.09292514
757,1778412873720,-0.5254236255555556,0.0175416746666666,0.4839137377777778,-0.13707582,-3.551601777777778,0.0866809255555555
758,1778412873730,-0.5153518888888888,0.0388471182222222,0.5659510444444444,-0.0427338583333333,-3.591781933333333,0.039577811
759,1778412873740,-0.5567825,0.0288675386,0.66045312,0.1376697,-3.71981544,0.0034818294
760,1778412873750,-0.6314697844444445,-0.0412964461111111,0.7735410533333333,0.4235462222222222,-3.7728641333333335,0.0421145238888888
761,1778412873760,-0.67430764,-0.066772185,0.82288337,0.5832488444444445,-3.685309344444444,0.1233317555555555
762,1778412873770,-0.676515065,-0.084754947,0.617700658,0.645100529,-3.5386992399999997,0.291328327
763,1778412873780,-0.6252499,-0.07655934,0.46633816,0.60191363,-3.4690015,0.43499961
764,1778412873790,-0.490952442,-0.0267393659999999,0.285300192,0.2978949305,-3.58658963,0.474582501
765,1778412873800,-0.3206047444444444,0.0908894551111111,0.6281532033333334,-0.0529825144444444,-3.797501711111111,0.4238007422222222
766,1778412873810,-0.26333854,0.098938696,0.74919003,-0.05841227,-3.791529,0.3342098
767,1778412873820,-0.3626187159999999,0.0670069576,0.8448114930000001,0.038345936,-3.8302566,0.218270992
768,1778412873830,-0.45089014,0.0438372464444444,0.954852488888889,0.1555878877777777,-3.796890666666666,0.1979229966666666
769,1778412873840,-0.42221975,0.050856624,0.95371425,0.1852479233333333,-3.729562,0.2384425333333333
770,1778412873850,-0.349014268,0.0480271928,0.90837006,0.129973018,-3.52910896,0.261274632
771,1778412873860,-0.35194126,0.04841746,0.9661539,0.10651649,-3.4396808,0.28961796
772,1778412873870,-0.3044215577777778,0.0528723253333333,0.9628136,0.0933493405555555,-3.379206988888889,0.3253185777777778
773,1778412873880,-0.25577712,0.085004956,1.0537505,0.090634465,-3.3938673,0.3445942
774,1778412873890,-0.18882877,0.1167107413333333,1.0589641555555556,0.1783928555555555,-3.398618466666667,0.3097080444444444
775,1778412873900,-0.13322119,0.1486977,1.10530836,0.21219307,-3.3457326000000003,0.2373294319999999
776,1778412873910,-0.13058689,0.15528345,1.1416215,0.21219307,-3.2240517,0.2138729
777,1778412873920,-0.1638815068888889,0.1356142833333333,1.0815773,0.1838904766666666,-3.1159318000000003,0.2397320933333333
778,1778412873930,-0.023934323,0.19545348,0.998732,0.1445111884,-3.0566796199999997,0.243071388
779,1778412873940,0.07962863,0.2255924266666666,0.9647717333333332,0.0925348775555555,-3.077720011111111,0.1533226651111111
780,1778412873950,0.0860720966666666,0.2140402533333333,1.0185553777777778,-0.08400847,-3.1063619,-0.0450669546666666
781,1778412873960,0.0482955,0.18043736,1.091832,-0.21058959,-3.0444627,-0.1808108
782,1778412873970,-0.0720265577777777,0.0800249938888889,1.1829992666666669,-0.3080536744444444,-3.083285411111111,-0.2247917911111111
783,1778412873980,-0.0749840471111111,0.0628356443333333,1.2968067,-0.2797341144444444,-3.1326961888888887,-0.2027334188888888
784,1778412873990,0.056344748,0.085980624,1.413741,-0.14759597,-3.1421983,-0.19180603
785,1778412874000,-0.0026559817777777,0.0536074635555555,1.4381462444444444,0.0793677277777777,-3.0779914111111113,-0.2352440611111111
786,1778412874010,-0.057625312,0.03228847,1.4720676,0.26716933,-3.0383542,-0.2547233
787,1778412874020,-0.0752550721111111,-0.0212546288222222,1.4237145444444443,0.5807375744444445,-2.960437311111111,-0.0896248662222222
788,1778412874030,-0.0298425262222222,0.0029642651444444,1.4127856777777776,0.7569330755555556,-2.9313201888888885,0.0219311142222222
789,1778412874040,-0.023202572,0.002774552,1.3693177,0.8340356,-2.8813665,0.08926006
790,1778412874050,0.0277184186666666,0.0453989915555555,1.3545912222222225,0.9116810555555556,-2.8469554666666665,0.1134903322222222
791,1778412874060,0.1612899,0.1501612,1.2187296,1.0869263,-2.7390392,0.15217732
792,1778412874070,0.172321024,0.188632956,1.15030492,0.97251467,-2.78515812,0.1096623544
793,1778412874080,0.20766456,0.1911697,1.1499146,0.8780166,-2.815395,0.088649206
794,1778412874090,0.281113964,0.253237323,1.23648065,0.711010952,-2.75821976,-0.0107585454
795,1778412874100,0.26788486,0.2744028566666666,1.3128950555555556,0.4773686455555555,-2.6425929999999997,-0.1518973444444444
796,1778412874110,0.20303014,0.23730043,1.4061795,0.31176117,-2.511193,-0.25777754
797,1778412874120,0.1126132765,0.109671037,1.65534045,0.16747904,-2.1952476,-0.31819033
798,1778412874130,0.0540648097555555,0.04724869,1.7030702333333332,0.1305431433333333,-1.8015158,-0.3101067933333333
799,1778412874140,-0.0050443321777777,0.0131511726666666,1.6922803666666666,0.1130321944444444,-1.5533761555555554,-0.24807186
800,1778412874150,-0.086742864,-0.0494175204,1.6805249400000002,0.1034622525,-1.043250785,-0.0692929865
801,1778412874160,-0.14327055,-0.080462016,1.6882998,0.118122585,-0.88137627,0.017790927
802,1778412874170,-0.1216473374,-0.0621499711839999,1.69878818,0.2126206545,-0.784251538,0.0956128655
803,1778412874180,-0.028080907,-0.00015244792,1.7100084,0.41927028,-0.59733224,0.22547899
804,1778412874190,-0.028080907,-0.00015244792,1.7100084,0.5190420188888889,-0.4690543311111111,0.2435329233333333
805,1778412874200,0.0183791195,0.06456779304,1.49334631,0.5241527749999999,-0.306935474,0.233175672
806,1778412874210,0.09686541,0.17068069,1.1921427,0.340471,-0.1208714,0.16195089
807,1778412874220,0.0599865635555555,0.1489246788888888,1.1881791000000002,0.1435066888888889,-0.0368459665,0.10419188
808,1778412874230,0.0191474597,0.109003311,1.26595803,-0.145290016,0.08205206,0.058839864
809,1778412874240,0.0167489448888888,0.07570903,1.2980465555555556,-0.2067208966666666,0.1635798066666666,0.07093464
810,1778412874250,0.0240935461111111,0.0589871822222222,1.3439707555555556,-0.1803696233333333,0.1946821111111111,0.0864094377777777
811,1778412874260,0.047807667,0.07549221,1.3312362,-0.14087665,0.2322746699999999,0.09353599
812,1778412874270,0.0801334,0.1065983611111111,1.3203141555555555,-0.1422340855555555,0.3092414322222222,0.0776539593333333
813,1778412874280,0.0921822054999999,0.1219369924,1.31172287,-0.160607018,0.433121239,0.0491884764
814,1778412874290,0.0248219102777777,0.0714540328888889,1.3101780666666665,-0.1645639455555555,0.5174046011111111,0.0512517835555555
815,1778412874300,-0.0087572858333333,0.0496641453333333,1.304100466666667,-0.1180716853333333,0.5786250799999999,0.10982525
816,1778412874310,-0.018812073,0.048905294,1.274861,-0.085900396,0.56518644,0.15095563
817,1778412874320,0.0460494336666666,0.0839276615555555,1.268688533333333,-0.0614665066666666,0.560639008888889,0.1620866277777777
818,1778412874330,0.0867327022222222,0.1258271266666666,1.2915319333333335,-0.055358034,0.5706841,0.15523157
819,1778412874340,0.117086101,0.174241886,1.31547302,-0.0869388368,0.640992582,0.077936476
820,1778412874350,0.0815799599999999,0.1861287466666666,1.2743019999999998,-0.1954711333333333,0.7590286133333334,-0.0555871
821,1778412874360,0.07149807,0.1853157,1.3161134,-0.2814479,0.8278507600000001,-0.10445488
822,1778412874370,0.0239783631111111,0.1300279166666666,1.3230615666666667,-0.4184134222222221,0.9861280711111112,-0.1216264777777777
823,1778412874380,-0.0201942684444444,0.1049519233333333,1.3513763,-0.6006495222222221,1.1930695666666666,-0.1269204922222222
824,1778412874390,-0.0390815488,0.074248235,1.39937735,-0.6875391399999999,1.34474971,-0.07947123
825,1778412874400,-0.0269697307,0.0528316741111111,1.4631002555555557,-0.7195610666666666,1.4612993555555556,-0.0378725284444444
826,1778412874410,-0.0024696563,0.041313387,1.5301503,-0.6815528,1.559035,-0.023212196
827,1778412874420,-0.01276293932,0.0355569532,1.54161432,-0.6061742640000001,1.66691058,-0.016217995
828,1778412874430,-0.0286229426666666,0.0258653304444444,1.5421292,-0.525311678888889,1.7794150666666668,-0.0046746786666666
829,1778412874440,-0.0117750768,0.0376180492,1.5244914,-0.468122797,1.89500094,0.035505498
830,1778412874450,0.0268037326666666,0.0666841091111111,1.5225312999999998,-0.4418292088888889,2.105064555555556,0.0583104613333333
831,1778412874460,0.02853825,0.06256463,1.4635305,-0.45065257,2.2126415,0.044057358
832,1778412874470,0.0183364352,0.0562166977999999,1.44498064,-0.4890137819999999,2.29229594,0.041247461
833,1778412874480,-0.022470824,0.0308249689999999,1.3707812,-0.5801522,2.4685864,0.037948888
834,1778412874490,-0.0351544877222222,0.0213122196666666,1.3870999777777775,-0.6556936333333333,2.5284494666666664,0.0479260595555555
835,1778412874500,-0.0062015814399999,0.0272637868999999,1.43971813,-0.756442701,2.7737887,0.072950431
836,1778412874510,-0.0046649063,0.02350747,1.4252051,-0.76584977,2.8730438,0.06910209
837,1778412874520,-0.0637503301444444,0.0019072929666666,1.4016230111111112,-0.74508093,2.967385666666667,0.0834909411111111
838,1778412874530,-0.1264403,-0.010396948,1.3444382,-0.7200362,3.028199,0.11002886
839,1778412874540,-0.1543552166666666,-0.020438185,1.3200973888888887,-0.6872540866666667,3.045913533333333,0.1562496366666667
840,1778412874550,-0.1529052699999999,-0.0261600645,1.32817203,-0.61631434,3.0610624799999995,0.2029998179999999
841,1778412874560,-0.1264403,-0.020184105,1.3432186,-0.55693996,3.0691257,0.21875967
842,1778412874570,-0.1254375322222222,-0.0097397284222222,1.2986394444444445,-0.5378000866666667,3.0791707444444447,0.2157733055555555
843,1778412874580,-0.12375722,0.0025306356,1.2282729,-0.4616478,3.0947814,0.20409934
844,1778412874590,-0.09511734,0.0525538793333333,1.1560938666666667,-0.4974163266666667,3.095527944444444,0.1652087324444444
845,1778412874600,-0.11839105,0.03936205,1.1625984,-0.5777088,3.1729698,0.082540736
846,1778412874610,-0.198764641,0.00204280183,1.15952499,-0.619490733,3.26807856,0.0792421586
847,1778412874620,-0.2285533088888888,-0.0436780250222222,1.1635028555555555,-0.5893827611111111,3.311224777777778,0.1481050055555555
848,1778412874630,-0.23967862,-0.08290118,1.1794591,-0.54594475,3.351948,0.2346417
849,1778412874640,-0.19932058,-0.07711832,1.0967916133333333,-0.3842738166666666,3.310817644444444,0.2598900511111111
850,1778412874650,-0.1863116833333333,-0.0374920258333333,0.9684203266666668,-0.2493444555555556,3.2360905111111107,0.2631479177777778
851,1778412874660,-0.2045241299999999,-0.0067381974999999,0.9222185,-0.27595025,3.2218375000000004,0.27312508
852,1778412874670,-0.2005130566666666,0.0019885988333333,0.9240071955555555,-0.2953616166666666,3.226045544444444,0.27950504
853,1778412874680,-0.18744996,0.07378479,1.0535066,-0.3633014,3.2407737,0.3018349
854,1778412874690,-0.182547243,0.1075459139999999,1.04327126,-0.320603185,3.45457038,0.29169484
855,1778412874700,-0.2021967533333333,0.1337916866666666,0.9705647555555555,-0.1770523884444444,3.5890925444444446,0.2368814733333333
856,1778412874710,-0.2674851,0.12772086,0.8809660000000001,0.003283304,3.5901784999999995,0.16683766
857,1778412874720,-0.3282305266666666,0.1069710051111111,0.7994639777777777,0.1109960396666666,3.5828481666666665,0.1379242246666666
858,1778412874730,-0.36242968,0.09329812,0.7440678,0.20791714,3.5871240000000006,0.116748184
859,1778412874740,-0.354526768,0.094926272,0.631372222,0.2068176139999999,3.6190714,0.0810747048
860,1778412874750,-0.3812214133333333,0.0679307956666666,0.5228048766666666,0.1553842766666666,3.6891356,0.0226777040666666
861,1778412874760,-0.40416992,0.061101127,0.4556058299999999,0.10651649,3.7086828,0.0031305922
862,1778412874770,-0.412365526,0.050807842,0.367524489,0.00206161061,3.65920419,-0.03228327842
863,1778412874780,-0.41880494,0.052807957,0.30843264,-0.13965495,3.5852916,-0.080020994
864,1778412874790,-0.423762548,0.0691991597,0.3297052139999999,-0.300498677,3.5168156500000003,-0.1781230634
865,1778412874800,-0.46664307,0.06305246,0.3387088,-0.4304946,3.4845018,-0.27976805
866,1778412874810,-0.5798814,0.020336553,0.40118194,-0.5123481,3.4948862,-0.3170297
867,1778412874820,-0.624829152,-0.0119519162999999,0.4320800829999999,-0.47887369,3.5053928,-0.270849666
868,1778412874830,-0.6523009444444444,-0.0421095031111111,0.4563917933333333,-0.38040513,3.5217636,-0.18386503
869,1778412874840,-0.6376117222222222,-0.0553419817777777,0.4296016155555555,-0.31843807,3.562690388888889,-0.1515579944444444
870,1778412874850,-0.64215025,-0.076867288,0.311835276,-0.1528416154,3.62395823,-0.0745844496
871,1778412874860,-0.6257377,-0.06506477,0.21156722,-0.056579728,3.5730746,-0.030542362
872,1778412874870,-0.6279296311111111,-0.0701599197777777,0.1819144066666666,0.0137355803577777,3.457488811111111,-0.0283704606666666
873,1778412874880,-0.61842024,-0.067503944,0.1422644,0.06314634,3.4142544,-0.020768806
874,1778412874890,-0.6283496799999999,-0.0594648533333333,0.022430171,0.0159074822222222,3.3360659666666668,-0.0367187066666666
875,1778412874900,-0.6549650199999999,-0.0723121474999999,-0.0137660467,-0.052792476,3.3087000000000004,-0.0397050709999999
876,1778412874910,-0.6411349,-0.056039855,-0.06713806,-0.09139802,3.2847548,-0.029931515
877,1778412874920,-0.6600046222222222,-0.0645837155555555,-0.0966147127777777,-0.1751943844444444,3.2686012333333334,-0.0452705693333333
878,1778412874930,-0.6997055,-0.077291094,-0.13790439,-0.25884652,3.2407736999999996,-0.0543654079999999
879,1778412874940,-0.7100312722222222,-0.0634454355555555,-0.1457469822222222,-0.2857238033333333,3.1827432333333334,-0.0197252763333333
880,1778412874950,-0.7121452,-0.056771606,-0.1396118,-0.3083251566666666,3.122337288888889,0.0266142755555555
881,1778412874960,-0.638150046,-0.0020549973999999,-0.164043106,-0.286456824,3.08842854,0.0375823769
882,1778412874970,-0.6182678,0.0171656366666666,-0.2113842799999999,-0.2965154466666667,3.061999066666667,-0.000152712
883,1778412874980,-0.6447937,0.016677802,-0.22748278,-0.3205421,3.059963,-0.018936265
884,1778412874990,-0.6715666,0.01553139395,-0.244108748,-0.297329896,3.0296649600000003,0.0100637084
885,1778412875000,-0.6921338666666667,0.0183852189999999,-0.2566917999999999,-0.2167998711111111,2.954082777777778,0.094961296
886,1778412875010,-0.6262425111111111,0.0459342533333333,-0.2933402888888889,-0.1537723165222222,2.927943577777778,0.1219064475555555
887,1778412875020,-0.569435668,0.07227861,-0.35453288,0.03687990104,2.81066088,0.1268882419999999
888,1778412875030,-0.52765274,0.10820753,-0.383437,0.19570018,2.6567276,0.09903361
889,1778412875040,-0.4900865239999999,0.135428633,-0.451078138,0.5220758830000001,2.31996742,-0.068651598
890,1778412875050,-0.5439985455555555,0.1372336144444444,-0.6646830933333333,0.6420258999999999,2.095155266666667,-0.2107423033333333
891,1778412875060,-0.5967658455555556,0.1247938599999999,-0.8031363166666667,0.5663486966666667,2.019274466666667,-0.2617819777777778
892,1778412875070,-0.60778549,0.105518346,-0.8750327739999999,0.333385169,2.03732826,-0.265596384
893,1778412875080,-0.61890805,0.09866429,-0.91447407,0.011835165,2.1008565,-0.25044736
894,1778412875090,-0.6113737444444445,0.10340712,-0.8456522955555555,-0.25421428,2.1043858,-0.2560128744444444
895,1778412875100,-0.60984042,0.1050305159999999,-0.7640506840000001,-0.466534606,2.07068054,-0.2870982199999999
896,1778412875110,-0.6399153666666666,0.0722603142222222,-0.6711943133333333,-0.4198387077777778,2.0379391888888887,-0.3093601888888889
897,1778412875120,-0.6638192,0.032776304,-0.67214286,-0.2672685795,1.95101562,-0.309333044
898,1778412875130,-0.6660145,0.013506886,-0.7162918,-0.0571905749999999,1.7844375,-0.30053684
899,1778412875140,-0.6630062,-0.0085370836666666,-0.7929324333333334,0.0391875495555555,1.674688622222222,-0.3006047155555555
900,1778412875150,-0.6575749799999999,-0.0598449538,-0.97178834,0.291297787,1.33008935,-0.291068717
901,1778412875160,-0.6512168466666667,-0.0780838233333333,-1.0294299,0.29771167,1.2420052,-0.27182704
902,1778412875170,-0.6341358977777777,-0.0983763411111111,-1.0639712777777777,0.1646827295555555,1.0797233777777775,-0.2267600811111111
903,1778412875180,-0.625006,-0.11753734,-1.0499089,0.049707696,1.0043856,-0.20402299
904,1778412875190,-0.6287799111111111,-0.1434230033333333,-1.064008488888889,-0.0345892266666666,0.9064464233333334,-0.19099158
905,1778412875200,-0.6578567933333334,-0.1765685677777778,-1.0764957333333334,-0.0801312853333333,0.7852950399999999,-0.1785031488888889
906,1778412875210,-0.680417744,-0.196072414,-1.04425,-0.08284616,0.698962,-0.16981554
907,1778412875220,-0.7000035855555555,-0.2187153366666666,-1.022204,0.0004326836666666,0.2586598677777778,-0.1261738988888888
908,1778412875230,-0.706510734,-0.225897331,-0.99775339,0.046042614,0.08803836,-0.09529217
909,1778412875240,-0.7124162422222223,-0.23779505,-0.9604828933333334,0.0803179333333333,-0.1400791577777778,-0.0466958787777777
910,1778412875250,-0.73939276,-0.244435,-0.93886576,0.0750917944444444,-0.2289913733333333,-0.0132180556666666
911,1778412875260,-0.776033084,-0.248837692,-0.912413016,0.03968979974,-0.328559486,0.0549304396
912,1778412875270,-0.7894973,-0.25544173,-0.8859054,0.0045049987,-0.38475743,0.110639706
913,1778412875280,-0.7929663044444444,-0.2513222544444444,-0.8462282977777777,-0.016874656,-0.44217706,0.18577392
914,1778412875290,-0.787155678,-0.240745756,-0.8265238760000001,-0.0149199446999999,-0.45634872,0.196769172
915,1778412875300,-0.784436011111111,-0.21535472,-0.7708478444444444,0.011224318,-0.5698441,0.2810661
916,1778412875310,-0.7980309777777778,-0.1985718855555555,-0.7474351666666667,0.0370156467777777,-0.6346618111111111,0.3376033977777777
917,1778412875320,-0.770535818,-0.151438708,-0.71504475,0.1012021172,-0.75584711,0.39999806
918,1778412875330,-0.7420182088888888,-0.1235336255555555,-0.6848536222222221,0.1700446,-0.8435037,0.40812233
919,1778412875340,-0.784143302,-0.134837132,-0.718255314,0.260205666,-0.899212998,0.397371416
920,1778412875350,-0.8081399577777777,-0.1289438344444444,-0.7533772844444444,0.2853589911111112,-0.943954142222222,0.4301806888888888
921,1778412875360,-0.7630661555555556,-0.0849812488888888,-0.7813362366666666,0.2652689022222222,-1.0600151333333332,0.4943875444444445
922,1778412875370,-0.73400016,-0.0566740374,-0.7593004019999999,0.21243741,-1.10073147,0.491014304
923,1778412875380,-0.7384882,-0.040673107,-0.74486053,0.16454698,-1.1037246,0.48203483
924,1778412875390,-0.7364013833333334,-0.0309977443333333,-0.7478959399999999,0.0955891097777777,-1.1107832666666666,0.4711753366666666
925,1778412875400,-0.712315971,-0.00520762082,-0.726636886,-0.0267703816,-1.13023543,0.43530503
926,1778412875410,-0.6962906288888889,0.0283722531111111,-0.6637006466666666,-0.1379751268888888,-1.1297875222222222,0.375543811111111
927,1778412875420,-0.69507104,0.042075627,-0.63332963,-0.2149334044444444,-1.1245613222222224,0.3044819033333333
928,1778412875430,-0.6931197,0.063540295,-0.59597987,-0.24479704,-1.1397647,0.23769593
929,1778412875440,-0.7084593666666668,0.0644888588888888,-0.5645078977777778,-0.2299330866666666,-1.2051932,0.1469511824444444
930,1778412875450,-0.73063407,0.0655891899999999,-0.504090394,-0.203603021,-1.24342538,0.0852895492
931,1778412875460,-0.7351546522222221,0.0635131916666666,-0.5044264622222223,-0.1841110555555555,-1.223518511111111,0.0264106607111111
932,1778412875470,-0.7781924055555556,0.0476721572222222,-0.5344959777777778,-0.2058640111111111,-1.1960983111111112,-0.0036565995888888
933,1778412875480,-0.828212937,0.0234342934,-0.5650268759999999,-0.2313584,-1.1855782,-0.0060321167
934,1778412875490,-0.8373083411111111,0.0155124234444444,-0.5637558066666667,-0.2676020166666666,-1.3069331666666666,0.0613646953333333
935,1778412875500,-0.8062157344444444,0.0228909035555555,-0.5260977777777778,-0.2544348633333333,-1.4288311,0.0916355708888888
936,1778412875510,-0.770423012,0.0393864456,-0.433067948,-0.178313951,-1.57444354,0.0882216175
937,1778412875520,-0.78771874,0.0179786917333333,-0.3665762666666666,-0.0588195,-1.6414737666666666,0.0831515816666666
938,1778412875530,-0.8109925,-0.0033233648,-0.3597466,0.04665346,-1.6968573,0.097811915
939,1778412875540,-0.7754141480000001,0.00657965227,-0.34262365,0.197654904,-1.7547657,0.138616515
940,1778412875550,-0.7432615133333333,0.0182226081555555,-0.3371741466666667,0.3332086977777778,-1.798461622222222,0.1491230933333333
941,1778412875560,-0.780179636,-5.488124000000011e-05,-0.437208432,0.445109138,-1.84333849,0.14600776
942,1778412875570,-0.7900122,0.0013347661555555,-0.4584887822222222,0.4665770111111111,-1.911536244444444,0.1769505677777777
943,1778412875580,-0.790229,-0.017988855,-0.49277264,0.4504235,-1.9466939,0.20593189
944,1778412875590,-0.7551599,-0.0042228081,-0.462972134,0.420919575,-2.05792908,0.261274646
945,1778412875600,-0.6670409777777778,0.0345379206666666,-0.3956870533333333,0.428433,-2.1678205,0.28961796
946,1778412875610,-0.6309751555555555,0.0188730524888888,-0.4102746177777778,0.4997663888888889,-2.256393466666667,0.2150945944444444
947,1778412875620,-0.69632112,-0.01582409488,-0.4668504,0.508698356,-2.421597,0.121512794
948,1778412875630,-0.7194627,-0.03457519,-0.5081394,0.46508384,-2.5008087,0.12774344
949,1778412875640,-0.7206009766666667,-0.0558874086666666,-0.47746688,0.3338195422222222,-2.6069603888888886,0.1561138977777777
950,1778412875650,-0.745915458,-0.100658312,-0.386992092,0.1061499861,-2.7405662800000004,0.238734381
951,1778412875660,-0.7535873166666667,-0.1239130555555555,-0.2925509533333333,0.0311786638888888,-2.7615047222222224,0.3204996633333333
952,1778412875670,-0.741308475,-0.17917204,-0.158530592,0.0027946258,-2.7720248,0.4957178279999999
953,1778412875680,-0.73092675,-0.19248074,-0.085431814,0.03504736,-2.8013456,0.61886466
954,1778412875690,-0.6592355733333333,-0.1488670911111111,-0.0373395782222222,0.2759926733333333,-2.893787133333334,0.76859008
955,1778412875700,-0.6026876,-0.087047765,-0.0788613099999999,0.5116303959999999,-3.0211284,0.8700449880000001
956,1778412875710,-0.6026469888888889,-0.0480075442222222,-0.14455789,0.6815273666666666,-3.258462888888889,0.9381341222222224
957,1778412875720,-0.5741222844444445,0.003570669,-0.1798343377777777,0.7621592266666667,-3.4774177333333336,0.9905312444444444
958,1778412875730,-0.49420568,0.07305304,-0.16427788,0.79494137,-3.6522558,1.017137
959,1778412875740,-0.4059755955555555,0.1458892666666666,-0.0657355441333333,0.6812559088888889,-3.6609433333333334,0.8906916500000001
960,1778412875750,-0.37522516,0.17615187,-0.0009519526,0.5336344822222222,-3.610921711111112,0.7473461855555557
961,1778412875760,-0.47150923,0.1425266055,-0.0538811920999999,0.361361966,-3.5029647000000006,0.708536992
962,1778412875770,-0.5056799000000001,0.1266638933333333,-0.0670567566666666,0.0381015966666666,-3.5101318999999997,0.7524365433333333
963,1778412875780,-0.4475870999999999,0.14650245,0.04634417,-0.11583191,-3.624156699999999,0.79723203
964,1778412875790,-0.4475871,0.14650245,0.04634417,-0.1158319099999999,-3.624156699999999,0.79723203
965,1778412875800,-0.4025844688888889,0.16537889,0.0916855655555555,-0.1125740611111111,-3.679811766666666,0.7820287144444444
966,1778412875810,-0.341147948,0.187608504,0.156070078,-0.0849841267999999,-3.95138776,0.614955216
967,1778412875820,-0.1815044933333333,0.29611484,0.1304818688888888,-0.4406753799999999,-4.411946133333334,0.1301613666666666
968,1778412875830,-0.15814948,0.32367742,0.14052649,-0.7383616,-4.498279,-0.04703524
969,1778412875840,-0.2320287969999999,0.23978534,0.544123209,-1.09222543,-4.33035724,-0.1803831939999999
970,1778412875850,-0.3434753466666667,0.14008948,0.9044938533333332,-1.2978977333333337,-4.087382600000001,-0.2889307533333333
971,1778412875860,-0.4507681866666667,0.08459843,1.0760587666666668,-1.0796216133333334,-3.941797433333333,-0.2587956233333333
972,1778412875870,-0.447702976,0.091743156,1.1489024,-0.635494926,-3.90685688,-0.1683495039999999
973,1778412875880,-0.37486944,0.10991494,1.0296028,-0.26312247,-4.0260944,-0.14538164
974,1778412875890,-0.203054524,0.192340494,1.03584699,0.317442039,-4.3372597,-0.234137753
975,1778412875900,-0.1677503022222222,0.1895435744444444,0.7990608055555556,0.5630908611111112,-4.581150777777777,-0.3963720022222222
976,1778412875910,-0.1909867455555555,0.1745223822222222,0.8125914111111111,0.4837486111111111,-4.7065781555555555,-0.4608503311111111
977,1778412875920,-0.106469624,0.147575688,0.8953815199999999,0.1640582971,-4.636330689999999,-0.474933737
978,1778412875930,-0.1237572199999999,0.13820928,0.9634709,-0.030924143,-4.54226,-0.4856235699999999
979,1778412875940,-0.1271178511111111,0.1117443226666666,1.1107694777777777,-0.163715555,-4.383711288888889,-0.4755785299999999
980,1778412875950,-0.21647604,-0.024330689,1.452036,-0.261160093,-3.8108317,-0.3826958159999999
981,1778412875960,-0.24606789,-0.0346835962222222,1.4950365222222224,-0.0412406677777777,-3.7170055,-0.2575739302222222
982,1778412875970,-0.15425697,-0.0022054126666666,1.5746447666666663,0.5704889333333334,-3.768724022222222,-0.0291000843333333
983,1778412875980,-0.070601677,0.0278979688,1.52579026,1.1767209,-3.8599439,0.0122933015
984,1778412875990,-0.0656881134444444,0.0468828155555555,1.229336633333333,1.5561249222222222,-3.8759616222222224,0.0413424814444444
985,1778412876000,-0.053204324,0.06085721,1.0354568,1.76008,-3.8678849,0.10941801
986,1778412876010,0.0434781468,0.120994858,0.89141172,1.46943892,-3.8849276,0.173007207
987,1778412876020,0.1753354344444444,0.169921841111111,0.9445300155555556,0.986068711111111,-3.783248655555555,0.2040993355555555
988,1778412876030,0.2227874,0.18604743,0.98761857,0.5689279,-3.596058,0.19127154
989,1778412876040,0.2445162977777778,0.23115169,1.25713966,0.2692733566666667,-3.4827795555555556,0.1842807355555555
990,1778412876050,0.32309812,0.27708933,1.521857,0.13583715,-3.3816504,0.16378342
991,1778412876060,0.309310728,0.251060381,1.61870119,0.29496287,-3.22148627,0.09915578
992,1778412876070,0.2055844888888889,0.2040227533333333,1.7937428444444443,0.7144452777777778,-3.0982173555555557,0.0956400144444444
993,1778412876080,0.27086946,0.21315269,1.8784024,0.8352573,-3.083557,0.11247225
994,1778412876090,0.359200842,0.2141375019999999,1.7866347399999998,1.18014165,-2.78668516,-0.0195165708
995,1778412876100,0.36874104,0.19946286,1.7124475,1.2597961,-2.6596289,-0.07818845
996,1778412876110,0.223985631,0.1150280532,1.53734888,1.10018174,-2.40227901,-0.117099413
997,1778412876120,0.1115850966666666,0.057740498,1.428945077777778,0.8468634,-2.1378891,-0.12949961
998,1778412876130,0.15128931,0.06402813,1.4022769,0.46141875,-1.8349088,-0.13011047
999,1778412876140,0.0336391557,0.01097320205,1.40255746,0.0036421737999999,-1.46284172,-0.1256512772
1000,1778412876150,-0.15058807,-0.025794188,1.5777445,-0.32787228,-1.1886324,-0.008551862
