id,timestamp,acc_x,acc_y,acc_z,gyro_x,gyro_y,gyro_z
0,1778413001440,1.0028764714285714,-0.0913337314285714,0.0846565028571428,0.0140167627142857,0.1235547711428571,-0.0753087371428571
1,1778413001450,1.0035579222222222,-0.098295032,0.0810616364444444,0.0049801017644444,0.1195988077777777,-0.0682112755555555
2,1778413001460,1.00560134,-0.0955360636,0.0847214078,-0.001603474024,0.1067302879999999,-0.0559536093999999
3,1778413001470,1.0083277666666666,-0.0947175864444444,0.09916907,-0.0090693848888888,0.1129473544444444,-0.0481890621111111
4,1778413001480,1.0274075,-0.09363351,0.10393899,-0.010155336,0.15095563,-0.052532863
5,1778413001490,1.04528963,-0.096560514,0.118720341,-0.0063680826,0.153399014,-0.0626118433
6,1778413001500,1.0436922666666666,-0.1025771286666666,0.12952314,0.0020616095555555,0.1415893055555555,-0.0785278108888888
7,1778413001510,1.0152116,-0.111683354,0.11320782,0.014889402,0.10880717,-0.07330167
8,1778413001520,1.00828448,-0.107927029,0.117647102,0.0109799792,0.0742332139999999,-0.0447140196
9,1778413001530,1.0123660666666667,-0.1037696066666666,0.13272115,0.01977618,0.08742751,-0.030542362
10,1778413001540,1.011065,-0.10680502,0.13857515,0.03260397,0.110639706,-0.019547112
11,1778413001550,1.01716302,-0.1200740825,0.146651848,0.0575265408,0.0851673795,0.0070934642999999
12,1778413001560,1.0223394888888888,-0.1184859166666666,0.1597450999999999,0.0645037733333333,0.087495385,0.0160262574444444
13,1778413001570,1.0232609,-0.1048536799999999,0.1814130249999999,0.0673611795,0.152016975,0.01027750522
14,1778413001580,1.0188704,-0.09387743,0.18885247,0.07291989,0.20722993,0.0012980504
15,1778413001590,1.0085445999999998,-0.088755182,0.19788756,0.0951140053333333,0.2416409966666667,-0.0197507283333333
16,1778413001600,1.01889478,-0.0824865202,0.218177355,0.1361425829999999,0.21727074,-0.044897275
17,1778413001610,1.0238639333333337,-0.0853674457777777,0.2540425944444444,0.1580991488888888,0.1933161955555555,-0.0551798706666666
18,1778413001620,1.030985,-0.0960997808888888,0.2755038844444444,0.1966504,0.2053295155555555,-0.0551798697777777
19,1778413001630,1.0300906,-0.1086099949999999,0.29287074,0.2042520499999999,0.22433366,-0.049478628
20,1778413001640,1.0399387,-0.1229136799999999,0.3162481333333333,0.1976006066666666,0.2897621955555556,-0.0385512496666666
21,1778413001650,1.0670744,-0.12889472,0.33907465,0.165157825,0.4466820649999999,-0.040621343
22,1778413001660,1.0783691222222225,-0.1190821588888889,0.3534318688888889,0.1502938711111111,0.5106852888888889,-0.0449990815555555
23,1778413001670,1.0941389777777777,-0.0759766602222222,0.4010735333333333,0.1380769366666666,0.5248705133333333,-0.0498858593333333
24,1778413001680,1.0969847,-0.054820273,0.4228905,0.13644801,0.49677154,-0.05314371
25,1778413001690,1.100616322222222,-0.0251098665555555,0.4678829844444444,0.1255885022222222,0.4597134711111111,-0.0536866855555555
26,1778413001700,1.1262005555555556,0.0272238108888888,0.5132006766666667,0.1139823993333333,0.4684010711111111,-0.0584377211111111
27,1778413001710,1.12947452,0.039484012,0.514615374,0.1050504552,0.471238104,-0.091382752
28,1778413001720,1.1540816,0.0161086640266666,0.57104959,0.1057020266666666,0.3129065066666666,-0.16411429
29,1778413001730,1.2204676,-0.00015244792,0.71943223,0.1089598799999999,0.22983128,-0.2284568699999999
30,1778413001740,1.1901474111111112,-0.0799301404266666,0.7689337555555555,0.1061092577777777,0.3910949566666667,-0.3691553466666666
31,1778413001750,1.0528053666666668,-0.19010256,0.7382951333333333,0.1274889099999999,0.4745774299999999,-0.52980816
32,1778413001760,1.06626954,-0.1710282696,0.825828664,0.127163124,0.642275358,-0.505292832
33,1778413001770,1.160267511111111,-0.0743403775555555,0.945468468888889,0.0955212405555555,0.97078901,-0.4448325399999999
34,1778413001780,0.9342008,-0.10339018,0.9131936,0.09124531,0.93658155,-0.40254834
35,1778413001790,1.00214385,-0.0425908997,1.12645903,0.1719382284,0.4046175815,-0.150085172
36,1778413001800,1.1253604222222222,-0.0115352257777777,1.2259692111111111,0.2464683811111111,0.0160262567777777,-0.0119284895555555
37,1778413001810,1.112751162222222,0.0019343946222222,1.2953600888888888,0.2614002122222222,-0.1302377266666666,0.0442609737777777
38,1778413001820,0.941865916,-0.01201899384,1.43213232,0.315792755,-0.343708486,0.18552958
39,1778413001830,0.8914849,-0.022867188,1.4059356,0.3679591,-0.4617241599999999,0.2034885
40,1778413001840,0.767047835,-0.0927310178,1.62663152,0.53435393,-0.5592764809999999,0.283204065
41,1778413001850,0.8948591722222221,-0.1029226735555555,1.7884038111111111,0.7157348444444445,-0.612874931111111,0.3390965766666667
42,1778413001860,0.9971618,-0.06628435,1.8774267,0.8275198777777777,-0.661131891111111,0.3065859444444444
43,1778413001870,0.75457452,0.1350810539999999,1.85837674,0.98967942,-0.602952044,0.176733388
44,1778413001880,0.5547478166666667,0.2196605222222222,1.770415011111111,1.0032402,-0.56373566,0.16683766
45,1778413001890,0.4714502766666666,0.2978764733333333,1.5716025666666669,0.90374,-0.4695294377777778,0.2013165911111111
46,1778413001900,0.373643754,0.25492343,1.18606316,0.5438220420000001,-0.484630952,0.294749068
47,1778413001910,0.4002977666666666,0.16774353,1.0101605666666666,0.2171477088888889,-0.8073958577777778,0.4067648877777778
48,1778413001920,0.3849493,0.10848194,0.72747536,-0.32019849,-1.11105485,0.5223507549999999
49,1778413001930,0.3726437,0.08817588,0.5815278,-0.49157932,-1.2100121,0.55594736
50,1778413001940,0.1846720177777777,-0.02502856,0.3839587255555556,-1.0530158688888889,-1.3909586777777778,0.7571875955555556
51,1778413001950,0.109317352,-0.0484296564,0.4590206799999999,-1.27957236,-1.52386546,0.94908864
52,1778413001960,0.1523869388888888,-0.0693265391111111,0.4322304866666667,-1.2422427444444446,-1.5515435777777775,1.100755188888889
53,1778413001970,0.3078025,-0.1166531533333333,0.1842383986666666,-1.1036483,-1.252974933333333,1.1395100666666669
54,1778413001980,0.3684971,-0.1797666,-0.072992064,-1.0718843,-1.0652412,1.081276
55,1778413001990,0.3684971,-0.1797666,-0.072992064,-1.0718843,-1.0652412,1.081276
56,1778413002000,0.3448372,-0.39916962,-0.5837841,-0.92222667,-0.7323295,0.8546517
57,1778413002010,0.521289548,-0.308615582,-0.326674556,-0.707452739,-0.810823357,0.93668849
58,1778413002020,0.7439458444444444,-0.1268502211111111,-0.46230005,-0.065106136,-0.4541225055555555,0.8980218222222223
59,1778413002030,0.758495492,-0.103634094,-0.65225762,0.105294794,-0.20028155,0.8308286
60,1778413002040,0.8832154777777778,-0.1127538744444444,-0.9580775666666664,0.4215779222222222,0.0187411328888888,0.5174640044444445
61,1778413002050,1.017213788888889,-0.1407602555555555,-1.0923062999999995,0.6156237366666667,0.0170443356111111,0.3340740688888888
62,1778413002060,1.21377808,-0.09420672225,-1.1805933199999998,0.7369719669999999,0.02824405065,0.197494545
63,1778413002070,1.3680609333333331,0.0018259870833333,-1.4549561555555557,0.9749376666666666,0.2355325233333333,-0.1895662633333333
64,1778413002080,1.3478531,0.003994135,-1.5131066,1.0649358,0.25304347,-0.28404397
65,1778413002090,1.34880431,-0.033352556,-1.68458303,0.985770021,0.274484218,-0.362110252
66,1778413002100,1.3307788,-0.099243596,-1.9384972,0.82609457,0.2053974,-0.44530764
67,1778413002110,1.38768458,-0.1732875476,-1.93009427,0.4179264296,-0.15141376,-0.375793236
68,1778413002120,1.4547495,-0.23736142,-1.8809025,0.052151084,-0.48493636,-0.29809347
69,1778413002130,1.3695209222222222,-0.2597712433333333,-1.700390622222222,-0.1607291844444444,-0.6356120222222222,-0.2524835366666667
70,1778413002140,1.2933925199999998,-0.27290617,-1.53161374,-0.601470756,-0.89035571,-0.1313932448999999
71,1778413002150,1.152377633333333,-0.3031985977777778,-1.307660977777778,-0.8252376666666666,-1.0090433666666667,-0.0310089826666666
72,1778413002160,1.05336432,-0.3091237366666666,-1.1707288666666666,-0.8800782,-1.0774583,0.01901262
73,1778413002170,0.993307928,-0.2862728,-1.028828334,-0.950814288,-1.2847187,0.235619058
74,1778413002180,0.9983814,-0.26910108,-0.9649952699999998,-0.95582324,-1.3443985,0.25968644
75,1778413002190,0.9983814,-0.26910108,-0.9649952699999998,-0.9114350066666668,-1.4003928,0.3061108266666667
76,1778413002200,1.0081137100000002,-0.25305135,-0.547419117,-0.74996772,-1.44396655,0.380634185
77,1778413002210,1.0252461555555556,-0.2583145333333333,-0.4917834177777778,-0.4982986599999999,-1.1057608133333334,0.2786227033333333
78,1778413002220,1.0420669,-0.276028314,-0.409487296,-0.23853586,-0.6824844,0.154498538
79,1778413002230,1.0303345,-0.27934557,-0.37416816,-0.12194038,-0.50875944,0.10575293
80,1778413002240,1.0104146111111112,-0.2584466533333333,-0.3451996766666667,0.07258053,-0.2951664817777777,0.0369901953333333
81,1778413002250,0.99501536,-0.210433016,-0.309176578,0.2688797,-0.0585649832,-0.017225892
82,1778413002260,1.0236268,-0.1776153733333333,-0.2849150055555556,0.37895438,0.051591142,-0.07187636
83,1778413002270,1.0489840111111113,-0.1455030744444444,-0.2689181366666667,0.4666448955555555,0.1216349611111111,-0.1548158444444444
84,1778413002280,1.0347555,-0.12802577,-0.24138604,0.51272994,0.14301461,-0.23700874
85,1778413002290,1.0031885944444443,-0.1391002588888888,-0.2107169077777777,0.5290191811111112,0.1815743466666666,-0.2820078244444444
86,1778413002300,0.96542215,-0.14269125,-0.17232713,0.52494687,0.30435464,-0.35123718
87,1778413002310,0.944610001,-0.146715869,-0.195432143,0.496664627,0.311318304,-0.352947556
88,1778413002320,0.89969677,-0.1795328433333333,-0.2494454533333333,0.3991801888888889,0.2395369577777777,-0.3339976977777777
89,1778413002330,0.8995341700000001,-0.21126233,-0.2631251,0.2873273,0.2585411,-0.29381752
90,1778413002340,0.9364198388888888,-0.2028336511111111,-0.2479480744444444,0.1833475044444444,0.1784183088888888,-0.24114892
91,1778413002350,0.9479415066666668,-0.1890557466666666,-0.2356946499999999,0.1384841566666666,0.0957078888888888,-0.2195656533333333
92,1778413002360,0.932883711,-0.189264092,-0.212960596,0.1004080168,0.055968882,-0.208543256
93,1778413002370,0.9535922277777776,-0.1897299066666666,-0.1763381944444444,0.027920809,0.1609582533333333,-0.1861048
94,1778413002380,0.9854538,-0.17683959,-0.1764737,-0.005879405,0.27259058,-0.1771457
95,1778413002390,0.979526643,-0.168497634,-0.251825678,0.001695101,0.177031171,-0.151245779
96,1778413002400,0.9630440044444444,-0.1926670688888888,-0.25082087,0.0264955,0.05688515,-0.12644538
97,1778413002410,0.997503316,-0.19802984,-0.173943078,0.0537392882,0.093291647,-0.0808761762
98,1778413002420,1.0253748666666669,-0.1776526466666667,-0.1230254733333333,0.0976252688888889,0.1947499833333333,-0.052600738
99,1778413002430,1.0237488,-0.17440042,-0.11961064,0.12850699,0.21761434,-0.046424393
100,1778413002440,1.0348623,-0.2029691649999999,-0.1869773699999999,0.304553164,0.118580726,0.0206008236
101,1778413002450,1.0678469,-0.2036196099999999,-0.2225231466666666,0.3407424711111111,0.0752105715555555,0.0463650028888888
102,1778413002460,1.0765465,-0.1840148033333333,-0.21967745,0.36375105,0.0484690345555555,0.0547132477777777
103,1778413002470,1.05396703,-0.152374752,-0.22465335,0.404304522,-0.0076203184999999,0.05236488
104,1778413002480,1.025944,-0.14878917,-0.25333795,0.42354622,-0.059786674,0.044668205
105,1778413002490,1.01216575,-0.16937573,-0.2751746009999999,0.466855301,-0.1671125323999999,0.0496771540999999
106,1778413002500,1.0835389,-0.15488708,-0.26507643,0.4950153499999999,-0.20944425,0.05077668
107,1778413002510,1.0814926777777778,-0.1568384177777777,-0.1892454566666666,0.5119154722222222,-0.0701032044444444,0.0276323552222222
108,1778413002520,1.07597745,-0.1760011149999999,-0.170253835,0.51700587,0.13110309,0.012904149
109,1778413002530,1.0884578333333337,-0.1850141744444444,-0.1900110855555555,0.51272994,0.18699561,0.012904149
110,1778413002540,1.0945354,-0.1784656933333333,-0.2039854733333333,0.5140873622222223,0.1456616222222222,0.0076101388888888
111,1778413002550,1.0830997400000002,-0.17732742,-0.203530162,0.512241252,0.104775576,0.0017867282799999
112,1778413002560,1.0618302333333334,-0.1892081933333333,-0.2171569833333333,0.5145624333333333,0.0131077599999999,-0.0072792630666666
113,1778413002570,1.04246326,-0.2112867159999999,-0.238629783,0.5242138300000001,-0.13363811,-0.0261442623
114,1778413002580,1.0564641,-0.20735966,-0.24699612,0.5267794,-0.20333578,-0.041537613
115,1778413002590,1.0676571666666668,-0.1935580388888889,-0.2194267544444444,0.5380461444444444,-0.1839244155555555,-0.0990929992222222
116,1778413002600,1.0671964,-0.18488884,-0.2003775499999999,0.53533125,-0.11231954,-0.13927318
117,1778413002610,1.0576565555555557,-0.19358176,-0.2293494233333333,0.4986804233333333,0.0173158222222222,-0.1793176066666666
118,1778413002620,1.0585237666666667,-0.1969525466666666,-0.3010541599999999,0.4068497133333333,0.1458652333333333,-0.2423027466666666
119,1778413002630,1.0635376,-0.19370033,-0.31950036,0.36246148,0.08437328,-0.25166908
120,1778413002640,1.0288336666666666,-0.1982805411111111,-0.3752895166666666,0.2476222088888889,-0.1779516799999999,-0.2353119277777778
121,1778413002650,1.0086746400000002,-0.2110184,-0.380308784,0.200464804,-0.285555818,-0.216362096
122,1778413002660,0.99130788,-0.2064653022222222,-0.3310321911111111,0.1749992555555555,-0.4572446233333333,-0.1812858888888888
123,1778413002670,0.98773042,-0.18409611,-0.2838478666666666,0.1723522511111111,-0.47536642,-0.1621460022222222
124,1778413002680,1.00038151,-0.173449146,-0.245127112,0.175542234,-0.360506774,-0.169876617
125,1778413002690,1.0010645,-0.16952209,-0.27434528,0.17839286,-0.1776801966666666,-0.2107423
126,1778413002700,1.0147238,-0.18906592,-0.31483543,0.1730309777777777,-0.0574790304444444,-0.2482076055555555
127,1778413002710,1.0167971100000002,-0.194285729,-0.3419193299999999,0.141395866,0.0463174932,-0.296871769
128,1778413002720,1.0056175888888887,-0.2070886466666666,-0.407544091111111,0.1011546066666666,0.0605502348888888,-0.3292466777777778
129,1778413002730,0.99396649,-0.211189157,-0.4394463629999999,0.071820366,-0.0270452614,-0.328880156
130,1778413002740,0.9747926333333334,-0.19881242,-0.4594068933333333,0.0330112026666666,-0.096030278,-0.3101067866666666
131,1778413002750,0.9653679555555555,-0.1812029844444444,-0.4673206299999999,-0.0181642217777777,-0.1018672633333333,-0.2788857111111111
132,1778413002760,0.9616171,-0.146252436,-0.441605042,-0.0959182896,-0.041705598,-0.257288872
133,1778413002770,0.97307505,-0.13415417,-0.40246251,-0.1580482433333333,0.0344874181111111,-0.2436601866666666
134,1778413002780,0.98838085,-0.13220283,-0.41173133,-0.1956662599999999,0.1308146355555555,-0.24270998
135,1778413002790,1.0005767,-0.1155860099999999,-0.47469234,-0.2441862,0.2035648499999999,-0.26266432
136,1778413002800,1.0254562,-0.1094881,-0.4974071,-0.3113794,0.30435464,-0.31458634
137,1778413002810,1.04958266,-0.119269156,-0.545495278,-0.457127562,0.371242414,-0.421056999
138,1778413002820,1.0612339666666666,-0.1208708795555555,-0.6156321222222222,-0.5730256533333333,0.27582298,-0.4933609533333334
139,1778413002830,1.0598788,-0.124123104,-0.6047914,-0.63940436,0.09292514,-0.519831
140,1778413002840,1.0598788,-0.124123104,-0.6047914,-0.63940436,0.09292514,-0.519831
141,1778413002850,1.0598788,-0.124123104,-0.6047914,-0.63940436,0.09292514,-0.519831
142,1778413002860,1.0598788,-0.124123104,-0.6047914,-0.63940436,0.09292514,-0.519831
143,1778413002870,1.0598788,-0.124123104,-0.6047914,-0.63940436,0.09292514,-0.519831
144,1778413002880,0.9513630944444444,-0.0998398393333333,-0.3664034977777778,-0.8675897733333334,-0.1780874288888889,-0.4914605599999999
145,1778413002890,0.930145752,-0.084602502,-0.323159108,-0.86431833,0.1175651939999999,-0.5112791480000001
146,1778413002900,0.91294956,-0.06994311,-0.3260861,-0.8360972,0.31046313,-0.5326588
147,1778413002910,0.91294956,-0.0662572574444444,-0.3279019222222222,-0.8301244666666666,0.3367974377777777,-0.5365953711111111
148,1778413002920,0.8966803710000001,-0.0312335299,-0.40356318,-0.7770893379999999,0.619674016,-0.586535548
149,1778413002930,0.8709146244444445,-0.047990605,-0.4441214444444444,-0.7852611177777777,0.4741023033333333,-0.5769113111111112
150,1778413002940,0.8717818866666667,-0.0564463827777777,-0.4258954399999999,-0.7493568866666667,0.1279979566666666,-0.5090394
151,1778413002950,0.88587487,-0.04994194,-0.40148684,-0.70904094,-0.1233147899999999,-0.4471401999999999
152,1778413002960,0.88587487,-0.04994194,-0.40148684,-0.6791094222222223,-0.1518209911111111,-0.4286111688888889
153,1778413002970,0.9024612233333332,-0.0453888266666666,-0.28597198,-0.67748052,0.1556897,-0.4334979333333333
154,1778413002980,0.92549912,-0.05889978,-0.116769006,-0.65186564,0.622239578,-0.456425076
155,1778413002990,0.9700972333333334,-0.0730191666666666,0.0238055905555555,-0.474272,0.9652913866666668,-0.4729994066666667
156,1778413003000,0.95176286,-0.06726002,0.013384927,-0.3761292,0.9457443,-0.47585002
157,1778413003010,0.9094568066666666,-0.0392909106666666,0.0010264826444444,-0.2284399022222222,0.7220384333333334,-0.4144937888888889
158,1778413003020,0.94289035,0.0092688326666666,-0.0398905376333333,-0.10541357,0.527789,-0.3599926433333333
159,1778413003030,0.948640716,0.042383573,-0.0549971126999999,0.055816168,0.337890171,-0.326375689
160,1778413003040,0.9187528333333334,-0.0090249173333333,-0.0935115506666666,0.083507912,0.48455459,-0.3215092666666666
161,1778413003050,0.9234686,-0.054576356,-0.10473172,0.0628748468888888,0.5456392988888888,-0.3139076133333333
162,1778413003060,0.924688125,-0.092535887,-0.120342383,0.0231969246,0.4232255240000001,-0.267184596
163,1778413003070,0.9091485666666668,-0.0853301826666666,-0.0759292263333333,-0.0011283706666666,0.2103859822222222,-0.19581048
164,1778413003080,0.8877286200000001,-0.0574545754,0.0092993216,-0.0218836032,0.093413818,-0.144648632
165,1778413003090,0.8528512777777778,0.0164847038888888,0.1112293888888888,-0.0522359244444444,0.1782062055555555,-0.1392731777777777
166,1778413003100,0.8414515,0.05744238,0.11759833,-0.05596888,0.2053974,-0.1575986
167,1778413003110,0.77541718,0.128550186,0.176363938,-0.01217113129,0.0209749692,-0.172808687
168,1778413003120,0.7530418822222222,0.1467192677777777,0.1847465433333333,0.0069483876999999,-0.07322531,-0.15943113
169,1778413003130,0.76006128,0.1225376433333333,0.1930498688888889,0.0093917761888888,-0.0758044474444444,-0.1212871177777777
170,1778413003140,0.799598512,0.0606620788999999,0.128742258,-0.0149199444,0.0308630591999999,-0.083075225
171,1778413003150,0.83120704,0.056222793,0.08808441,-0.05841227,0.10514209,-0.083075225
172,1778413003160,0.83120704,0.056222793,0.08808441,-0.05841227,0.10514209,-0.083075225
173,1778413003170,0.83120704,0.056222793,0.08808441,-0.05841227,0.10514209,-0.083075225
174,1778413003180,0.7041162822222222,0.1115647747777777,0.1799156588888889,-0.2444491922222222,-0.020828194,0.0697044603333333
175,1778413003190,0.67356974,0.108914887,0.20775299,-0.301789089,-0.1252695032,0.287174563
176,1778413003200,0.6781798,0.10259745,0.18007149,-0.3193204,-0.16973919,0.39407283
177,1778413003210,0.6867541722222223,0.0841952933333333,0.2034502188888889,-0.3457225777777777,-0.2492172066666667,0.56952174
178,1778413003220,0.71973104,0.056808196,0.178607992,-0.358170308,-0.26332099,0.724663406
179,1778413003230,0.7539362666666666,0.0318175755555555,0.1783437422222222,-0.3598399466666666,-0.1882682166666666,0.8065983533333333
180,1778413003240,0.8041119666666667,-0.016687965,0.2021256133333333,-0.3586182355555556,-0.0627730386666666,0.8846511
181,1778413003250,0.8577939000000001,-0.017988855,0.1832424,-0.34558684,0.045279052,0.9096279
182,1778413003260,0.8836727888888889,0.0040415638888888,0.1760062011111111,-0.3354739222222222,0.1006625357777777,0.86137098
183,1778413003270,0.90744927,0.02467827,0.185681568,-0.293664818,0.173709688,0.773531164
184,1778413003280,0.9263040666666666,0.0125312196666666,0.1919522566666666,-0.22626801,0.2259625799999999,0.6718047433333334
185,1778413003290,0.9282452333333332,-0.0223590273333333,0.21636425,-0.1734466877777777,0.2316638222222222,0.5869648366666667
186,1778413003300,0.9568851,-0.04530752,0.21961649,-0.12682717,0.29152685,0.54800636
187,1778413003310,0.9253656333333332,-0.09702125,0.2425175422222222,-0.0554937776666666,0.3167073411111111,0.5184141911111112
188,1778413003320,0.94900862,-0.1303937833333333,0.24800226,0.0408843452222222,0.3046261322222222,0.5454272222222223
189,1778413003330,1.004089036,-0.13151987,0.25305134,0.125025163,0.290244075,0.55710796
190,1778413003340,1.0314016333333331,-0.12658259,0.2682473566666666,0.17309885,0.2473422366666666,0.5392509
191,1778413003350,1.0418291,-0.11582993,0.30599347,0.19142427,0.25304347,0.5266267
192,1778413003360,1.0418291,-0.11582993,0.30599347,0.19142427,0.25304347,0.5266267
193,1778413003370,1.029853477777778,-0.1001379533333333,0.2211341611111111,0.1492079333333333,0.1901092511111111,0.6352896444444445
194,1778413003380,1.07686469,-0.1048049,0.2134697629999999,0.095643408,0.0637266432,0.6678546
195,1778413003390,1.143420366666667,-0.1506490333333333,0.2554010733333333,0.0462462273333333,-0.0803518693333333,0.6606058333333333
196,1778413003400,1.1528721,-0.1993104,0.29623678,0.014889402,-0.110487,0.6402443
197,1778413003410,1.15523812,-0.19500833,0.363088254,-0.0100331664,-0.0283891259999999,0.553503968
198,1778413003420,1.1477499,-0.16513158,0.386303,-0.010766183,0.06177193,0.4875324699999999
199,1778413003430,1.0960089999999998,-0.1205456466666666,0.3551528266666667,0.0055909487777777,0.1281506671111111,0.4619447511111111
200,1778413003440,1.14120684,-0.119439896,0.325537288,-0.082846163,0.012415471,0.505369222
201,1778413003450,1.227168511111111,-0.1387648677777777,0.3515415088888889,-0.1572507555555555,-0.0217784018888888,0.5277805277777778
202,1778413003460,1.2908924000000002,-0.1704001869999999,0.46364897,-0.225921862,-0.0263122457,0.515264935
203,1778413003470,1.2940219888888889,-0.1691697566666666,0.541766,-0.2285077822222222,0.1326387011111111,0.4189139577777777
204,1778413003480,1.2207115,-0.14293517,0.5339336,-0.13968889,0.2863007111111111,0.3191422533333333
205,1778413003490,1.15459786,-0.133477295,0.390675224,-0.1023321839999999,0.272934184,0.2610914
206,1778413003500,1.1174737,-0.18513274,0.37605852,-0.12927055,0.12835428,0.2358634
207,1778413003510,1.147251866666667,-0.2376053133333333,0.3928074733333333,-0.1840686333333333,0.1120650199999999,0.2409537899999999
208,1778413003520,1.23023337,-0.32578424,0.435461398,-0.292565276,0.0809525339999999,0.238306783
209,1778413003530,1.2910205,-0.2764422755555555,0.4683234022222222,-0.27968319,0.0726314379999999,0.2010451122222222
210,1778413003540,1.31368643,-0.19115445,0.5477850249999999,-0.1806199,-0.021303298,0.13385191
211,1778413003550,1.2521768,-0.1829375,0.51856685,-0.16408885,-0.021303298,0.12530005
212,1778413003560,1.2458992444444443,-0.2406441155555555,0.5166155222222222,-0.1884294133333333,-0.0392893546666666,0.1045312388888888
213,1778413003570,1.2639152,-0.2991028,0.5175912,-0.19104248,-0.074447006,0.097811915
214,1778413003580,1.3312022666666663,-0.3005798733333333,0.6050217511111111,-0.3544101822222222,0.0126326614444444,0.0215238824444444
215,1778413003590,1.4619383,-0.2352000455555555,0.6365615533333333,-0.3711066977777777,-0.0736325461111111,0.0529485816666666
216,1778413003600,1.5255158,-0.24470939,0.75480014,-0.33642414,-0.20761171,0.06482617
217,1778413003610,1.4813973666666669,-0.3334510311111111,0.7893244955555555,-0.2711313422222222,-0.3455953288888889,0.0496228567111111
218,1778413003620,1.4115458,-0.4804549,0.8395002,-0.26556584,-0.34993914,0.0012980504
219,1778413003630,1.3843064000000005,-0.5207194,0.80933382,-0.315777494,-0.294962886,-0.02110477384
220,1778413003640,1.3047306444444446,-0.5601647922222222,0.8409264333333333,-0.3962871533333333,-0.1664813355555555,-0.1178256499999999
221,1778413003650,1.2526646,-0.53780574,0.96761745,-0.255112717,-0.163142031,-0.208848678
222,1778413003660,1.2932461777777775,-0.4626049188888889,1.22162275,-0.0379828233333333,-0.32156866,-0.2326649422222222
223,1778413003670,1.3518911777777778,-0.3958869311111111,1.484791988888889,0.2102247777777778,-0.5297318,-0.2682298244444444
224,1778413003680,1.2923254,-0.367829394,1.81176117,0.5683170399999999,-0.49055614,-0.3680965539999999
225,1778413003690,1.1293443555555556,-0.3570601266666667,2.0835971777777775,1.152558511111111,-0.10687282,-0.5400568655555555
226,1778413003700,1.1179615,-0.22248249,2.0406983,1.4528239,0.25426516,-0.6407788
227,1778413003710,1.10171671,-0.1166927845,1.95709894,1.76203471,0.912697428,-0.917309335
228,1778413003720,1.0869774333333335,-0.0352493468888888,1.7831053555555556,2.0078124666666666,1.5502116,-1.1965819111111111
229,1778413003730,1.01599222,0.0694369788,1.705319,2.0163915599999997,1.89133584,-1.45430512
230,1778413003740,0.9708900333333336,0.1578242533333333,1.5957842333333334,1.9592162,1.5667723333333334,-1.5786329
231,1778413003750,0.9237125,0.22095802,1.5606399,1.8859146,1.0019422,-1.6389031
232,1778413003760,0.675173542,0.3041762719999999,1.59847128,1.74096057,0.19407381,-1.59883165
233,1778413003770,0.6411349777777777,0.3297787022222222,1.6462343000000002,1.6826381666666663,0.0781969324444444,-1.559968122222222
234,1778413003780,0.6960162666666667,0.3631749866666666,1.486360411111111,1.5973909555555554,0.1728273524444444,-1.6124330777777778
235,1778413003790,0.63626888,0.415255936,0.73577468,1.3472694200000002,0.384742132,-1.7630273200000002
236,1778413003800,0.5093895066666667,0.37721715,0.2270965866666666,0.8081764133333333,0.39862874,-1.8455732
237,1778413003810,0.377576912,0.271064602,-0.1974200559999999,0.3369280759999999,0.35407762,-1.79247024
238,1778413003820,0.3223664,0.20751211,-0.33169618,0.2299076299999999,0.3306211,-1.7671812
239,1778413003830,0.0834669327777777,-0.0323460601111111,-0.4570659788888889,-0.938108711111111,-0.32760926,-1.0838466922222223
240,1778413003840,0.1572469775,-0.198679262,-0.405852957,-1.45097608,-0.503017436,-0.312387286
241,1778413003850,0.3127994,-0.2253281755555555,-0.3744561422222222,-1.5976201,-0.3367040966666667,0.0609065666666666
242,1778413003860,0.3059697555555555,-0.1995136733333333,-0.2793150888888889,-1.666985211111111,-0.1101476366666666,0.3241647644444445
243,1778413003870,0.309350388,-0.1732540149999999,-0.31152734,-1.70148456,0.027136892,0.609640809
244,1778413003880,0.4266712222222222,-0.1295333,-0.3387426722222222,-1.6806954,-0.22125398,0.8868229533333333
245,1778413003890,0.5408973859999999,-0.102877943,-0.366530549,-1.6399722,-0.6064339200000001,1.13918435
246,1778413003900,0.6869404977777778,-0.1054228188888888,-0.3935494022222222,-1.6399722,-0.9797226,1.2920183
247,1778413003910,0.7850796722222222,-0.09241393,-0.4873319777777777,-1.5485487,-1.2835173333333332,1.3769260333333333
248,1778413003920,0.8534034499999998,-0.09241393,-0.606011,-1.47968584,-1.35911983,1.37087863
249,1778413003930,0.9812361277777778,-0.0459342522222222,-0.6985299199999999,-1.4087325222222222,-1.3082906666666667,1.2332412666666668
250,1778413003940,1.1295341111111112,0.0550675766666666,-0.7741745666666666,-1.3140512,-0.8170336833333334,0.8067340844444444
251,1778413003950,1.119913,0.08354146,-0.7738866,-1.2319262,-0.5961106,0.58954394
252,1778413003960,1.2265892333333333,0.2062518688888889,-0.6437909444444444,-0.9047835777777776,0.3907810533333333,0.0888867577777777
253,1778413003970,1.33187656,0.294553774,-0.70237331,-0.644291165,1.021550409,-0.230472672
254,1778413003980,1.2142002333333333,0.2554010833333333,-0.901024822222222,-0.3491161833333333,1.0711715333333334,-0.4768680822222222
255,1778413003990,1.1072190333333334,0.2002759133333333,-0.9957492,-0.17554224,0.6512904233333333,-0.5271611733333335
256,1778413004000,1.0774409,0.1750712,-0.974752,-0.14942852,0.17600037,-0.4831801999999999
257,1778413004010,1.1546473444444445,0.1191871711111111,-0.8310376444444444,-0.2327837066666666,0.2721324533333333,-0.4176159333333333
258,1778413004020,1.1309468111111112,0.0556502665333333,-0.8375081888888888,-0.3184380699999999,0.55446266,-0.3815759311111111
259,1778413004030,1.19539288,-0.00781448028,-0.966626485,-0.42573001,0.649483344,-0.2235700904
260,1778413004040,1.3275876000000002,-0.0383965496666666,-0.8952656800000001,-0.4658558844444445,0.463361561111111,-0.0626966813333333
261,1778413004050,1.3192130666666668,-0.0196861081666666,-0.7548611166666667,-0.4421007,0.06849125,0.14118208
262,1778413004060,1.25723496,-0.0047136893499999,-0.599470947,-0.346930705,-0.6038683450000001,0.3986541959999999
263,1778413004070,1.2724524,0.014238636,-0.47835106,-0.27350685,-1.0548569,0.5901548
264,1778413004080,1.2102501,0.0192829688888888,-0.3663797644444444,-0.2115313111111111,-1.1510992444444446,0.6385474777777778
265,1778413004090,1.22937055,0.0581985192,-0.25136223,-0.025243264,-1.11985098,0.5736008399999999
266,1778413004100,1.2439377555555555,0.0704512633333333,-0.2143858066666666,0.12708168,-0.9479586333333332,0.3863354466666667
267,1778413004110,1.1941923666666667,0.0447451596666666,-0.1413090577777777,0.26608336,-0.7595461666666667,0.1968370537777778
268,1778413004120,1.1616532,0.023995303,-0.13180648,0.37773266,-0.5490753,0.045279052
269,1778413004130,1.1607045444444444,0.0361369313333333,-0.1931311855555555,0.4667806244444444,-0.43776538,-0.046551652
270,1778413004140,1.1099359777777775,0.0693333097777777,-0.3216515533333333,0.6116192988888889,-0.4476746977777778,-0.1291602644444444
271,1778413004150,1.02007776,0.0814437738,-0.399599514,0.7050857049999999,-0.63673192,-0.1314543352
272,1778413004160,0.9626578333333332,0.0439354886666666,-0.3840772933333333,0.7295128,-0.7831655777777777,-0.0625100355555555
273,1778413004170,0.9616822055555556,0.0087640618444444,-0.4507343233333333,0.7165492600000001,-0.80861755,-0.0282941039444444
274,1778413004180,0.94454295,-0.0001036644399999,-0.4648381139999999,0.6557903680000001,-0.8650666069999999,0.03471139415
275,1778413004190,0.8969087111111111,0.0236836324444444,-0.4311260888888888,0.5876605233333333,-0.9082535266666666,0.1163409466666666
276,1778413004200,0.8372981555555555,0.0451923406666666,-0.3874141844444445,0.56770617,-0.9339091,0.16072918
277,1778413004210,0.79002776,0.0514176351,-0.348965482,0.6028909739999999,-0.92566264,0.224868145
278,1778413004220,0.7853472444444445,0.0444301002222222,-0.3500983455555555,0.6414829577777779,-0.8723492666666668,0.2519490344444444
279,1778413004230,0.8218467333333334,0.0120332223333333,-0.3739852433333333,0.66483086,-0.834341,0.25846475
280,1778413004240,0.870361752,-0.0226720548,-0.400169684,0.67240541,-0.67833062,0.244903936
281,1778413004250,0.9021359600000002,-0.0317565953333333,-0.4387044644444444,0.6440620922222222,-0.6102958177777779,0.2358633955555555
282,1778413004260,0.91067302,-0.0265259393333333,-0.4731475266666666,0.5835882033333334,-0.5093702466666667,0.21977775
283,1778413004270,0.90611994,-0.022135438,-0.4812781,0.53105533,-0.43484688,0.21326205
284,1778413004280,0.9082440266666668,-0.0326780597777777,-0.44534104,0.4767578122222222,-0.3726762133333333,0.2154339566666666
285,1778413004290,0.9455565166666666,-0.0576930677777777,-0.4253500311111111,0.3912391888888888,-0.3018858011111111,0.2026061577777777
286,1778413004300,0.98519163,-0.067503938,-0.399242824,0.313532626,-0.212437402,0.168364777
287,1778413004310,1.0283933666666667,-0.061975161,-0.3840874666666666,0.2323510233333333,-0.11618824,0.1102324816666666
288,1778413004320,1.0459757,-0.0611621029999999,-0.38099784,0.18714833,-0.07505786,0.066658705
289,1778413004330,1.03753611,-0.0745378861,-0.348142269,0.1406017718,-0.112624964,0.0101935138
290,1778413004340,1.0331293,-0.0931456766666666,-0.3219293666666666,0.1191406673333333,-0.1882682133333333,-0.0187326493333333
291,1778413004350,1.0328041,-0.09802401,-0.31215236,0.1199551299999999,-0.21799612,-0.020768806
292,1778413004360,1.05470782,-0.113878595,-0.2536001719999999,0.168028806,-0.308096086,-0.0162485367999999
293,1778413004370,1.0541061333333337,-0.1227713955555555,-0.2179971422222222,0.2060846,-0.33161372,-0.017103724
294,1778413004380,1.0513418333333333,-0.1549683866666666,-0.23106023,0.2895670533333333,-0.29557372,0.0069992915333333
295,1778413004390,1.06914773,-0.153228451,-0.223238624,0.3466405489999999,-0.219950829,0.0323290908
296,1778413004400,1.0776034666666667,-0.1514722533333333,-0.2331741766666666,0.3917821666666666,-0.1784946666666666,0.040799506
297,1778413004410,1.0703673,-0.15862714,-0.26586918,0.4473013911111111,-0.1365498244444444,0.0458220279999999
298,1778413004420,1.0698795,-0.16220458,-0.30654228,0.46630552,-0.14225106,0.051998373
299,1778413004430,1.0633750666666666,-0.13333095,-0.3028022233333333,0.48721008,-0.2120233888888889,0.0490120089999999
300,1778413004440,1.0507998444444444,-0.1078890877777777,-0.30242279,0.4962370400000001,-0.23876493,0.042224817
301,1778413004450,1.0347981599999998,-0.101829118,-0.300883412,0.489945325,-0.22874703,0.0219370523999999
302,1778413004460,1.0218787,-0.1223445333333333,-0.3016741166666666,0.49196111,-0.1923405266666666,-0.0303387473333333
303,1778413004470,1.0210657,-0.1348859,-0.33291575,0.49929127,-0.1752368,-0.0555871
304,1778413004480,1.04089614,-0.129757572,-0.352282748,0.499413442,-0.14903146,-0.1237576574999999
305,1778413004490,1.0051839444444444,-0.1259389222222222,-0.3713326333333333,0.49141814,-0.1320702655555555,-0.1661504544444444
306,1778413004500,0.9774791088888888,-0.1278089511111111,-0.3979703666666666,0.4790654422222222,-0.1500563188888889,-0.1736842355555555
307,1778413004510,0.950640836,-0.123391348,-0.463337996,0.4482244439999999,-0.2073062849999999,-0.165050932
308,1778413004520,0.9422772377777778,-0.120708266,-0.4866171355555556,0.42171368,-0.25220355,-0.15820944
309,1778413004530,0.9566513,-0.1262472026666666,-0.40783885,0.3790901066666666,-0.2657779433333334,-0.1525081999999999
310,1778413004540,0.98145358,-0.13517862,-0.351794916,0.36734828,-0.21249849,-0.16004199
311,1778413004550,0.9830147,-0.14220342,-0.36389318,0.3734567466666667,-0.1184280133333333,-0.1991362099999999
312,1778413004560,0.9821474333333332,-0.1406857133333333,-0.3708380288888888,0.38356966,-0.0442440072222222,-0.240538071111111
313,1778413004570,0.988161292,-0.1148634039999999,-0.38609568,0.40827504,0.05077668,-0.3170297
314,1778413004580,0.974982361111111,-0.1082143022222222,-0.4048847333333333,0.4078678,0.0699165602222222,-0.3317579288888889
315,1778413004590,0.9532534144444446,-0.1216839222222222,-0.4456391177777777,0.4003340377777777,0.0460256444666666,-0.32877158
316,1778413004600,0.949469976,-0.1308186039999999,-0.508718694,0.3724794,-0.0238077716599999,-0.312937062
317,1778413004610,0.9391875,-0.1413903555555555,-0.5731465844444446,0.3233672766666667,-0.1159846226666666,-0.2834331266666667
318,1778413004620,0.9320055000000002,-0.14708175,-0.60405964,0.28671643,-0.17462596,-0.25777754
319,1778413004630,0.91143117,-0.137447043,-0.625573094,0.238887091,-0.231618016,-0.226074572
320,1778413004640,0.8814843,-0.13122717,-0.6316222,0.18348324,-0.2912978,-0.18753012
321,1778413004650,0.8762807666666667,-0.1146205133333333,-0.6293456666666667,0.1610855133333333,-0.2864109999999999,-0.1663540733333333
322,1778413004660,0.8630320640000001,-0.0841573494,-0.57891184,0.07291989246,-0.1690061634,-0.119481722
323,1778413004670,0.8568183,-0.072870106,-0.5501236,0.0014507623,-0.0280226169999999,-0.10262234
324,1778413004680,0.86009082,-0.0594546883333333,-0.53546823,-0.0736155819666666,0.1055493181111111,-0.1056087022222222
325,1778413004690,0.8559584600000001,-0.051551787,-0.510773716,-0.1367839759999999,0.182376088,-0.111479628
326,1778413004700,0.8537896688888889,-0.0546034568888888,-0.5023667333333334,-0.1701464211111111,0.2197862333333333,-0.1092059166666666
327,1778413004710,0.8662260311111112,-0.0522998004444444,-0.5169779444444444,-0.2137795711111111,0.2404108111111111,-0.1092059177777777
328,1778413004720,0.8866066,-0.06726002,-0.5701247,-0.2392994199999999,0.17355698,-0.11300674
329,1778413004730,0.8662666755555555,-0.1602397033333333,-0.5927175155555555,-0.2954295033333333,0.0869524111111111,-0.0796816315555555
330,1778413004740,0.852476602,-0.206676702,-0.555331196,-0.349984944,0.12789614,-0.0448361888
331,1778413004750,0.8543791,-0.221019,-0.5196035,-0.38040513,0.2005106,-0.010384403
332,1778413004760,0.9346345388888888,-0.1028989556666666,-0.5007439977777778,-0.4296801333333333,0.4295104777777778,0.0031984641422222
333,1778413004770,0.91663885,-0.024818521,-0.5879307,-0.4280511999999999,0.4631749399999999,0.02817533
334,1778413004780,0.8879650833333333,-0.0101157661111111,-0.6228277022222222,-0.4256757,0.42245179,0.0699165577777777
335,1778413004790,0.8365731999999999,-0.007469948,-0.69116837,-0.452362945,0.290366237,0.183025114
336,1778413004800,0.8919016000000001,-0.041984158,-0.6435843000000001,-0.5935908333333333,0.0754141833333333,0.3350242666666666
337,1778413004810,0.9755142666666666,-0.0902999866666666,-0.50196019,-0.7573657666666667,0.1748210922222222,0.3604083722222222
338,1778413004820,1.0122848,-0.1124151,-0.39929157,-0.8092199000000001,0.26281703,0.34520507
339,1778413004830,0.9756803,-0.09031015,-0.3271667755555555,-0.8904625977777777,0.39360622,0.2719033844444444
340,1778413004840,0.943420915,-0.070333373,-0.265902709,-0.955578922,0.505323384,0.207886594
341,1778413004850,0.9150635555555556,-0.0462831868888888,-0.2233294377777778,-1.000822328888889,0.5924030277777779,0.1712493288888888
342,1778413004860,0.9326458666666666,-0.01269383064,-0.14799645,-1.0329936000000002,0.6421531799999999,0.1090107833333333
343,1778413004870,0.9930152,-0.00015244792,-0.16525355,-1.0224056,0.59939384,0.07032379
344,1778413004880,1.1361231555555555,0.0034249968977777,-0.17712416,-0.9758454888888888,0.4787175888888889,-0.0176297298888888
345,1778413004890,1.19228908,-0.0130830807,-0.150789288,-0.924303537,0.50862197,-0.22729627
346,1778413004900,1.1552198,-0.0161899693333333,-0.1883544833333333,-0.8548298333333333,0.6895956666666667,-0.4257605333333333
347,1778413004910,1.1158476,0.020590632,-0.2299219466666666,-0.7608950999999999,0.7331694222222223,-0.5821374444444444
348,1778413004920,1.1028388,0.045002624,-0.20406678,-0.6644491,0.634823,-0.6291727
349,1778413004930,1.1089909111111111,0.0669822257777777,-0.1951807566666666,-0.5240899611111112,0.5352549044444443,-0.642000471111111
350,1778413004940,1.10515595,0.075004375,-0.104716478,-0.32335199,0.467328684,-0.6383354
351,1778413004950,1.0918760555555556,0.0728362266666666,-0.0546915423777777,-0.2466126177777777,0.5251419777777778,-0.6394213444444445
352,1778413004960,1.0261879,0.07207738,0.0050917603,-0.17813833,0.6928535,-0.64322215
353,1778413004970,0.9847221000000002,0.06597946,0.023629429,-0.0742943,0.7233959,-0.56930965
354,1778413004980,1.0649232555555557,0.043254556,-0.0106408641111111,0.05805594,0.53158983,-0.4943790433333333
355,1778413004990,1.12457169,0.0157997013999999,-0.0578692299999999,0.1658908399999999,0.337951242,-0.427837414
356,1778413005000,1.1412691777777777,0.0122330987777777,-0.0893412555555555,0.1024441763333333,0.3082233433333333,-0.4035664333333333
357,1778413005010,1.0871603333333333,0.043467985,-0.1840351222222222,-0.0364217706666666,0.28152423,-0.3770963733333333
358,1778413005020,1.051415,0.0657111525,-0.1763669874,-0.1364861919999999,0.128171024,-0.345800635
359,1778413005030,1.0210046233333334,0.0842732066666666,0.0373192473333333,-0.23339456,-0.22206843,-0.22031225
360,1778413005040,0.951134762,0.085444012,0.1908647939999999,-0.2526158879999999,-0.338455198,-0.127300566
361,1778413005050,0.9155006333333334,0.0885824044444444,0.2175025366666666,-0.2502946733333333,-0.3641922377777777,-0.0523207644444444
362,1778413005060,0.93966456,0.0656806619999999,0.219616464,-0.238322052,-0.417987516,0.097934086
363,1778413005070,0.9624952,0.02350747,0.2332758,-0.22952586,-0.43118182,0.16439427
364,1778413005080,1.0216720644444444,-0.0134865591111111,0.2730951977777778,-0.1315866771111111,-0.4632173488888889,0.2140765144444444
365,1778413005090,1.15143612,-0.0153941902899999,0.348572171,-0.0287250923999999,-0.492266548,0.217293648
366,1778413005100,1.145453,-0.0013720312,0.3557931266666666,0.1052269233333333,-0.2853929266666666,0.1204811355555555
367,1778413005110,1.0637816,0.008872469,0.2889193,0.18837002,-0.13064496,0.055663455
368,1778413005120,1.0637816,0.008872469,0.2889193,0.18837002,-0.13064496,0.055663455
369,1778413005130,1.027583693333333,0.0110914328888888,0.2860735966666666,0.2714452544444444,-0.1400112844444444,0.0204973186222222
370,1778413005140,1.0431279999999998,-0.0418926888,0.352910838,0.4374124499999999,-0.174381617,-0.107570202
371,1778413005150,1.0544044,-0.1001244066666666,0.4839713422222222,0.5197885911111111,-0.0682706627777777,-0.1618066511111111
372,1778413005160,0.9545069333333333,-0.12355396,0.3913372133333334,0.6180671288888889,0.1226191061111111,-0.2397236066666666
373,1778413005170,0.8182123779999999,-0.137800722,0.237032116,0.683278476,0.320725372,-0.294428378
374,1778413005180,0.79117423,-0.14756958,0.24425204,0.6959841,0.3654394,-0.29809347
375,1778413005190,0.7422553722222223,-0.1486536555555555,0.2531550088888889,0.6322523666666666,0.4588990333333334,-0.3037947133333333
376,1778413005200,0.70210196,-0.0066955142,0.258307766,0.6367319,0.54625016,-0.29381752
377,1778413005210,0.7111119333333333,0.0932845772222222,0.2510851233333333,0.3717599444444445,0.7903175666666667,-0.4648547799999999
378,1778413005220,0.7456125666666666,0.1766126144444444,0.1886898788888888,0.2828477444444444,0.8068783222222222,-0.5367990111111111
379,1778413005230,0.8229626400000001,0.25872852,0.209548814,0.26643632,0.65082721,-0.54206586
380,1778413005240,0.8583665222222223,0.32026599,0.2252265511111111,0.2602464,0.5150969333333334,-0.5357130499999999
381,1778413005250,0.9331032333333334,0.4490776888888889,0.0642110655555555,0.2573957733333333,0.4998257666666666,-0.52695755
382,1778413005260,0.9002293939999999,0.549733276,-0.079840025,0.20547374,0.52987946,-0.5037046399999999
383,1778413005270,0.7656510833333334,0.5368504111111112,-0.0699735954444444,0.1204981066666666,0.3636746911111111,-0.3683408844444444
384,1778413005280,0.6285427722222222,0.4362957777777778,0.0664469655555555,0.090634465,0.20722993,-0.28893074
385,1778413005290,0.61980749,0.351020485,0.190681856,0.0405449885,-0.0465923741,0.01718007926
386,1778413005300,0.7077649055555555,0.1679772833333333,0.1067270983333333,0.0511330066666666,0.09295059,0.16032195
387,1778413005310,0.7150417277777777,0.0559382251111111,0.0557485116666666,-0.0129380844444444,0.2336321044444444,0.24964139
388,1778413005320,0.69065005,0.011067719,0.07268717,-0.08040277,0.31107396,0.2914505
389,1778413005330,0.7476960611111111,-0.0616363866666666,0.0957169693333333,-0.0947916166666666,0.2973468733333333,0.3528067266666667
390,1778413005340,0.78434455,-0.13805683,0.19543824,-0.08651124,0.19432579,0.42339352
391,1778413005350,0.7902138,-0.212603865,0.193380185,-0.0018478121999999,0.288587159,0.5324297469999999
392,1778413005360,0.8415531333333334,-0.2323204633333333,0.1126488533333333,0.056427017,0.3581092,0.6158104
393,1778413005370,0.9293800444444444,-0.2295526933333333,0.0627746677777777,0.0414273211111111,0.3593308844444444,0.6880260888888889
394,1778413005380,0.96611728,-0.130233206,0.197895702,0.0567935227999999,0.323657414,0.71183558
395,1778413005390,0.9317616,-0.09265785,0.21205507,0.14866495,0.27869907,0.7440883
396,1778413005400,0.8518688333333334,-0.0586416316666666,0.3106482033333333,0.2997478466666667,0.17014642,0.8868229833333333
397,1778413005410,0.865020015,-0.0471368975,0.3876445599999999,0.4992913,0.10770764,1.04205965
398,1778413005420,0.8778255966666667,-0.09760732,0.32552713,0.6570934888888889,0.2466295911111111,1.1603468666666668
399,1778413005430,0.9065670744444444,-0.1215484188888888,0.2846914144444444,0.717906711111111,0.4117280355555555,1.2153231111111111
400,1778413005440,0.99350303,-0.1270501,0.25623447,0.7711183,0.65498096,1.2633085
401,1778413005450,1.0295011333333333,-0.1599822322222222,0.1741158533333333,0.8262303133333334,0.6294611288888888,1.288828388888889
402,1778413005460,1.0581715,-0.17440042,0.21815297,0.87251896,0.4265241,1.341497
403,1778413005470,1.03092292,-0.1961608359999999,0.261426842,0.9018396,0.3605526,1.3567681
404,1778413005480,1.0236437555555555,-0.2190100766666666,0.3008746055555555,0.8110948666666666,0.2786311911111111,1.4387573777777778
405,1778413005490,1.0869538,-0.16732684,0.3270008,0.748517,0.24265908,1.4764942
406,1778413005500,1.18707235,-0.0079394916,0.193907665,0.6963506199999999,0.226838135,1.46366635
407,1778413005510,1.2750541333333334,0.2084979366666666,0.1758537666666666,0.4118043888888889,0.0962508617777777,1.2852311111111112
408,1778413005520,1.2501610444444444,0.2070411966666666,0.2558381088888889,0.37080973,0.0456862857777777,1.2294403777777778
409,1778413005530,1.11157708,0.1225864196,0.34881913,0.2321066779999999,-0.0116519104,0.974622
410,1778413005540,1.0591471,0.077931374,0.37752202,0.15110834,0.058717694,0.9255099
411,1778413005550,1.0599059777777775,0.0160612347444444,0.31543846,0.0120302984444444,0.1067031348888888,0.93134695
412,1778413005560,1.21427206,-0.06560139,0.11998871,-0.297146645,0.127621266,0.93198494
413,1778413005570,1.2430569666666669,-0.1217618477777777,0.1317319366666666,-0.5031175722222222,0.0159583851111111,0.8588597666666666
414,1778413005580,1.2398047444444442,-0.2166691477777778,0.2946987644444444,-0.6632274277777778,-0.0977949502222222,0.7529116888888888
415,1778413005590,1.2207115,-0.24345933,0.3858152,-0.6760552,-0.08971819,0.66834325
416,1778413005600,1.2612456666666665,-0.25174233,0.5161073444444445,-0.5527997777777779,-0.0538818166666666,0.5336853833333334
417,1778413005610,1.243893666666667,-0.3050584433333333,0.5695860866666667,-0.35597125,0.0898709,0.3702498
418,1778413005620,1.22134562,-0.3222566,0.509944388,-0.34302129,0.1028208612,0.331522078
419,1778413005630,1.2134651,-0.35801886,0.4214473433333333,-0.3152481,0.1067710066666666,0.1709099733333333
420,1778413005640,1.1996533333333332,-0.439690311111111,0.3064914511111111,-0.34694428,0.0481975454444444,0.0983548904444444
421,1778413005650,1.2553049399999998,-0.4511543719999999,0.48743698,-0.351573146,0.0306187201999999,0.0337798552
422,1778413005660,1.3116686333333332,-0.4251840088888888,0.6884243222222222,-0.23031488,0.0949613,-0.0942740933333333
423,1778413005670,1.2730349555555556,-0.3809504166666666,0.6553668111111111,-0.1426413225555555,0.0706631514444444,-0.1589560377777777
424,1778413005680,1.19058468,-0.339525914,0.5314212700000001,-0.0434465121,-0.0265565849,-0.229861827
425,1778413005690,1.2292485,-0.32547632,0.5110054,-0.035200074,-0.090329036,-0.28648737
426,1778413005700,1.274969288888889,-0.3213026233333333,0.5028342,-0.0484350966666666,-0.1567077753333333,-0.3779108466666667
427,1778413005710,1.21879668,-0.33855025,0.58572928,-0.087427515,-0.29251948,-0.487761535
428,1778413005720,1.1764508222222223,-0.3282644177777778,0.6872656855555556,-0.0749730197777777,-0.34484872,-0.503406011111111
429,1778413005730,1.1613279333333333,-0.2498214833333333,0.81728348,0.0055230773333333,-0.3415908733333333,-0.5200346333333334
430,1778413005740,1.1479938,-0.20833533,0.8655992999999998,0.0600921,-0.28091338,-0.539989
431,1778413005750,1.1329827666666668,-0.1735907466666666,0.8710196444444445,0.0904987177777777,-0.1204641677777777,-0.5895354888888888
432,1778413005760,1.133680611111111,-0.1156131155555555,0.8747054888888888,0.1124213466666666,-0.0182490613333333,-0.7605048333333334
433,1778413005770,1.139914,-0.11412251,0.8836490999999999,0.0841594794,-0.067849858,-0.8724731609999999
434,1778413005780,1.1452531888888888,-0.0823828566666666,1.0558746,0.0540514973333333,-0.0732931863333333,-0.9533289733333334
435,1778413005790,1.1311331,-0.04896627,1.2114122,0.059481252,0.033672955,-1.0152282
436,1778413005800,1.021580979,-0.0070126044,1.27567505,0.1561783715999999,0.3386002805,-1.02384111
437,1778413005810,0.9452042144444444,0.0336503359999999,1.2688714333333333,0.2749745777777777,0.8129868244444444,-1.008101588888889
438,1778413005820,0.95458146,0.1088952383333333,1.2962714555555557,0.3486156133333333,1.2641993333333332,-1.0337571666666667
439,1778413005830,0.946738176,0.16954038,1.39114832,0.345235614,1.62928237,-1.12017165
440,1778413005840,0.9351765,0.19238928,1.4571887,0.27083442,1.7190769,-1.135565
441,1778413005850,0.9031319833333332,0.1698574666666666,1.5834155666666667,0.1299322986666666,1.7498228666666664,-1.1416734666666666
442,1778413005860,0.84329312,0.016074103,1.45936567,0.053128442,1.95889548,-1.23061288
443,1778413005870,0.7702007555555554,-0.2285160455555555,1.3424259444444442,0.0060660526666666,2.1273265,-1.3152220666666663
444,1778413005880,0.8073032,-0.48362577,1.2404687,-0.030313294,2.3635209,-1.4086138
445,1778413005890,0.9634861,-0.56024611,1.0574245000000002,-0.058412267,2.18606975,-1.42968805
446,1778413005900,1.149603,-0.4073679344444444,0.6778511977777778,-0.0679822086666666,0.3749838333333333,-1.4611466000000002
447,1778413005910,0.906135208,-0.229479845,0.422277696,0.0260068212,-0.30559162,-1.34606294
448,1778413005920,0.6891255822222222,-0.1892014166666666,0.4070664288888889,0.0900914844444444,-0.5235555222222222,-1.1220585055555556
449,1778413005930,0.5983343822222222,-0.1814909455555555,0.4787644111111111,0.2339799466666667,-0.194376679,-0.4542667599999999
450,1778413005940,0.58790016,-0.16805859,0.5290553,0.24701136,-0.012751437,-0.26327518
451,1778413005950,0.49523214,-0.0370685577777777,0.2756258566666666,0.1883700266666667,-0.0526601218888889,0.1716480877777778
452,1778413005960,0.45135086,0.0448434022222222,0.0107526577777777,0.11893706,-0.64375668,0.5807885
453,1778413005970,0.4887906959999999,0.094282934,-0.20807312,0.0509293911,-1.48678697,0.8340050299999999
454,1778413005980,0.6279160388888889,0.1654364755555555,0.0164271155555555,-0.0114449021111111,-2.2667098777777777,1.033290533333333
455,1778413005990,0.6170854666666667,0.2037212355555555,0.1377892144444444,0.036879905,-2.3932233,1.0403492
456,1778413006000,0.5639444640000001,0.25220374,0.0930938409999999,0.1712663019999999,-2.21864304,0.97443881
457,1778413006010,0.5553033622222222,0.2541848733333333,-0.2317276199999999,0.1719450177777778,-1.7451821555555556,0.7652643888888888
458,1778413006020,0.4214473633333333,0.22273657,-0.3689442866666666,0.011835165,-1.4867259,0.6426877
459,1778413006030,0.397416485,0.206673645,-0.285565435,-0.144297394,-1.52569795,0.607625029
460,1778413006040,0.44365394,0.21973844,-0.15061855,-0.14942852,-1.4598486,0.59565246
461,1778413006050,0.55542874,0.26217994,-0.0942433,-0.088343784,-1.1330453,0.49913856
462,1778413006060,0.546696517,0.250200576,-0.229482885,-0.0280531596999999,-0.723105715,0.28638046
463,1778413006070,0.55152607,0.19946286,-0.2233362,-0.018707197,-0.52464145,0.1582858
464,1778413006080,0.6255751111111111,0.0360251366666666,-0.3678873222222222,0.0009077868666666,-0.3946667255555555,0.0157547690888888
465,1778413006090,0.65964216,-0.05335677,-0.5091151,0.0075592347,-0.52341974,0.051387526
466,1778413006100,0.6697511377777778,-0.09184479,-0.37691224,0.0405449859333333,-0.3245550255555555,0.1466118268888888
467,1778413006110,0.67988724,-0.086803846,-0.3067862,0.09735378,-0.12270394,0.20471019
468,1778413006120,0.7701852,0.0061284043999999,-0.324750664,0.1525743759999999,0.059481249,0.1438087176
469,1778413006130,0.96021866,0.13877842,-0.4150648733333333,0.2360161166666666,0.33978378,0.0407995063333333
470,1778413006140,1.0693917,0.1252817,-0.5417999,0.27388865,0.3813214,0.014736691
471,1778413006150,1.1614823900000002,-0.097801439,-0.78588427,0.280730125,0.372036528,-0.0102545985
472,1778413006160,1.1975088,-0.2254094999999999,-0.7563246,0.2854947366666666,0.5309789744444444,-0.0121490732222222
473,1778413006170,1.1811766333333336,-0.1683126666666666,-0.7140254,0.3815335022222222,0.7827159144444444,0.0202003805555555
474,1778413006180,1.162141,-0.13195892,-0.7446166,0.4388174,0.87855107,0.049554985
475,1778413006190,1.1423396666666668,-0.1019944338888888,-0.8284121555555556,0.4893819555555556,0.6980117755555555,0.1696882711111111
476,1778413006200,1.1704849555555557,-0.1219414,-0.9132003222222222,0.532887868888889,0.1172317655555555,0.5338889944444445
477,1778413006210,1.24370064,-0.19173071,-0.956830232,0.5077209899999999,-0.167601221,0.773714409
478,1778413006220,1.3331164,-0.2833058377777778,-1.0547633777777778,0.4077999377777778,-0.1788340211111111,0.8820719122222223
479,1778413006230,1.4566195333333334,-0.3110750633333333,-1.0805000333333332,0.2442964911111111,-0.1045821404444444,0.8270277777777778
480,1778413006240,1.4632866,-0.24470939,-1.0425913,0.18898088,-0.084220566,0.761192
481,1778413006250,1.4474591,-0.1268671581111111,-1.0762754666666667,0.134411854,-0.1685174857777777,0.59538093
482,1778413006260,1.4236297777777778,-0.0262515331666666,-1.0127182555555558,0.0206585157777777,-0.3829927422222222,0.3312234433333333
483,1778413006270,1.27219315,-0.00760715075,-0.8519856499999999,-0.089649473,-0.541195415,0.1473516323
484,1778413006280,1.1869933444444445,-0.0238157517777777,-0.7427126511111111,-0.2050919744444444,-0.69181,-0.0132350246666666
485,1778413006290,1.1926305,-0.06652827,-0.61625546,-0.2490729699999999,-0.7439356,-0.05619795
486,1778413006300,1.16525394,-0.1438559519999999,-0.535278197,-0.259640624,-0.751998796,-0.0602295413999999
487,1778413006310,1.1064975,-0.25275865,-0.43664134,-0.2823980777777778,-0.7587995777777778,-0.0571481566666666
488,1778413006320,1.034403122222222,-0.2526908999999999,-0.3473407266666666,-0.3147051244444444,-0.7468541111111111,0.01983557
489,1778413006330,0.9746544,-0.2055424819999999,-0.186041346,-0.30679804,-0.80776915,0.16225631
490,1778413006340,0.9808194,-0.17244908,-0.1147322999999999,-0.28083703,-0.8306759,0.19676918
491,1778413006350,0.9840174666666668,-0.1657820244444444,-0.0554605515555555,-0.2212285188888888,-0.7592746333333333,0.2193026555555555
492,1778413006360,0.9843806,-0.155326133,0.0207115750999999,-0.119863507,-0.6532247900000001,0.228594311
493,1778413006370,0.9796709666666666,-0.1484639499999999,0.0497691633333333,-0.0360145356666666,-0.5957033666666667,0.20124872
494,1778413006380,0.968999622222222,-0.1562150755555555,0.0577133922222222,0.0869693767777777,-0.5289174,0.1591681288888889
495,1778413006390,0.9712762,-0.166839,0.0285382499999999,0.17676392,-0.52464145,0.13018683
496,1778413006400,0.9700295022222222,-0.1694949844444444,0.0063011788888888,0.20974968,-0.5226052999999999,0.115322878
497,1778413006410,0.9834415333333334,-0.1660259444444444,-0.1147594044444444,0.3066707855555555,-0.4982392888888889,0.0373380387777777
498,1778413006420,0.95895835,-0.1502526599999999,-0.18879151,0.266863895,-0.44187164,0.0058412264999999
499,1778413006430,0.9495404888888888,-0.1411464355555555,-0.2334181,0.2093424433333333,-0.4240552533333333,-0.009162709
500,1778413006440,0.9510311,-0.13952033,-0.2277266999999999,0.16821207,-0.4403445,-0.010384403
501,1778413006450,0.9514061,-0.150414272,-0.168939735,0.088313244,-0.272361525,-0.00558161685
502,1778413006460,0.9935301666666666,-0.1303633033333333,-0.1647386055555555,0.0499791848888888,-0.1733363922222222,-0.0010774667222222
503,1778413006470,0.9922835333333332,-0.1437482233333333,-0.1916067133333333,0.0163147126666666,-0.1192424766666666,0.0086282176
504,1778413006480,1.00447935,-0.1725710399999999,-0.20417351,-0.00795628576,-0.106211066,0.0293970252
505,1778413006490,1.0244805,-0.18074225,-0.1952553,-0.0046577104,-0.10071344,0.038559735
506,1778413006500,1.0572467222222222,-0.1675165522222222,-0.1766092111111111,0.0143464259555555,-0.0339274746666666,0.0358448558888888
507,1778413006510,1.0424389,-0.1750833839999999,-0.221186682,0.0678498543,-0.0450652575,0.0375212917
508,1778413006520,1.0496886666666667,-0.1891878666666666,-0.2007976333333333,0.1432351944444444,-0.1213465077777777,0.047247338
509,1778413006530,1.0669864,-0.1883815888888889,-0.17563356,0.2146364511111111,-0.1313915497777777,0.0479260578888888
510,1778413006540,1.09556398,-0.163863222,-0.1694550159999999,0.2625268779999999,-0.0198372652,0.0274423129999999
511,1778413006550,1.0821837666666667,-0.1478406033333333,-0.2324424222222222,0.3186162388888889,0.0110037344444444,-0.0064732843333333
512,1778413006560,1.08295336,-0.151618602,-0.2557771179999999,0.359529432,-0.06357393,-0.0272437877999999
513,1778413006570,1.0817229777777777,-0.1760400788888888,-0.24856802,0.3968725522222222,-0.1613230666666666,-0.0662429894444444
514,1778413006580,1.0827935555555557,-0.1927924111111111,-0.2320900922222222,0.3955151244444445,-0.1341743,-0.1242734766666666
515,1778413006590,1.07904165,-0.16342417,-0.22540949,0.38384116,-0.08177718,-0.14599249
516,1778413006600,1.0676843,-0.14464259,-0.2257753599999999,0.36062896,0.033672955,-0.21013145
517,1778413006610,1.0357312,-0.15391143,-0.24309345,0.33863845,0.07337803,-0.26327518
518,1778413006620,1.0276514,-0.16220458,-0.24284953,0.2778252122222222,0.0284468183333333,-0.2843154666666667
519,1778413006630,1.0190871666666663,-0.1602532444444444,-0.3005290477777778,0.24640051,-0.0246968955555555,-0.2782748644444444
520,1778413006640,1.0247245,-0.15244792,-0.34023327,0.19264595,-0.1349209,-0.27121618
521,1778413006650,1.0063494222222222,-0.1687361299999999,-0.3432585033333333,0.1475111277777777,-0.2991709377777777,-0.2486148299999999
522,1778413006660,0.9985440333333332,-0.1817179166666666,-0.3040217933333333,0.1154755826666666,-0.4000286066666667,-0.2272351799999999
523,1778413006670,1.00921131,-0.1662536,-0.2865411,0.0806165659,-0.354153975,-0.208787594
524,1778413006680,1.0214179777777777,-0.1167141233333333,-0.3051736333333333,-0.0060151486666666,-0.1872501333333333,-0.1966249366666666
525,1778413006690,1.0178947,-0.09704834,-0.32633,-0.03153499,-0.1416402,-0.19852535
526,1778413006700,0.99242986,-0.1113418599999999,-0.39360833,-0.108746078,-0.0585649784,-0.1970593259999999
527,1778413006710,0.97838026,-0.12607443,-0.43469,-0.19470756,-0.040850412,-0.18508671
528,1778413006720,0.9884621066666666,-0.13227397,-0.4600573333333333,-0.26190076,-0.070171084,-0.1586166633333333
529,1778413006730,1.0055525,-0.140886266,-0.51033468,-0.432571482,-0.101690798,-0.0835639065999999
530,1778413006740,0.9983542555555556,-0.1414716633333333,-0.5302274222222222,-0.5530712866666667,-0.1318666566666666,-0.008322793
531,1778413006750,0.98191703,-0.14854525,-0.531921265,-0.68191934,-0.181711794,0.0830294146
532,1778413006760,0.98236424,-0.1430164733333333,-0.5213108866666666,-0.7379544,-0.2074080999999999,0.1301868206666666
533,1778413006770,0.9938283333333332,-0.1213790286666666,-0.5139933999999999,-0.7837679466666666,-0.2293986,0.14443992
534,1778413006780,0.9862923,-0.0856909755,-0.4987486,-0.8214368499999999,-0.23907034,0.122856655
535,1778413006790,0.9672108888888888,-0.0711626894444444,-0.4782867066666666,-0.8418663,-0.2072044755555555,0.0961151233333333
536,1778413006800,0.9632757,-0.0718944379999999,-0.450099436,-0.8544226,-0.17157172,0.076432265
537,1778413006810,0.9691893222222224,-0.0680730814444444,-0.4222739399999999,-0.8793994622222222,-0.0722072346666666,0.0427677938888888
538,1778413006820,0.95664115,-0.0444538125,-0.4229515,-0.91795072,-0.0204481117999999,0.0334286166
539,1778413006830,0.9589448444444444,-0.041215142,-0.3862657666666667,-0.9460497,-0.0606690116666666,0.059667898
540,1778413006840,0.9642568333333332,-0.0491051682222222,-0.3524528155555556,-0.9509365,-0.087274805,0.07215633
541,1778413006850,0.9618854,-0.096926387,-0.29324883,-0.91391914,-0.0971094415,0.0906650054
542,1778413006860,0.9524404111111112,-0.1187332157777777,-0.2806329133333333,-0.8767524644444444,-0.1083150955555555,0.0973368177777777
543,1778413006870,0.96421785,-0.1429351649999999,-0.280565145,-0.76389503,-0.1118308698999999,0.118825065
544,1778413006880,1.0060851333333334,-0.141735911111111,-0.2814188588888889,-0.6573903933333334,-0.0377283016666666,0.1419965411111111
545,1778413006890,1.032794,-0.1185130146666666,-0.2817440733333333,-0.5781160433333334,0.0615683128888888,0.1284221486666666
546,1778413006900,1.03922524,-0.1125614464,-0.29899306,-0.5272528,0.1987467869999999,0.0893211406
547,1778413006910,1.0547566,-0.1094881,-0.3290131,-0.505018,0.28602922,0.062382776
548,1778413006920,1.03888996,-0.0639122644,-0.4016941619999999,-0.52664197,0.262053468,-0.02353289002
549,1778413006930,0.9731326555555556,-0.0224064559999999,-0.4271658333333333,-0.5485917666666666,0.143218229,-0.048664164
550,1778413006940,0.9531721444444444,-0.0086251644444444,-0.3864859577777778,-0.5663741888888888,0.0397814287777777,-0.0322221926444444
551,1778413006950,0.95986091,0.00135983516,-0.320658956,-0.5609716,-0.0294886514,0.00728435406
552,1778413006960,0.9690809,-0.0025916146,-0.28434587,-0.5514424,-0.037185326,0.020845164
553,1778413006970,0.942396438,-0.0432586216,-0.219970152,-0.509049581,0.0829072427,0.0330010238999999
554,1778413006980,0.9302168777777776,-0.0620564644444444,-0.2050288988888889,-0.4467159977777777,0.1924677877777778,0.049690727
555,1778413006990,0.965748419,-0.064406196,-0.075955651,-0.353161332,0.25060009,0.0485776282
556,1778413007000,0.98182217,-0.0668060666666666,0.0392265424444444,-0.2600682,0.30557635,0.037948888
557,1778413007010,0.98960036,-0.07460801,0.099792406,-0.2600682,0.30557635,0.037948888
558,1778413007020,0.99860092,-0.09034064,0.0815870748,0.1071731557,0.5248094240000001,-0.0373685802
559,1778413007030,1.0119594444444444,-0.1057480411111111,0.0066806077777777,0.3486156133333333,0.8036204899999999,-0.0997717186666666
560,1778413007040,1.00755278,-0.118366664,-0.107402602,0.413406134,0.908116096,-0.1293774488
561,1778413007050,0.98366512,-0.1223343766666666,-0.2574947,0.4654910766666666,0.82377842,-0.1600419833333333
562,1778413007060,0.9756971599999998,-0.11582993,-0.2980052,0.45531029,0.64337486,-0.15393351
563,1778413007070,0.910053104,-0.1165616779999999,-0.245313092,0.451400864,0.18864491,-0.0943148152
564,1778413007080,0.9427684511111112,-0.11534209,-0.1281714344444444,0.4862598888888889,-0.1624768922222222,-0.0013404702222222
565,1778413007090,0.99802469,-0.106341565,-0.0495181371,0.5362475680000001,-0.1887976189999999,0.0278088218
566,1778413007100,1.0349451555555556,-0.0750890653333333,0.0086488785555555,0.5673668133333334,-0.0489271677777777,0.013769516
567,1778413007110,1.0415852,-0.039209604,0.030489584,0.5939726,0.14729054,-0.032374904
568,1778413007120,0.96768758,-0.0190133046,-0.0581710769999999,0.623598696,0.3368898919999999,-0.0747066182
569,1778413007130,0.9520067333333334,-0.0185850944444444,-0.1025093688888888,0.6380214755555556,0.45855964,-0.10737337
570,1778413007140,0.944981936,-0.0407249366,-0.0979996255,0.6275692,0.49371728,-0.11972606
571,1778413007150,0.9704495466666666,-0.0858281799999999,-0.1561981327777777,0.5782941666666667,0.41389992,-0.1311285466666666
572,1778413007160,0.99350303,-0.10046318,-0.21138428,0.5567109,0.29946786,-0.1331647
573,1778413007170,1.002479218,-0.110219848,-0.240276208,0.54040128,0.2145982719,-0.135547003
574,1778413007180,0.9988692999999998,-0.13781293,-0.28458977,0.47343206,-0.1666849556666666,-0.1459924966666666
575,1778413007190,1.0231897866666668,-0.1242247333333333,-0.2023390483333333,0.4005376466666667,-0.214534639,-0.14701057
576,1778413007200,1.09989655,-0.08069068,-0.0977800925,0.31664795,0.0455844765,-0.186613835
577,1778413007210,1.116742,-0.06433302,-0.1059513,0.3056527,0.12407835,-0.21440738
578,1778413007220,1.11112884,-0.04488981399,-0.173308891,0.25342525,0.0226777048,-0.2444610769999999
579,1778413007230,1.0791484,0.0013110521,-0.34901425,0.16393614,-0.3212293,-0.24128467
580,1778413007240,1.0545127,0.02716622,-0.40953606,0.081471756,-0.67246646,-0.21440738
581,1778413007250,1.02727942,0.064900122,-0.434330222,-0.0433854251999999,-1.249228502,-0.1834374329999999
582,1778413007260,0.971764,0.09500554,-0.3248665,-0.098117344,-1.9845663,-0.13560809
583,1778413007270,0.846134736,-0.0117384916,-0.2078169969999999,0.0037719821999999,-1.90814934,-0.1395175139999999
584,1778413007280,0.62717074,-0.19370033,0.038294915,0.1842298355555555,-1.4728120888888891,-0.1373727611111111
585,1778413007290,0.5898515,-0.2190676599999999,0.13223334,0.31176116,-1.134389223,-0.1052413445999999
586,1778413007300,0.7642858022222222,-0.2611805533333333,0.2146670022222222,0.5774797177777777,-0.1811416673333333,0.1865883855555555
587,1778413007310,0.92932254,-0.25105122,0.30989614,0.58664244,-0.012140589,0.31283015
588,1778413007320,1.131038554,-0.17780611,0.465835129,0.541195422,0.0256097709,0.627477545
589,1778413007330,1.2576038333333337,-0.0495557377777777,0.5990322444444445,0.5369602177777778,0.02145601,0.7386585411111111
590,1778413007340,1.28219375,0.0233855105,0.58360113,0.637831424,0.066170032,0.732726548
591,1778413007350,1.2365932000000002,0.0032894863333333,0.4556261711111112,0.7061648622222223,0.1907625,0.6143850711111112
592,1778413007360,1.2216872,-0.0152752819999999,0.30282256,0.72652644,0.3092414,0.52479416
593,1778413007370,1.09766166,-0.0717115028,0.244349628,0.698427476,0.349312996,0.367684244
594,1778413007380,0.9072955155555557,-0.1442360588888888,0.1725845933333333,0.6448086444444444,0.3995789466666666,0.2222890211111111
595,1778413007390,0.760818762,-0.197926184,0.071278548,0.522014804,0.45364572,0.283142974
596,1778413007400,0.7995487,-0.2132949633333333,-0.0610401466666666,0.2575315133333333,0.5279247333333333,0.4926228744444444
597,1778413007410,0.9109983,-0.20418873,-0.14647196,0.13095038,0.5431959,0.56694263
598,1778413007420,1.06257727,-0.1306570145,-0.0047167362,-0.04261423,0.426585168,0.559307035
599,1778413007430,1.1806786,-0.046283185,0.20400581,-0.2798189466666667,0.1723861853333333,0.4763336099999999
600,1778413007440,1.22090043,0.1575762675,0.0547105074,-0.273629032,0.1068524536,0.3024457459999999
601,1778413007450,1.238690133333333,0.3510367466666666,-0.0839886426666666,-0.2429644933333333,0.1841704433333333,0.09147438
602,1778413007460,1.1950698,0.39301074,-0.1557408,-0.23441264,0.22005773,-0.0555871
603,1778413007470,0.9921141155555556,0.2531177533333333,-0.1335545388888889,-0.3521704122222222,0.1208374661111111,-0.1660147099999999
604,1778413007480,0.8675675777777777,0.1407737977777777,-0.0406324508888888,-0.5137734566666666,0.0442609733333333,-0.2019868233333333
605,1778413007490,0.8516961000000001,0.1189398699999999,-0.033721477,-0.57282203,0.04344651,-0.18569757
606,1778413007500,0.8328602422222222,0.038420264,0.0984271547777777,-0.6000386566666667,-0.031619831,-0.2729129788888889
607,1778413007510,0.82730436,0.010823802,0.13003808,-0.57709795,-0.009086353,-0.33413345
608,1778413007520,0.7277321822222222,-0.1475323242222222,-0.1209521777777777,-0.57709795,-0.009086353,-0.33413345
609,1778413007530,0.7922312,-0.2246066099999999,0.1148339366666666,-0.4426436822222222,0.0251210888888888,-0.3799469922222222
610,1778413007540,0.80655316,-0.2351844579999999,0.263643434,-0.393355096,-0.0132401152,-0.347816432
611,1778413007550,0.7870581222222223,-0.2300235699999999,0.3242228544444445,-0.2844172666666666,0.0589213078888888,-0.3318258166666667
612,1778413007560,0.63139357,-0.262783599,0.2303152677,-0.1505891177,0.199220196,-0.281906017
613,1778413007570,0.7025918333333333,-0.25519781,0.0827080756666666,-0.0136846758888888,0.3588557977777777,-0.0594812523888888
614,1778413007580,0.7242834788888888,-0.28168988,0.1408652638888888,0.0066768995422222,0.3346933977777778,0.0904138809444444
615,1778413007590,0.7739476240000001,-0.301316366,0.27510142,-0.010766183596,0.325978638,0.2673831169999999
616,1778413007600,0.8535661,-0.2385098533333333,0.39679144,0.0205906411111111,0.2156715022222222,0.5490923
617,1778413007610,0.8499886,-0.15976542,0.37776592,0.072492298,0.148451152,0.6663274699999999
618,1778413007620,0.86113761,-0.0950970113333333,0.2634604866666666,0.14947942,0.0192162349999999,0.8454889333333333
619,1778413007630,0.8930297155555557,-0.0550133713333333,0.1792821322222222,0.1936640288888888,-0.0494022731111111,0.9263922666666669
620,1778413007640,0.928133444,-0.1151103739999999,0.159722734,0.1663795256,0.0209673316,1.01359412
621,1778413007650,1.0436076333333333,-0.1638306933333333,0.2803720533333333,0.0540515,0.1470360213333333,1.0837193888888887
622,1778413007660,1.2063204,-0.16171674,0.3623687,-0.050471254,0.29580277,1.0879953
623,1778413007670,1.216402311111111,-0.0653019106666666,0.3107532244444444,-0.0698147513333333,0.3310283133333333,0.9654186166666666
624,1778413007680,1.1736051,-0.032623854,0.2728208,-0.0742943,0.34039465,0.8387696
625,1778413007690,1.15414355,-0.0432677677,0.2750374,-0.0529146438,0.346014418,0.7246633929999999
626,1778413007700,1.2572210555555554,-0.1641322044444444,0.42743348,-0.0312635011111111,0.4883554133333333,0.53375325
627,1778413007710,1.3053811,-0.22638516,0.47048476,-0.052303795,0.60000473,0.43194535
628,1778413007720,1.30239005,-0.284184262,0.489504167,-0.062566031,0.5328115099999999,0.2372072644
629,1778413007730,1.2623365666666666,-0.3150962933333333,0.4226567644444444,-0.0236618491111111,0.49066305,0.0677276913333333
630,1778413007740,1.2784926,-0.3666033766666666,0.2089823833333333,0.0253416766666666,0.4398948588888889,-0.1235947588888888
631,1778413007750,1.33611147,-0.398803772,0.195761417,0.0353527852,0.37643462,-0.273170889
632,1778413007760,1.3126985,-0.3945352,0.34968504,0.046042614,0.37643462,-0.3775036
633,1778413007770,1.2600226,-0.3818684888888888,0.4879857377777777,0.0469249475555555,0.4823148155555555,-0.5055100422222222
634,1778413007780,1.270257,-0.34820935,0.5131030599999999,0.0285723807999999,0.4692833999999999,-0.621475988
635,1778413007790,1.246068711111111,-0.3051973544444444,0.5121030444444444,-0.0016713457777777,0.3935383466666666,-0.7378355977777777
636,1778413007800,1.2197256333333333,-0.2943057933333333,0.4328199833333334,-0.0563761111111111,0.4415916688888888,-0.8551182533333334
637,1778413007810,1.28069663,-0.299136356,0.449483575,-0.10483666,0.4601206999999999,-0.95964104
638,1778413007820,1.2671876888888889,-0.3087815577777777,0.4725038822222223,-0.1147459604444444,0.4914775311111111,-1.0254768133333334
639,1778413007830,1.2282729,-0.30840215,0.55128217,-0.12499462,0.5609105,-1.0689827
640,1778413007840,1.1831788,-0.267338772,0.756562424,-0.072706096,0.546922098,-1.037096465
641,1778413007850,0.9852133466666666,-0.1919251577777777,1.0545568,0.2005190944444444,0.5425850666666666,-0.8292590833333333
642,1778413007860,0.7963099944444445,-0.105582042,1.2027903777777778,0.3600181,0.6036698,-0.703696
643,1778413007870,0.598522724,-0.0227208394,1.04951238,0.570027401,0.8601645899999999,-0.4963133899999999
644,1778413007880,0.61765796,-0.026038107,0.9959117,0.70820105,1.0501992,-0.34512872
645,1778413007890,0.8373591622222222,-0.0142657383333333,1.1982914111111111,0.7301915422222222,0.5999199122222222,-0.2976862355555555
646,1778413007900,1.0631718,0.0005793019999999,1.4241074,0.869342528,-0.46147981,-0.15991981
647,1778413007910,1.0949893666666666,0.0030455698888888,1.4063523,1.0531939944444444,-0.7113570444444445,-0.0690257386666666
648,1778413007920,1.1562768,0.099568818,1.5411163333333333,1.2604069666666666,-0.5932599266666666,-0.0368544513333333
649,1778413007930,1.128541405,0.241035412,1.60703279,1.44268378,-0.2636264066,-0.089061531
650,1778413007940,0.9382152944444444,0.3693982555555555,1.4065489,1.6240647444444445,0.1801575197777777,-0.1590239077777777
651,1778413007950,0.8967799466666667,0.4326065433333333,1.3000759333333332,1.8255085444444443,0.4408450688888889,-0.2061270144444444
652,1778413007960,0.94054264,0.42642733,1.226535,1.951886,0.38193226,-0.24128467
653,1778413007970,0.8236083555555556,0.37005885,0.9955357,1.8679963555555552,0.1180123,-0.2070772255555555
654,1778413007980,0.8629467,0.33126932,0.64034224,1.7244472666666666,-0.1736078822222222,-0.1674400277777777
655,1778413007990,0.98031632,0.3189363,0.37787266,1.37866706,-0.473330254,-0.192416882
656,1778413008000,0.9721807,0.33817015,0.5208535599999999,0.764399,-0.3499391073333333,-0.29524284
657,1778413008010,0.8678995444444444,0.3121286422222222,0.6184744277777777,0.5298336,-0.024968382,-0.34451786
658,1778413008020,0.7608235,0.2379508899999999,0.2196097044444444,0.0490204924444444,0.4907988133333333,-0.3726168266666667
659,1778413008030,0.81105342,0.227641334,0.1170556175999999,-0.3402113759999999,0.5637204039999999,-0.434556744
660,1778413008040,0.7626258133333333,0.2347799533333333,-0.011504738,-0.838879911111111,0.5233773311111112,-0.5707349377777777
661,1778413008050,0.7826371200000001,0.256691815,-0.11668364,-1.23962284,0.342944932,-0.661181056
662,1778413008060,0.7937658,0.2005774344444444,-0.0841038188888888,-1.7444270444444443,-0.4276524777777777,-0.7064109066666666
663,1778413008070,0.6520062111111111,0.0192592577777777,-0.083263664,-2.103605266666667,-0.8111288333333334,-0.6415932266666666
664,1778413008080,0.4989349555555555,-0.1289607761111111,-0.0699566537777777,-2.4231462444444443,-1.049359266666667,-0.4367557822222222
665,1778413008090,0.430857465,-0.2012038159999999,-0.0326634912,-2.5167821999999997,-1.14159712,-0.1233758759999999
666,1778413008100,0.5078548311111111,-0.1694882155555555,0.0187714212222222,-2.418530933333334,-1.1037246,0.3170382177777778
667,1778413008110,0.681655644,-0.126135404,0.126824478,-2.06664899,-0.801599582,0.5131880719999999
668,1778413008120,0.7157260622222222,-0.1549683911111111,0.0249608088888888,-1.6937946,-0.4446204488888889,0.4408365855555555
669,1778413008130,0.75653803,-0.16464376,-0.1454963,-1.5404041,-0.21860696,0.38246673
670,1778413008140,0.8407258719999999,-0.134184664,-0.120452153,-1.42678648,0.224180956,0.299269338
671,1778413008150,0.8526717,-0.11509818,-0.12961122,-1.060889,1.1845856,0.082540736
672,1778413008160,0.8641764111111111,-0.1576209844444444,-0.61468018,-0.7877723555555556,0.8544565555555556,0.1376527351111111
673,1778413008170,0.9755752,-0.101932776,-0.7228470400000001,-0.619246376,0.5225493,0.156331084
674,1778413008180,1.076062111111111,-0.0365773388888888,-0.6992718222222223,-0.5241578466666666,0.3504396833333333,0.1367703933333333
675,1778413008190,1.1078796666666666,0.0299407726666666,-0.6729457866666667,-0.4085041,0.2651925477777778,0.1112505577777777
676,1778413008200,1.086603,-0.0062503645,-0.71533141,-0.2030532679999999,0.260434727,0.1400825459999999
677,1778413008210,1.077197,-0.055308107,-0.81513906,-0.0509463586666666,0.2816854188888888,0.1773577999999999
678,1778413008220,1.169526222222222,-0.2229974333333333,-0.9113336555555556,0.1242310573333333,0.29132322,0.2352525499999999
679,1778413008230,1.1906792,-0.23687358,-0.9720689,0.267535816,0.3324536,0.2987806699999999
680,1778413008240,1.2642201333333334,-0.1025974546222222,-0.9881132555555556,0.3632080755555555,0.4261168444444444,0.4228505233333333
681,1778413008250,1.3025353666666666,-0.0064231385999999,-0.9145554166666666,0.4092931155555555,0.5836475666666666,0.5112876311111111
682,1778413008260,1.31480842,-0.046295384,-0.91726695,0.432525666,0.8045774700000001,0.5879557390000001
683,1778413008270,1.3235358888888888,-0.10358667,-0.9171673133333332,0.4193381599999999,1.0220323222222223,0.6070548944444444
684,1778413008280,1.2853799,-0.15293576,-0.78050286,0.40460995,1.1351069,0.58710057
685,1778413008290,1.45571908,-0.2032618599999999,-0.8815758380000001,0.3429143739999999,0.8635242399999999,0.5813586159999999
686,1778413008300,1.514854666666667,-0.1953162733333333,-0.9353696333333332,0.2730741733333333,0.3882189173333333,0.5702004533333334
687,1778413008310,1.4501863,-0.1368270883333333,-0.8797362766666667,0.1853836599999999,-0.0880213928888888,0.5429159511111111
688,1778413008320,1.39637414,-0.0492650714799999,-0.71820651,0.098941982,-0.588047376,0.443062788
689,1778413008330,1.3769096,-0.0035672811999999,-0.59402853,0.06192464,-0.75370914,0.36169794
690,1778413008340,1.3161134,-0.012348281,-0.6047914,0.060702946,-0.7323295,0.2315874699999999
691,1778413008350,1.13294406,-0.080852276,-0.482796464,0.1082268637999999,-0.623171099,-0.0223646446
692,1778413008360,1.0752456,-0.08729168,-0.42173192,0.12789614,-0.54663193,-0.12888877
693,1778413008370,0.94646779,-0.1445612766666666,-0.3774915133333333,0.2590246866666666,-0.5576272,-0.2647004666666667
694,1778413008380,0.908266368,-0.147667146,-0.24187386,0.320984961,-0.4640454,-0.292107161
695,1778413008390,0.8457234266666667,-0.1314575322222222,-0.1845128022222222,0.4150622388888889,-0.4100736533333333,-0.2744740433333333
696,1778413008400,0.8229951400000001,-0.11152074,-0.1192955806666666,0.4856490388888889,-0.4122455466666667,-0.2268958266666666
697,1778413008410,0.8642394080000001,-0.1049024651999999,-0.0587046455999999,0.53117752,-0.38939984,-0.149168896
698,1778413008420,0.8743972000000001,-0.10737415,-0.12829678,0.5711676333333333,-0.4212046288888889,-0.0800803774444444
699,1778413008430,0.8548669,-0.11509818,-0.15622863,0.5744255,-0.58572614,0.007406523
700,1778413008440,0.85086668,-0.117683698,-0.152856484,0.5718599400000001,-0.6079609859999999,0.0195012984
701,1778413008450,0.8467906,-0.106561098,-0.0979562555555555,0.5328200111111111,-0.8190698188888889,0.1428109955555555
702,1778413008460,0.8614764333333333,-0.0990538842222222,-0.0812445777777777,0.5372316555555555,-0.8092962666666668,0.16296895
703,1778413008470,0.8829722099999999,-0.120830216,-0.141084448,0.523725154,-0.655729268,0.15755277
704,1778413008480,0.9080712,-0.11997651,-0.19403571,0.47974417,-0.52036554,0.14973393
705,1778413008490,0.93464798,-0.1250547255555555,-0.1544771683333333,0.4665770222222222,-0.4237837777777777,0.1305261804444444
706,1778413008500,0.97206278,-0.1415692439999999,-0.131861348,0.44504805,-0.1244753973999999,0.0621995223
707,1778413008510,0.9930152,-0.1448051966666666,-0.1799800133333333,0.4159445666666667,0.0055061093333333,0.0403244023333333
708,1778413008520,1.0073791777777776,-0.1233811855555555,-0.2317648755555555,0.3226206733333333,0.0598036438888888,0.0218632414444444
709,1778413008530,1.0027719,-0.11143943,-0.24992312,0.26594764,0.03978143,0.017790927
710,1778413008540,0.9708731,-0.1318471277777778,-0.2366974222222222,0.2062203422222222,-0.0123442055555555,0.0215917545555555
711,1778413008550,0.9836379777777778,-0.1475695922222222,-0.1694543311111111,0.1152040946666666,-0.1554182122222222,0.0564779177777777
712,1778413008560,0.99025902,-0.1590824529999999,-0.144609053,0.058442807,-0.2135980169999999,0.0822963968
713,1778413008570,1.0235151,-0.1681398933333333,-0.1140005566666666,0.0298890953333333,-0.21120892,0.1072461133333333
714,1778413008580,1.0459757,-0.17805916,-0.09790205,0.003283304,-0.14897038,0.116748184
715,1778413008590,1.05282972,-0.186922492,-0.0963653775,0.0038941511,-0.1164733,0.1212684528
716,1778413008600,1.0630498,-0.18098617,-0.094975054,0.0136677066666666,-0.1039712966666666,0.13466637
717,1778413008610,1.083545588888889,-0.1600906488888888,-0.1167920399999999,0.022219568,-0.10437853,0.14240377
718,1778413008620,1.09869205,-0.15122834,-0.133269975,0.054594473,-0.154468,0.15003936
719,1778413008630,1.0967407,-0.15830192,-0.14253882,0.0628748468888888,-0.1753725488888889,0.1477656511111111
720,1778413008640,1.0958735888888889,-0.1684651222222222,-0.1285000399999999,0.0767207155555555,-0.2067972411111111,0.1498018111111111
721,1778413008650,1.1201569,-0.16049717,-0.09985338,0.09857547,-0.22532628,0.14362547
722,1778413008660,1.1161186444444444,-0.1705519533333333,-0.0984813633333333,0.1378054433333333,-0.1500563266666666,0.1011376406666666
723,1778413008670,1.0951146111111112,-0.1793058544444444,-0.1266571288888889,0.16617591,-0.1330883466666666,0.08233712
724,1778413008680,1.0894233,-0.17342475,-0.1393679,0.19142427,-0.17462596,0.0794865
725,1778413008690,1.0692087222222222,-0.1821007333333333,-0.1714531,0.224002781111111,-0.3005283744444444,0.0635365955555555
726,1778413008700,1.041612277777778,-0.2010991333333333,-0.1807829066666667,0.2359482433333333,-0.34288043,0.0705952777777777
727,1778413008710,1.03162126,-0.190419646,-0.2019508019999999,0.238459495,-0.33314082,0.086511245
728,1778413008720,1.020334,-0.17781526,-0.23284896,0.23907034,-0.33100286,0.09292514
729,1778413008730,0.9949666,-0.15147226,-0.23504421,0.2409028899999999,-0.35849097,0.12102412
730,1778413008740,0.9755295,-0.176107838,-0.219089015,0.230518481,-0.346090773,0.1239561808
731,1778413008750,0.9882724666666668,-0.1761078366666666,-0.1505033644444444,0.1867411011111111,-0.2070008622222222,0.1352093433333333
732,1778413008760,0.9900882,-0.1550496966666666,-0.1498664733333333,0.1465609222222222,-0.0583613669222222,0.1273361955555555
733,1778413008770,0.97856316,-0.144349882,-0.18951106,0.096987277,-0.00688730261,0.1326302079999999
734,1778413008780,0.9700566,-0.14025208,-0.21382345,0.06620057,-0.02741177,0.14118208
735,1778413008790,0.99131391,-0.158801949,-0.258411423,0.0360247162,-0.090390123,0.154620717
736,1778413008800,1.0225291,-0.18809025,-0.32047603,-0.003436016,-0.1880646,0.17661121
737,1778413008810,1.0371370333333332,-0.2047036822222222,-0.3479335666666667,-0.0375077204444444,-0.2308239077777777,0.1719959266666666
738,1778413008820,1.00928449,-0.226872998,-0.398779381,-0.078325894,-0.312188765,0.155536975
739,1778413008830,1.022773,-0.22345816,-0.41465837,-0.0962848,-0.3652103,0.15767495
740,1778413008840,1.0240414,-0.212603862,-0.4089751009999999,-0.121940384,-0.364965968,0.146191018
741,1778413008850,1.025944,-0.20418873,-0.4024625,-0.2003918388888889,-0.3094874588888889,0.1137618122222222
742,1778413008860,1.0247732,-0.193892398,-0.429662275,-0.24357535,-0.23693238,0.092314295
743,1778413008870,1.0066205,-0.1836760233333333,-0.4898490577777777,-0.3470800222222222,-0.1284730533333333,0.029397024
744,1778413008880,0.9876491,-0.19565167,-0.50448066,-0.3993414,-0.12514733,-0.004810422
745,1778413008890,0.992063984,-0.197481035,-0.48958955,-0.437580438,-0.1132968935,-0.0241666447
746,1778413008900,0.99764967,-0.1978469,-0.4681066,-0.4811949,-0.087274805,-0.054976255
747,1778413008910,0.983078697,-0.229979879,-0.441461728,-0.5113097000000001,-0.081593923,-0.070980455
748,1778413008920,0.9558552244444444,-0.2452175544444444,-0.3998336044444445,-0.5646094977777777,-0.0302623915555555,-0.0766952677777777
749,1778413008930,0.95225066,-0.23589791,-0.38977882,-0.58076304,0.0153475379999999,-0.07146913
750,1778413008940,0.9458546333333332,-0.1779812477777777,-0.3850089133333333,-0.6421192533333334,0.0243066304444444,-0.0671253277777777
751,1778413008950,0.9373718,-0.1595215,-0.37929043,-0.67055756,0.006795676,-0.07207998
752,1778413008960,0.931493369,-0.165936515,-0.366747013,-0.684362718,0.02408265275,-0.064261136
753,1778413008970,0.92899728,-0.1957939433333333,-0.3159940533333333,-0.68297815,0.088649206,-0.0346146773333333
754,1778413008980,0.9356643,-0.22736083,-0.30995712,-0.64306945,0.088649206,-0.019547112
755,1778413008990,0.9510649355555556,-0.24811068,-0.2234649455555555,-0.5722790344444444,0.0616361845555555,-0.0044965144444444
756,1778413009000,0.9756971599999998,-0.2419958299999999,-0.1220498099999999,-0.40300646,0.047111593,0.002519745
757,1778413009010,0.985722146,-0.219970145,-0.089971713,-0.2747819976,0.0680636563,-0.0216774421
758,1778413009020,0.9891938833333334,-0.19402554,-0.1025161433333333,-0.0377113335555555,0.10839994,-0.0672610722222222
759,1778413009030,0.99130785,-0.18930982,-0.13473347,0.0469588845,0.1161984165,-0.083075227
760,1778413009040,0.9657406722222224,-0.1923994366666666,-0.2179632577777777,0.1653614422222222,0.0590570522222222,-0.08422905
761,1778413009050,0.9373718,-0.18760242,-0.2306537,0.19997612,0.02817533,-0.0787993
762,1778413009060,0.94244524,-0.182114284,-0.212701436,0.2600224,0.0152864530499999,-0.04776062277
763,1778413009070,0.9713575166666668,-0.1575430655555555,-0.1561947555555555,0.3726422777777778,0.036523576,-0.0021634174555555
764,1778413009080,0.96225125,-0.15342359,-0.0661624,0.4736357,0.1081963199999999,0.0092390645
765,1778413009090,0.96225125,-0.15342359,-0.0661624,0.4736357,0.10819632,0.0092390645
766,1778413009100,0.999811385,-0.169253778,0.0419536666999999,0.78834422,0.2411625,0.0237772304
767,1778413009110,1.0670134444444443,-0.2215407022222222,0.0580894339111111,1.0690081555555555,0.4574058111111111,-0.0311616953555555
768,1778413009120,1.1096412777777778,-0.2709981977777778,-0.0231009406888888,1.270316311111111,0.6599355844444444,-0.1440920866666666
769,1778413009130,1.0882037,-0.29983455,-0.08250481,1.3300436,0.55785626,-0.25105822
770,1778413009140,1.0426421,-0.30756876,0.0474011419999999,1.3907210444444444,0.4040584911111111,-0.3623681577777777
771,1778413009150,1.0371946,-0.32450065,0.1817789,1.4845879,0.39964682,-0.4538594999999999
772,1778413009160,1.152950077777778,-0.2984049555555555,-0.1315422311111111,1.5440437,0.5892809355555556,-0.5131795666666668
773,1778413009170,1.1970617111111113,-0.3243515944444444,-0.5496425011111111,1.5189989333333334,0.8512665466666668,-0.60840385
774,1778413009180,1.16391239,-0.327881939,-0.750077305,1.27909886,0.810136202,-0.626973632
775,1778413009190,1.1486849,-0.2268424888888889,-0.8190552777777778,0.7185854555555555,0.6358410944444445,-0.5812551155555554
776,1778413009200,1.1787273,-0.18659624,-0.78294206,0.5108974,0.6012264,-0.56564456
777,1778413009210,1.27303766,-0.069717484,-0.1853583959999999,0.046286948,0.715943532,-0.6273401200000001
778,1778413009220,1.315154611111111,-0.0399684577777777,0.3152284222222222,-0.074497918,0.8901571866666667,-0.7869748666666667
779,1778413009230,1.3346815,-0.028477272,0.39484012,-0.082235314,1.0098833,-0.91566
780,1778413009240,1.3462188000000002,0.0613602868,0.381754,-0.1052031708,0.823696996,-1.22645908
781,1778413009250,1.319138666666667,0.12647418,0.30416748,-0.1293384255555555,0.5275175066666667,-1.4297897555555557
782,1778413009260,1.1780667333333332,0.1025771186666666,0.2061909033333333,-0.19730366,0.1062110733333333,-1.503295133333333
783,1778413009270,0.98192926,0.0120799728,0.1216656356,-0.281814372,-0.302048696,-1.43048216
784,1778413009280,0.92981035,-0.024086772,0.090035744,-0.31443363,-0.43729028,-1.335923
785,1778413009290,0.8984501111111111,-0.0346564931111111,0.0082626781111111,-0.3485053344444445,-0.4439417288888889,-1.168822282222222
786,1778413009300,0.79968083,-0.0186169404999999,-0.142551,-0.437824796,-0.3754725319999999,-0.930686898
787,1778413009310,0.6823433277777778,0.0339552346111111,-0.2861583022222222,-0.61639579,-0.3116593533333333,-0.7128587666666666
788,1778413009320,0.6439230666666667,0.0802350355555555,-0.3521580888888889,-0.827341698888889,-0.3659568955555555,-0.4480225288888889
789,1778413009330,0.6340309,0.09012721,-0.3597466,-0.90573376,-0.48066044,-0.32619244
790,1778413009340,0.6034328944444445,0.0655458261111111,-0.1919556422222222,-0.9267062,-0.7430532755555556,-0.0647243588888888
791,1778413009350,0.6020473,0.053783625,-0.0568935599999999,-0.89779276,-0.870381,0.09414683
792,1778413009360,0.7190968120000001,0.0746141068,-0.067101476,-0.8127628339999999,-0.718768694,0.175511688
793,1778413009370,0.7425670111111111,0.1003852566666666,-0.2147415222222222,-0.7137241166666667,-0.2742619366666667,0.2545960422222222
794,1778413009380,0.7296767,0.10284136,-0.2909316,-0.7279772,-0.15141377,0.26274067
795,1778413009390,0.7356953749999999,0.103344445,-0.4578529289999999,-0.8451377000000001,-0.161248403,0.330178218
796,1778413009400,0.7084017666666668,0.0786360218888889,-0.46956332,-0.9784246,-0.2192178,0.42400435
797,1778413009410,0.76922172,0.0441794076666666,-0.2748229483333333,-0.9515473,-0.18290633,0.5426444611111111
798,1778413009420,0.8942777639999999,0.0048722354,-0.06104624156,-0.809464236,0.030496552,0.6016387200000001
799,1778413009430,0.9540394055555556,-0.0148009994444444,-0.0116842864444444,-0.6229793666666666,0.2513721322222222,0.5442733866666667
800,1778413009440,0.9912367,-0.0236802438888888,-0.0292733886666666,-0.46348038,0.2807352166666666,0.4512888699999999
801,1778413009450,1.05422,-0.033794655,-0.023934323,-0.333492072,0.1803373831999999,0.349969656
802,1778413009460,1.0471952,-0.035550855,-0.020031655,-0.228915,0.114304796,0.2541888
803,1778413009470,1.047547522222222,-0.0205499792222222,0.0209056928888888,-0.1553503333333333,0.0883777215555555,0.16419065
804,1778413009480,1.032791912,-0.011714098,0.1090551404,-0.118153128,0.07264501,0.113816118
805,1778413009490,0.9872899455555556,-0.0204043064444444,0.1694204444444444,-0.11522106,0.1101815744444444,0.1312727733333333
806,1778413009500,0.9746435444444445,-0.0702988142222222,0.1561608711111111,-0.11522106,0.2261662,0.1778329
807,1778413009510,1.06447372,-0.159777608,0.1040731459999999,-0.10300412,0.17722206,0.2413610199999999
808,1778413009520,1.1366178777777778,-0.2476126755555555,0.14288097,-0.0709685733333333,-0.1425904111111111,0.3847065133333333
809,1778413009530,1.2845078600000002,-0.3742718299999999,0.0466856531999999,-0.0541363399999999,-0.2271588299999999,0.61519957
810,1778413009540,1.3393159,-0.4494469533333333,0.1137769673333333,-0.36798456,-0.4686471,0.8638144
811,1778413009550,1.3093073444444443,-0.4185169466666666,0.2264325955555555,-0.6944484755555556,-0.6691407333333333,1.0375665333333333
812,1778413009560,1.2568994999999998,-0.2819615709999999,0.467810831,-0.90176327,-0.721639675,1.26605735
813,1778413009570,1.6176959666666668,0.2489271133333333,0.5123063,-0.8929059833333333,-0.5948888833333333,1.2067033666666669
814,1778413009580,1.9601142777777776,0.7675481111111111,0.2634300088888889,-0.8390156944444445,-0.5105919722222222,0.6854469653333334
815,1778413009590,2.0154588999999996,1.33199228,0.269399862,-0.720280562,-0.396852194,-0.2162475642
816,1778413009600,1.876207,1.6708292,0.33529395,-0.6102194577777778,-0.14985271,-0.9847536333333332
817,1778413009610,0.8614188222222222,1.095538177777778,0.1742276353333333,-0.7149458333333334,0.3482847333333333,-1.3566916999999998
818,1778413009620,0.273640968,0.447327946,-0.2595883106,-0.98007389,0.8434273219999999,-1.21821269
819,1778413009630,0.4392532844444444,0.4040818377777778,-0.6037716611111111,-1.3763576333333334,0.7514184764444445,-1.0804530888888888
820,1778413009640,0.2955782219999999,0.09101749,0.35519753,-1.53637246,0.1573389808,-1.07276996
821,1778413009650,0.1891269,-0.23053175,0.7108646,-1.3773079,0.4472929,-1.0262234
822,1778413009660,0.318847872,-0.4982150479999999,0.340937582,-1.28299306,0.8652346200000001,-0.903443094
823,1778413009670,0.4598100177777778,-0.6200903555555555,0.2675122299999999,-1.2337588,1.1002886,-0.73851436
824,1778413009680,0.5182822933333333,-0.5454654222222222,0.3703231055555556,-1.1142363,0.8323303333333334,-0.5102610666666667
825,1778413009690,0.552696897,-0.392196656,0.426128541,-0.95838878,0.528596695,-0.2142852155
826,1778413009700,0.52640265,-0.28763872,0.49685827,-0.8532009,0.25793025,-0.092848785
827,1778413009710,0.684823505,-0.159545888,0.551321805,-0.4749413759999999,0.06855996942,0.1161297045
828,1778413009720,0.7050411666666667,-0.1948284366666667,0.5159752333333334,-0.0844750833333333,-0.0249683824,0.2629443033333333
829,1778413009730,0.7087337888888888,-0.25205399,0.5459634333333334,0.14561071,-0.04044318,0.3559967
830,1778413009740,0.8008241999999999,-0.278369905,0.41252408,0.257090335,0.16168363,0.41881216
831,1778413009750,0.8338664633333334,-0.2814053222222222,0.3009796166666666,0.24640052,0.27259058,0.42339352
832,1778413009760,0.913595982,-0.2798334,0.251685406,0.168578574,0.352367244,0.48093531
833,1778413009770,0.9403800666666666,-0.3101773111111111,0.2974868711111111,0.1211768222222222,0.24752889,0.5728474677777777
834,1778413009780,0.9550760533333336,-0.3167495111111111,0.383332,0.1240274444444444,0.0521341154666666,0.6966458133333333
835,1778413009790,0.985063532,-0.311963328,0.444080796,0.200281545,0.0028862536199999,0.8126253350000001
836,1778413009800,1.0039915,-0.3193784,0.34919718,0.2152473,0.016569233,0.88702655
837,1778413009810,1.10968364,-0.257774193,0.352831558,0.221416863,0.2596558922999999,0.901992315
838,1778413009820,1.1678324,-0.1950825266666666,0.2997431066666667,0.2643187055555556,0.4508222311111111,0.8466427666666667
839,1778413009830,1.15052446,-0.192529524,0.262271396,0.296245656,0.318388866,0.7644906199999999
840,1778413009840,1.1243914555555556,-0.1997169377777777,0.4275317111111111,0.3012410311111111,0.1510913744444444,0.6739766555555555
841,1778413009850,1.1631741888888891,-0.1872941261111111,0.4817354222222222,0.26900187,0.17416783,0.6390226
842,1778413009860,1.2356391800000002,-0.0213914926,0.461075668,0.204618562,0.221401592,0.571096396
843,1778413009870,1.2608865333333332,0.023751385,0.40467807,0.2022158933333333,0.1970237,0.4612660466666666
844,1778413009880,1.2888862,-0.0134824915999999,0.3702960039999999,0.221111436,0.17526736,0.3182056119999999
845,1778413009890,1.210528,-0.1569197199999999,0.3180571766666666,0.2195911066666666,0.1480371333333333,0.1694846622222222
846,1778413009900,1.1447924,-0.25519782,0.32212245,0.20058697,0.1570641,0.09536853
847,1778413009910,1.22480932,-0.300590714,0.44648948,0.1269798744999999,0.202511139,0.0610999987
848,1778413009920,1.253206533333333,-0.2721059733333333,0.4943649133333333,0.0541193705555555,0.2201255988888889,0.0154832816666666
849,1778413009930,1.2414444,-0.17941595,0.5299241699999999,0.066078402,0.219569042,-0.0031305922
850,1778413009940,1.2590978333333334,-0.1439108266666666,0.5415966133333333,0.1262672166666666,0.2080189366666666,-0.0350219083333333
851,1778413009950,1.2758671,-0.16196068,0.53198224,0.16088189,0.16805935,-0.067193195
852,1778413009960,1.29325839,-0.175092541,0.5458946490000001,0.265581105,0.0647039969999999,-0.1304158895
853,1778413009970,1.2615777666666663,-0.19936462,0.5693591066666667,0.3752892711111111,-0.0338596038888888,-0.1914666777777777
854,1778413009980,1.13197455,-0.263234872,0.5892203549999999,0.44394852,-0.0377961738,-0.19828102
855,1778413009990,1.0106687166666668,-0.3141748366666667,0.6220586333333333,0.44940541,-0.0044031913333333,-0.1649287533333333
856,1778413010000,0.96688575,-0.32035407,0.668911,0.43026555,0.03672719,-0.14293826
857,1778413010010,0.9516273688888888,-0.2481716577777777,0.6917172111111111,0.4443829055555555,0.1263350855555555,-0.1106312244444444
858,1778413010020,0.9529824044444444,-0.1645082466666666,0.7820138333333334,0.50234551,0.2002391155555555,-0.0847041477777777
859,1778413010030,0.998228956,-0.08948083116,0.832652256,0.607411218,0.188751804,-0.073546008
860,1778413010040,1.0772105333333333,0.0149974864999999,0.8908988822222221,0.7569330755555556,0.1737605922222222,-0.0643425805555555
861,1778413010050,1.0943017,0.033020217,0.90148556,0.79494137,0.17477867,-0.0684149
862,1778413010060,1.1043496555555556,0.0603693766666666,0.8891575466666668,0.8458452833333333,0.1648015,-0.0557907166666666
863,1778413010070,1.0703673,0.06890646,0.91782796,0.85303971,0.1748465422222222,-0.0327142642222222
864,1778413010080,1.09687192,0.125671967,0.979142496,0.83880018,0.0513875279999999,0.0134691816
865,1778413010090,1.109668366666667,0.2020747933333333,1.0484047,0.8468633666666666,-0.1990598466666666,0.06930571
866,1778413010100,1.0914691,0.263475731,1.10993373,0.8615237,-0.37376216,0.09659022
867,1778413010110,1.028972633333333,0.2700055933333333,1.0646657333333334,0.8342392000000001,-0.5403198333333333,0.12753982
868,1778413010120,0.98641435,0.226186985,1.073523,0.74760072,-0.4974587299999999,0.1369061399999999
869,1778413010130,0.8943069377777777,0.0878032255555555,1.0736602222222222,0.6380214900000001,-0.3827891377777778,0.1631046988888889
870,1778413010140,0.8310545866666667,-0.0920887066666666,1.087593933333333,0.55528561,-0.4283312066666667,0.2214066733333333
871,1778413010150,0.87075204,-0.20077391,1.1669888,0.4766899299999999,-0.5997757,0.2902288
872,1778413010160,0.9864295,-0.16415593,1.1853131,0.4240213077777778,-0.7436641444444445,0.3271511377777777
873,1778413010170,0.97640147,-0.139566071,1.20319215,0.418781608,-0.86323409,0.274041352
874,1778413010180,1.0366965666666668,-0.1037967083333333,1.1961267666666666,0.4750609999999999,-0.7543200000000001,0.1662268222666666
875,1778413010190,1.0869739666666665,-0.0743539333333333,1.1600880333333334,0.5436116444444444,-0.8171694,-0.0778745428888889
876,1778413010200,1.0693917,-0.06360127,1.1013447,0.5615977,-1.1446514,-0.17225893
877,1778413010210,0.984251122222222,0.1372166877777778,1.1244559,0.6262796444444444,-1.9301330777777777,-0.2832295077777778
878,1778413010220,0.8344877,0.279967568,1.10471084,0.6127867,-2.2357467800000004,-0.367363544
879,1778413010230,0.7305169,0.2529686755555556,1.0101605555555555,0.6323880777777778,-1.9196808111111112,-0.4178874066666667
880,1778413010240,0.7356696266666667,0.1958786333333333,0.8856343111111111,0.8083121288888889,-1.2440158888888888,-0.52600736
881,1778413010250,0.772734096,0.0524603759999999,0.478454783,0.9006179600000002,-0.5289174,-0.687814
882,1778413010260,0.6928453333333333,-0.0986642933333333,0.2410099966666666,0.7983349577777777,0.19027892,-0.9177640777777776
883,1778413010270,0.5179909333333333,-0.1839809333333333,0.0501587522222222,0.6359174666666667,0.7012017533333332,-1.0655212333333333
884,1778413010280,0.413179595,-0.2025240175,-0.147755572,0.524030621,0.678552037,-1.012112765
885,1778413010290,0.2058250204444444,-0.1356752572222222,-0.5165409733333334,0.1926459535555555,-0.2021140811111111,-0.6455976833333333
886,1778413010300,0.009756667,-0.18464492,-0.54423904,0.081471756,-0.81357217,-0.36528665
887,1778413010310,0.0082626773,-0.205682738,-0.520600476,-0.0240826506999999,-0.955716391,0.003657451
888,1778413010320,0.19254172,-0.1168056,-0.4505446,-0.1622563,-0.8355627,0.36291963
889,1778413010330,0.2466336211111111,-0.0752347388888888,-0.5057747555555555,-0.2397575388888889,-0.5970608,0.4360855511111111
890,1778413010340,0.19842316,-0.0576497065999999,-0.574201175,-0.452607277,0.310035516,0.64445914
891,1778413010350,0.23818462,-0.054576356,-0.62625605,-0.50318545,0.5700732,0.693388
892,1778413010360,0.5889842577777777,0.0902220682222222,-0.8173749166666666,-0.4262865411111111,0.9452012777777776,0.7791102333333333
893,1778413010370,0.7243349539999999,0.155310899,-1.01456529,-0.32237464,0.9084826,0.8008971
894,1778413010380,0.6676880122222222,-0.0069888933333333,-0.9299051888888888,-0.1793515413333333,0.6980117777777778,0.6927092833333334
895,1778413010390,0.6702118933333333,-0.1465024499999999,-0.8583427666666666,0.0354545926666666,0.7779648666666668,0.5435268
896,1778413010400,1.0274227699999998,-0.285443485,-0.8544401,0.208283638,1.22624532,0.459066976
897,1778413010410,1.4024598666666668,-0.3976485266666667,-0.9363825444444444,0.34983731,1.5451890333333334,0.3578292266666667
898,1778413010420,1.5448461777777778,-0.4616495444444444,-1.0574838111111111,0.4249036622222222,1.7813832777777776,0.2374244511111111
899,1778413010430,1.60361792,-0.466420512,-1.1817031,0.55811586,1.7746029499999998,0.14356438
900,1778413010440,1.6415355222222223,-0.4004874555555556,-1.268796933333333,0.6552609333333334,1.5156647666666665,0.068491252
901,1778413010450,1.6077768,-0.37892455,-1.2495546,0.6434512,1.3030899,0.026953636
902,1778413010460,1.48772094,-0.372509536,-1.20450319,0.615230088,0.93120612,0.1111894708
903,1778413010470,1.4398706,-0.37502187,-1.1770809,0.58175564,0.52181625,0.24808034
904,1778413010480,1.4846767555555551,-0.3227593544444445,-1.106534766666667,0.5198564555555556,-0.0049461611111111,0.5249298888888889
905,1778413010490,1.4844341,-0.260173716,-1.13796282,0.398623646,-0.5760747700000001,0.744332648
906,1778413010500,1.4401145,-0.2595883,-1.0450305,0.28427303,-0.8917606499999999,0.83327204
907,1778413010510,1.4163292666666667,-0.2463219477777777,-0.994438111111111,0.2028267337777777,-0.9841343444444444,0.8380909433333333
908,1778413010520,1.3061128,-0.18025441,-0.7853812,-0.009544488,-1.1892433,0.83754796
909,1778413010530,1.2210638444444446,-0.15550365,-0.6530970688888889,-0.0607199128888888,-1.212183988888889,0.7977749855555555
910,1778413010540,1.233910011111111,-0.1354584499999999,-0.4730221799999999,-0.1025968866666666,-1.0976161333333332,0.6726191666666667
911,1778413010550,1.2297363,-0.15635058,-0.3629175,-0.10300412,-0.9400176,0.5418979
912,1778413010560,1.2084207666666666,-0.1449136022222222,-0.2922562111111111,-0.0765340688888888,-0.6166078555555555,0.3109297322222222
913,1778413010570,1.175332811111111,-0.12970269,-0.2244948055555555,-0.0429374702222222,-0.4460457511111111,0.1340555237777777
914,1778413010580,1.12678528,-0.125440244,-0.172613734,0.0002290682,-0.376083398,0.0028709816
915,1778413010590,1.0577548333333333,-0.13088162,-0.1247227233333333,0.06864396,-0.34159088,-0.1374406366666666
916,1778413010600,0.9997839,-0.1359970955555555,-0.0859467488888889,0.0948425177777777,-0.3322245444444445,-0.1838650322222222
917,1778413010610,0.937274188,-0.14322788,-0.078455799,0.1163511285,-0.2968564919999999,-0.24244528
918,1778413010620,0.9188272966666666,-0.1432332966666666,-0.0802079344444444,0.0972859111111111,-0.29075482,-0.2257419933333333
919,1778413010630,0.8929213333333332,-0.1979790277777778,-0.0960455772222222,0.0696620393333333,-0.34566319,-0.1789782433333333
920,1778413010640,0.879850123,-0.258612651,-0.0992954259999999,0.02380777335,-0.437168106,-0.0995681072
921,1778413010650,0.88002086,-0.28080907,-0.1293673,-0.0052685575,-0.46538925,-0.048256934
922,1778413010660,0.8985314511111111,-0.25290433,-0.1733807144444444,-0.0482314817222222,-0.5329897022222222,0.0340717028888888
923,1778413010670,0.8824508950000001,-0.240605509,-0.186693825,-0.0698351122,-0.5865202679999999,0.09304731
924,1778413010680,0.8743091466666666,-0.2478599866666667,-0.1887508533333333,-0.0523037968888888,-0.5634641622222222,0.1502090355555555
925,1778413010690,0.9099718066666668,-0.2561192844444445,-0.2078610422222222,-0.0116485181111111,-0.4674932777777778,0.1850951988888888
926,1778413010700,0.943103816,-0.264613016,-0.25570699,0.0170273673,-0.380176059,0.1842468059999999
927,1778413010710,0.9731868333333332,-0.2826248977777778,-0.2713098622222222,0.0287352726666666,-0.3084015166666666,0.1676521233333333
928,1778413010720,1.0066745,-0.29251707,-0.27239394,0.03077143,-0.24609509,0.15584241
929,1778413010730,1.0201051499999998,-0.2937519,-0.313753065,0.0164776045,-0.157033562,0.1127776739999999
930,1778413010740,1.0360562999999998,-0.2664078333333333,-0.32160413,0.0072877466666666,-0.1280658266666666,0.0942147033333333
931,1778413010750,1.0410973,-0.2400444999999999,-0.31068885,-0.009544488,-0.1416402,0.06543701
932,1778413010760,1.0422925900000002,-0.229360936,-0.30535317,-0.0325123457999999,-0.197288391,0.0291526841
933,1778413010770,1.0538623666666669,-0.2353287777777777,-0.33370171,-0.0558331366666666,-0.2218648166666667,0.0001272599444444
934,1778413010780,1.054323077777778,-0.2478091777777778,-0.3889759488888888,-0.1013073205555555,-0.3067725866666666,-0.0424199483333333
935,1778413010790,1.0495612,-0.253612358,-0.428296337,-0.125971979,-0.388239242,-0.0640167925
936,1778413010800,1.025391711111111,-0.2731934444444444,-0.47274103,-0.1763312433333333,-0.5692332833333333,-0.0885728566666666
937,1778413010810,1.0138024,-0.2692094711111111,-0.4769417977777778,-0.2079425899999999,-0.6231914599999999,-0.0836860766666666
938,1778413010820,1.0120409,-0.25592956,-0.4776193199999999,-0.23685603,-0.59427804,-0.08124269
939,1778413010830,0.9794271,-0.2100393533333333,-0.4509409433333333,-0.2997054233333333,-0.4479461666666666,-0.0624421661111111
940,1778413010840,0.9670008911111112,-0.15857294,-0.4075508677777777,-0.3323518033333333,-0.3594411799999999,-0.0411982531111111
941,1778413010850,0.993161656,-0.141666792,-0.319195448,-0.3892013419999999,-0.192584868,-0.0357956488
942,1778413010860,1.0159434333333333,-0.13666448,-0.2944379266666666,-0.4209246766666666,-0.0031814966666666,-0.0466280073333333
943,1778413010870,1.0151845444444445,-0.1272127155555555,-0.3394541088888889,-0.4601546366666666,0.13649891,-0.0645461937777777
944,1778413010880,1.0088211,-0.131989408,-0.398998912,-0.504773629,0.1243837705,-0.0772721818
945,1778413010890,0.9988692333333334,-0.155131,-0.4251467866666666,-0.5551753155555555,-0.0470946261111111,-0.0790707844444444
946,1778413010900,0.998625292,-0.1709368,-0.4148047,-0.592002618,-0.189164124,-0.0678040452
947,1778413010910,0.9903321577777776,-0.1797394822222222,-0.3780911733333333,-0.6201287433333333,-0.27052898,-0.0379404031111111
948,1778413010920,0.9852099,-0.17366867,-0.33974543,-0.62107897,-0.2577012,-0.010384403
949,1778413010930,0.98867358,-0.170131873,-0.315176938,-0.589620322,-0.196311044,0.0134310050999999
950,1778413010940,0.9935030666666664,-0.17367883,-0.27441643,-0.5361711677777777,-0.0447869807777777,0.0369308091111111
951,1778413010950,0.98516118,-0.192383174,-0.2523623,-0.500680942,0.075027315,0.02530434835
952,1778413010960,0.9836651333333334,-0.1925518866666666,-0.2599338833333333,-0.4347705333333333,0.1114541713333333,0.0063884443666666
953,1778413010970,0.984966,-0.17610784,-0.29263905,-0.402029104,0.0811968697,-0.00187835535
954,1778413010980,0.9714083244444444,-0.1302989288888889,-0.3253814555555555,-0.3942509822222222,-0.003452984,-0.0016204420777777
955,1778413010990,0.959513988888889,-0.0957982733333333,-0.3447559033333333,-0.4041603077777778,-0.1582009588888889,0.0094426803333333
956,1778413011000,0.97518795,-0.0633817449,-0.293581159,-0.4157120949999999,-0.267841249,0.01088835275
957,1778413011010,0.9902508566666668,-0.0721485166666666,-0.21714682,-0.40402456,-0.2055755446666667,0.0045559026666666
958,1778413011020,0.99984497,-0.094121344,-0.16232654,-0.39262208,-0.096437514,-0.007253811
959,1778413011030,1.0191957155555555,-0.1176457508888889,-0.0714066044444444,-0.3204063622222222,0.0755499302222222,-0.0296430613333333
960,1778413011040,1.01769958,-0.1896757,-0.0371119216,-0.164348451,0.328162426,-0.0561979472
961,1778413011050,1.0029887444444443,-0.2366906444444444,-0.0908047555555555,0.0163825849999999,0.4867943655555555,-0.05416179
962,1778413011060,1.0319741666666666,-0.2658217455555555,-0.1488399855555555,0.1453392299999999,0.4946674866666666,-0.0186987152711111
963,1778413011070,1.05370783,-0.26319524,-0.201795312,0.224287844,0.419926942,0.005696150912
964,1778413011080,1.0721832,-0.2300439066666666,-0.2846947944444444,0.2950646866666667,0.1005098233333333,0.028786178
965,1778413011090,1.0693916499999998,-0.2128477849999999,-0.37770495,0.30516402,-0.192340534,0.037582378
966,1778413011100,1.0635409999999998,-0.20564886,-0.4344697666666667,0.2855626022222222,-0.3800063944444444,0.0440573593333333
967,1778413011110,1.1107863999999998,-0.1669677444444444,-0.4158440399999999,0.2510836755555555,-0.6513583255555555,0.0593964142222222
968,1778413011120,1.14747244,-0.118439827,-0.368942255,0.244934476,-0.613702964,0.0292595832
969,1778413011130,1.1074053666666666,-0.1042845388888888,-0.3510469111111111,0.2117179577777778,-0.3386723822222222,-0.0571481545555555
970,1778413011140,1.09111555,-0.1196106399999999,-0.3060697,0.196188864,-0.2182404479999999,-0.088450685
971,1778413011150,1.1046545888888888,-0.13690162,-0.2972056822222222,0.17778201,-0.0681349186666666,-0.1223730733333333
972,1778413011160,1.0933107,-0.160009335,-0.331452265,0.160881902,-0.0181268922,-0.1255902012
973,1778413011170,1.0815874555555556,-0.1695491866666666,-0.3448948033333334,0.1304752766666666,-0.0142446181111111,-0.1004504357777777
974,1778413011180,1.0477644333333334,-0.1541553422222222,-0.3502067411111111,0.1195478913333333,-0.0496058866666666,-0.0769667533333333
975,1778413011190,1.05417134,-0.141178966,-0.324268906,0.0982089684,-0.0397508848,-0.072079976
976,1778413011200,1.043692377777778,-0.1366746366666666,-0.3224375055555555,0.08758023,-0.011529742,-0.08674031
977,1778413011210,1.02055351,-0.142032687,-0.39478522,0.03956763328,-0.001878355,-0.114778201
978,1778413011220,1.0225291,-0.1800105,-0.49911448,-0.0626882,-0.19111884,-0.1643179
979,1778413011230,1.0255375,-0.17025383,-0.51667645,-0.1932228677777777,-0.4731266655555555,-0.1635034455555555
980,1778413011240,1.0297125399999998,-0.131410102,-0.46991765,-0.3562766599999999,-0.5576272,-0.202495865
981,1778413011250,1.0293046733333333,-0.0972617704444444,-0.3906122466666666,-0.4453585533333333,-0.46498202,-0.2699944866666667
982,1778413011260,0.959830436,-0.0070491915999999,-0.28078468,-0.548876816,-0.253791772,-0.391430916
983,1778413011270,0.9327374,0.022531802,-0.30507877,-0.5880932,-0.18195613,-0.44530764
984,1778413011280,0.8846125840000001,0.0087749024,-0.42867135,-0.63341808,-0.217507442,-0.465954298
985,1778413011290,0.87758166,-0.014543531,-0.56427073,-0.6670961111111111,-0.3603235377777778,-0.46980942
986,1778413011300,0.7842631866666667,-0.06824585,-0.5411596133333334,-0.6652636,-0.52586315,-0.45284143
987,1778413011310,0.666624248,-0.116860472,-0.4396049119999999,-0.6076403079999999,-0.508392908,-0.4180638679999999
988,1778413011320,0.6926014,-0.131715,-0.3216956,-0.56121594,-0.44339874,-0.41904122
989,1778413011330,0.6474920200000001,-0.12536402,-0.2065669339999999,-0.587604536,-0.030183488,-0.437488804
990,1778413011340,0.6173937333333334,-0.0744318531111111,-0.1464584,-0.6456486044444445,0.1811586327777777,-0.4322083699999999
991,1778413011350,0.645495,0.0149703859999999,-0.08323657,-0.82191198,0.0446682044444444,-0.41177892
992,1778413011360,0.6310703520000001,0.1483775546,0.148901984,-0.95069212,-0.0380405133999999,-0.377259272
993,1778413011370,0.61107224,0.16238752,0.24839863,-1.020573,-0.017027367,-0.3542914
994,1778413011380,0.6476902,0.15077099,0.5323633799999999,-1.042380275,0.1451144059999999,-0.239146707
995,1778413011390,0.6721157666666666,0.1454996822222222,0.54489968,-0.939737588888889,0.3140603466666666,-0.1931634688888888
996,1778413011400,0.7519409044444445,0.1262844722222222,0.4696953977777778,-0.8219119388888889,0.5038980911111111,-0.1438205882222222
997,1778413011410,0.969090098,0.0857336649999999,0.385757278,-0.631341175,0.7960256099999999,-0.0913216638
998,1778413011420,1.0237488,0.04524654,0.33212304,-0.5312844,0.9341382,-0.0891837
999,1778413011430,1.0344475699999998,-0.0571435826,0.1623387409999999,-0.399830068,1.00304172,-0.0113312168
1000,1778413011440,1.045,-0.13830076,0.043905,-0.27900448,1.0208784,0.07704311
