id,timestamp,acc_x,acc_y,acc_z,gyro_x,gyro_y,gyro_z
0,1778291986190,0.022435552,0.36650178,0.9369238,0.00065612793,-0.032546997,0.004196167
1,1778291986200,0.0153579911111111,0.3573624111111111,0.89952882,-0.0785234235633333,0.0174068873777777,0.032136705
2,1778291986210,0.025608462,0.34937665,0.8889126633333334,-0.1536271855555555,0.0530988913333333,0.0498894588888888
3,1778291986220,0.032930054,0.34417045,0.8918956499999999,-0.18843079,0.06919861,0.05532837
4,1778291986230,0.064453472,0.3509231033333333,0.9246395666666668,-0.2803955133333333,0.0768330883333333,0.0498250326666666
5,1778291986240,0.0707177155555555,0.3493776933333333,0.9345645888888888,-0.2984466588888889,0.0642903635555555,0.0415429012222222
6,1778291986250,0.0731320972222222,0.3413905333333333,0.9660074777777778,-0.3065524644444444,0.0086551243333333,0.0075768365555555
7,1778291986260,0.07027131,0.3423391799999999,0.9914708,-0.3020562111111111,-0.0332489005555555,-0.0279388429999999
8,1778291986270,0.06660982,0.35063794,1.0075778,-0.2949524,-0.05278015,-0.047470093
9,1778291986280,0.039580885,0.36180361625,1.0151749125,-0.24668693875,-0.08507538,-0.074769973625
10,1778291986290,0.028537512,0.36406133,1.0122161,-0.20654297,-0.1124420199999999,-0.0948791499999999
11,1778291986300,0.0149508133333333,0.3792335266666666,0.9900879333333332,-0.1585303444444444,-0.1127861866666666,-0.1013234455555555
12,1778291986310,0.0081172814666666,0.3986764266666667,0.97332976,-0.1442108133333333,-0.0929056799999999,-0.1149342833333333
13,1778291986320,0.002849551515,0.397374785,0.947235585,-0.1652526849999999,-0.0887374869999999,-0.147598265
14,1778291986330,-0.00033197364,0.38708926,0.91748606,-0.2070617685714285,-0.1011003774285714,-0.1823708642857142
15,1778291986340,-0.00149461468,0.3806681859999999,0.905830777,-0.22303772,-0.10977173,-0.18807983
16,1778291986350,-3.974977777777799e-06,0.3672338888888888,0.9008715055555556,-0.2488420333333333,-0.1351589644444444,-0.1763627811111111
17,1778291986360,0.0055145248666666,0.3573906,0.8981189,-0.2651163833333333,-0.1470540366666666,-0.1532796233333333
18,1778291986370,0.0265849253333333,0.3510444199999999,0.8810750333333334,-0.2818061011111111,-0.1158108166666666,-0.1209682877777777
19,1778291986380,0.0413909104444444,0.3451873533333333,0.8664048888888889,-0.3047705777777778,-0.0878228088888888,-0.1049296088888888
20,1778291986390,0.033418458,0.33379728,0.87115085,-0.3542412622222222,-0.025031196,-0.0810292555555555
21,1778291986400,0.0204961007777777,0.3028156533333333,0.9403679055555556,-0.33098857,0.0098927816666666,-0.0501302066666666
22,1778291986410,0.0112089620666666,0.2820983366666666,0.9680003333333332,-0.24541728,0.0619150786666666,-0.0126698812333333
23,1778291986420,-0.00802260788,0.260262982,0.94248852,-0.179367064,0.1012603739999999,0.01836242658
24,1778291986430,-0.0149062244444444,0.2493269444444444,0.9023356777777778,-0.1740417466666667,0.1091461166666666,0.0429077146666666
25,1778291986440,-0.013442044,0.24959862,0.88872254,-0.19534302,0.11021423,0.0574646
26,1778291986450,0.0071005469111111,0.2420732711111111,0.8606969366666666,-0.3122253377777778,0.1966145799999999,0.0595957433333333
27,1778291986460,0.0230463176666666,0.23487335,0.8558562666666667,-0.4347296811111111,0.3334401422222222,0.0565151644444444
28,1778291986470,0.0350044796666666,0.2269002033333333,0.9049115,-0.5555826733333333,0.5155436233333334,0.0354512533333333
29,1778291986480,0.046434313,0.2245001733333333,0.9380219666666666,-0.5857696433333334,0.5677439333333334,0.0109507239999999
30,1778291986490,0.064657755,0.2233616,0.9643803,-0.57618713,0.5720062,-0.018173218
31,1778291986500,0.0881952416666666,0.2148468133333333,1.0174219,-0.4762861433333333,0.5092756577777777,-0.0953487797777777
32,1778291986510,0.0888189705555555,0.1927731655555555,1.0519429777777778,-0.3688151022222222,0.4645928288888888,-0.15707058
33,1778291986520,0.0745147033333333,0.1157462699999999,1.0009350555555556,-0.1784210206666666,0.4281277144444445,-0.2529415533333333
34,1778291986530,0.0745147028888889,0.0645490491111111,0.9481910222222224,-0.0706549753333333,0.3948635544444444,-0.3413594533333334
35,1778291986540,0.078690864,0.028483072,0.8915285499999999,-0.04248047,0.35095215,-0.44161987
36,1778291986550,0.0188151995555555,0.0200761344444444,0.8382568988888889,-0.1329125322222222,0.2331831177777777,-0.5126970033333333
37,1778291986560,-0.07921504,0.011398206,0.77523667,-0.27790833,0.03883362,-0.60087585
38,1778291986570,-0.17348201,-0.0108110303499999,0.923256975,-0.7140228200000001,-0.58690492,-0.520660404
39,1778291986580,-0.1719976066666666,-0.0007642353333333,1.0975138333333332,-0.87959798,-0.7849731666666666,-0.4098358133333333
40,1778291986590,-0.0744158433333333,0.0737006895555555,1.345720377777778,-0.8808441133333333,-0.6926524,-0.2386830633333333
41,1778291986600,-0.0244653893333333,0.1094687122222222,1.4631931777777778,-0.7214101133333334,-0.386215214,-0.0768788639999999
42,1778291986610,0.0037646643333333,0.0949333722222222,1.5172792,-0.4677547844444444,0.043163724,0.0417819551111111
43,1778291986620,-0.0290480392222222,0.0201433633333333,1.4024088,-0.3160146066666667,0.3205956377777778,0.1686672644444444
44,1778291986630,-0.033454232,-0.02765247,1.3102088,-0.2474229622222222,0.4304962177777777,0.25991991
45,1778291986640,-0.030240711,-0.0470549306666666,1.2277999333333334,-0.1934000633333333,0.2913055433333333,0.3170369466666666
46,1778291986650,-0.0378602534444444,-0.0409534891111111,1.2028245333333334,-0.0985819513333333,-0.00076294,0.3685201033333333
47,1778291986660,-0.03577338,-0.017889025,1.2122197,0.015045166,-0.26104736,0.39834595
48,1778291986670,-0.0251322033,-0.00868802176,1.20310425,0.1429855356,-0.356065366,0.428759768
49,1778291986680,0.0267745163333333,0.0202384187777777,1.1620252444444443,0.4200286866666667,-0.5064036066666667,0.4984842966666666
50,1778291986690,0.0717221813333333,0.0316959037777777,1.0839278555555556,0.5476226777777778,-0.3702307888888889,0.5232221833333333
51,1778291986700,0.0997614355555555,0.0371737891111111,0.9706315666666668,0.5808817533333334,-0.22216289,0.5135752366666666
52,1778291986710,0.10932043,0.033241138,0.89348215,0.54608154,-0.10072327,0.4819793700000001
53,1778291986720,0.1011309055555555,0.0129168263333333,0.8154921055555556,0.3800760866666667,0.0272928874666666,0.4111378933333333
54,1778291986730,0.0968059422222222,0.0116963304444444,0.7991135866666667,0.2425469244444444,0.097724068,0.3586917333333333
55,1778291986740,0.0779722511111111,0.0183402717777777,0.8581208011111111,0.0458221422222222,0.2278611888888889,0.26583862
56,1778291986750,0.066304798,0.0231252298,0.904964669,-0.091119383,0.348770131,0.188757322
57,1778291986760,0.06502328,0.025431314,0.9158135,-0.10267639,0.36853027,0.17944336
58,1778291986770,0.0559119055555555,0.0261772311111111,1.0236861666666668,-0.1484120711111111,0.8360053111111111,0.0306532118888888
59,1778291986780,0.0377705553333333,0.0177842923333333,1.0491902333333334,-0.1310780866666666,0.9512329266666668,-0.0045013427333333
60,1778291986790,0.028902866,0.0080628411111111,1.0366343444444444,-0.0852745888888888,0.989942788888889,-0.0310143372222222
61,1778291986800,0.0361026153333333,0.0023673674666666,1.0188858333333333,-0.0227711986666666,0.8974406,-0.0567067466666666
62,1778291986810,0.046597634,-0.0034903895999999,1.0026969,0.029434204,0.762146,-0.08262634
63,1778291986820,0.0543668444444444,-0.0084663896,0.9817353444444444,0.0410919186666666,0.6889394177777777,-0.0952911355555555
64,1778291986830,0.068196364,-0.01166574,0.9555937,0.09333801,0.33976746,-0.16305542
65,1778291986840,0.0257847423333333,-0.0268925562222222,0.9427670733333334,0.0691952161111111,0.1111534972222222,-0.2167256677777777
66,1778291986850,-0.0071368409333333,-0.05588097,0.9710100566666668,0.0071716307777777,-0.078352184,-0.23625183
67,1778291986860,-0.0220249172222222,-0.0770597327777777,1.009191577777778,-0.0362650553333333,-0.1905619266666666,-0.23761495
68,1778291986870,-0.0333458705555555,-0.1074312711111111,1.0636983,-0.0577443435555555,-0.2912868866666667,-0.2248925111111111
69,1778291986880,-0.0278949465555555,-0.1243796053333333,1.0859078333333332,-0.0565049905555555,-0.3166164755555555,-0.21891954
70,1778291986890,-0.0077327445555555,-0.1647715844444444,1.1076693333333332,-0.0122477216666666,-0.3769802533333333,-0.23430718
71,1778291986900,0.008036399,-0.2086207633333333,1.1239536666666663,0.0345696344444444,-0.3947940377777778,-0.2538977722222222
72,1778291986910,0.0157975902,-0.254845094,1.09307208,0.0850372319999999,-0.3276184,-0.23900452
73,1778291986920,0.0127960208333333,-0.2952609266666666,1.0399162,0.1189168266666666,-0.2502085333333333,-0.2005106633333333
74,1778291986930,-0.0040441235,-0.31502944,1.0084332,0.1508789,-0.2136383,-0.16571045
75,1778291986940,-0.0191081371111111,-0.3056330733333333,1.0014775,0.2027147055555555,-0.2576107433333333,-0.1448805066666666
76,1778291986950,-0.058347367,-0.27659005,0.9861019,0.3809662,-0.45439148,-0.09327698
77,1778291986960,-0.0326675294222222,-0.2298396133333333,0.9912269111111108,0.6137864777777778,-0.7302890333333334,-0.0420854368888888
78,1778291986970,0.0297709694666666,-0.2041456188888888,0.9647871333333332,0.8806881222222223,-0.8084140333333334,0.0369296603333333
79,1778291986980,0.0601180709999999,-0.217479429,0.92822287,0.96717528,-0.746806336,0.0730239867
80,1778291986990,0.1501990888888889,-0.3903610855555555,0.7643350111111111,0.8258955222222222,-0.7460344155555556,0.0126664902222222
81,1778291987000,0.1845029333333333,-0.4287864744444444,0.7316042111111112,0.6566891333333333,-0.6989254444444444,-0.0223100447777777
82,1778291987010,0.1869302611111111,-0.3265136888888889,0.8183255722222222,0.4268290222222222,-0.1691894566666666,-0.035686917
83,1778291987020,0.1794859666666667,-0.2398595366666666,0.8399514533333333,0.3253936799999999,0.3261006733333333,-0.0353953046666666
84,1778291987030,0.1450736,-0.17567205,0.81172246,0.28349304,0.6268616,-0.048538208
85,1778291987040,0.09452655,-0.1322841375555555,0.8525615355555556,0.2781117755555555,0.6343197444444445,-0.061381022
86,1778291987050,-0.096348128,0.0212089372,1.0073594,0.27295838,0.6418884200000001,-0.087954712
87,1778291987060,-0.1709808666666666,0.0249029853333333,1.1137028666666666,0.2829640733333333,0.7992553666666666,-0.0098317466666666
88,1778291987070,-0.1248534911111111,0.0726300353333333,1.1530501222222225,0.3286505822222222,1.059946711111111,0.0507761655555555
89,1778291987080,-0.034226763,0.1481517953333333,1.1068693,0.4445292133333333,1.4187012,0.0146738699999999
90,1778291987090,-0.0424432453333333,0.18550601,1.0224658555555557,0.5490383544444444,1.5950707444444443,-0.0705515555555555
91,1778291987100,-0.0697367564444444,0.2022918822222222,0.9711186366666666,0.607445608888889,1.6528405,-0.1203833711111111
92,1778291987110,-0.1104676533333333,0.23993058,0.8816314944444444,0.6981167244444445,1.6159074333333332,-0.1887902155555555
93,1778291987120,-0.14413411,0.28364393,0.79756723,0.731170665,1.4886627,-0.2482681299999999
94,1778291987130,-0.1654616722222222,0.3129176688888889,0.7381124822222223,0.6482323666666667,1.2951354666666668,-0.2423536555555555
95,1778291987140,-0.1817861077777778,0.3388961444444444,0.6724338333333333,0.4947814966666667,1.0909627,-0.2170257566666666
96,1778291987150,-0.18598923,0.35259,0.6229443,0.30480957,0.8814697,-0.19288635
97,1778291987160,-0.2162798866666666,0.3755042666666666,0.6299947466666667,-0.0914849206666666,0.4925197977777777,-0.1417456722222222
98,1778291987170,-0.2570916544444445,0.4024187711111111,0.6758504555555556,-0.4012451222222222,0.1695047977777778,-0.097717285
99,1778291987180,-0.2918970388888889,0.4212113399999999,0.7746807111111111,-0.5349884,-0.0346764466666666,-0.0578257241111111
100,1778291987190,-0.3496977777777778,0.4723001955555556,1.0246488,-0.5941145111111111,-0.3779907266666666,0.044272529
101,1778291987200,-0.33186324,0.483039128,1.10080884,-0.46880187,-0.42381592,0.0764282216
102,1778291987210,-0.2011889044444444,0.5121759555555555,1.2423481333333333,0.1520436666666666,-0.6016879722222223,0.1208496077777777
103,1778291987220,-0.1400120377777777,0.5248129777777778,1.1500405333333334,0.4142846055555556,-0.6351843944444444,0.0574679905555555
104,1778291987230,-0.1128948099999999,0.5231867,1.0537057,0.47843933,-0.61576843,0.025512695
105,1778291987240,-0.1087459544444444,0.5232952333333334,0.9972200111111112,0.4996253122222222,-0.5858239055555556,0.0076361761111111
106,1778291987250,-0.09422496,0.5236751,0.7995201,0.57377625,-0.4810180699999999,-0.05493164
107,1778291987260,-0.0910112672222222,0.5415444166666666,0.7041477,0.2110612617777777,-0.1990271688888888,-0.0984208866666666
108,1778291987270,-0.1027392237777777,0.5569741166666666,0.7182349044444445,-0.0489857991111111,-0.0210622133333333,-0.0767042372222222
109,1778291987280,-0.0451419225777777,0.5975425833333333,0.8920036333333334,-0.2377132888888889,0.2160254588888888,-0.0415513777777777
110,1778291987290,-0.01673644915,0.6194057249999999,1.1124007,-0.2471160959999999,0.333596802,-0.0696289049999999
111,1778291987300,-0.0448168366666666,0.638394761111111,1.2114474333333334,-0.0880499966666666,0.2558610733333333,-0.1248219777777777
112,1778291987310,-0.0773032444444444,0.6252833222222223,1.173889966666667,0.3324991855555555,0.0306074372222222,-0.2189822722222222
113,1778291987320,-0.0918378933333333,0.5852036511111112,1.038953122222222,0.5630696611111111,-0.1277652338888889,-0.2781660277777777
114,1778291987330,-0.0933295533333333,0.5594692066666666,0.88546805,0.6040208588888889,-0.3175608355555555,-0.3213077088888889
115,1778291987340,-0.0803951,0.5347378466666667,0.7186552333333334,0.4981435133333333,-0.50250752,-0.3418426533333333
116,1778291987350,-0.06835502,0.51391166,0.656747,0.3585968,-0.607254,-0.34681702
117,1778291987360,-0.1045156988888888,0.4768016133333334,0.6888943,0.0375942644444444,-0.7607099777777777,-0.32326253
118,1778291987370,-0.1329079299999999,0.455460668,0.78275314,-0.25398712,-0.8691436580000002,-0.281777943
119,1778291987380,-0.1362430533333333,0.43184117,0.8864305222222222,-0.4165666377777777,-0.923104177777778,-0.231811521111111
120,1778291987390,-0.1501951133333333,0.4128723333333333,1.0062359666666667,-0.4966990111111111,-0.97317165,-0.2004479288888888
121,1778291987400,-0.17366503,0.4131979333333333,1.0590346,-0.48136901,-0.9081929333333332,-0.18506368
122,1778291987410,-0.1493951077777777,0.4201946044444444,1.041679377777778,-0.4679989277777777,-0.7467413777777777,-0.1706254777777777
123,1778291987420,-0.11387163,0.42141476,1.0307646,-0.47924805,-0.6807556,-0.16145325
124,1778291987430,-0.0576704075555555,0.4382402088888889,1.0069413777777778,-0.601565888888889,-0.4303029533333333,-0.1072421588888888
125,1778291987440,-0.0197332475555555,0.4422400911111111,1.0082298444444444,-0.7132398777777778,-0.2042270255555555,-0.0391286226666666
126,1778291987450,-0.0037037943999999,0.439571624,1.0319847000000002,-0.74438172,-0.06034546,0.0297607422
127,1778291987460,0.0268961844444444,0.4317735866666667,1.0775965666666665,-0.6579708666666666,0.0834587944444444,0.1339874288888889
128,1778291987470,0.0441288144444444,0.4249264066666667,1.0855961555555558,-0.6198578,0.093170166,0.1474762
129,1778291987480,0.0466375553333333,0.4197468233333333,1.0704234333333331,-0.5350443544444444,-0.1791297033333333,0.0580579970444444
130,1778291987490,0.0387598101111111,0.4134279733333333,1.062423922222222,-0.5004848900000001,-0.3843112444444444,-0.0099470348
131,1778291987500,0.055505592,0.41649235,1.0642400666666667,-0.4454447455555555,-0.6758490533333332,-0.1280737966666666
132,1778291987510,0.08357181,0.42739385,1.074816,-0.3588562,-0.98861694,-0.2946167
133,1778291987520,0.1038170035,0.4428548409999999,1.06934907,-0.302940368,-1.025904862,-0.38856811
134,1778291987530,0.0663116994444444,0.4567209911111111,1.0643491222222223,-0.2233445895555555,-1.0051303666666669,-0.4979604044444444
135,1778291987540,0.014991255,0.4660758699999999,1.0729868,-0.18682861,-1.0104523,-0.57424927
136,1778291987550,-0.1779362405555555,0.5441347011111112,1.0499359777777777,-0.0533735472222222,-0.4828542205555556,-0.3117726644444444
137,1778291987560,-0.31265584,0.59689236,1.0301533,0.053390503,-0.060775757,-0.10179138
138,1778291987570,-0.34401646,0.60811794,1.0091643,0.050201416,0.026046753,-0.0069885253999999
139,1778291987580,-0.1047726922222222,0.5154304333333334,0.7309395,-0.3390350377777777,0.6746266555555556,1.0869293555555557
140,1778291987590,-0.0139288932799999,0.43156646,0.6814450200000001,-0.590560915,0.6947708,1.2577515
141,1778291987600,0.0143272574666666,0.3219196666666667,0.7244310777777778,-0.8972405244444445,0.5626441,1.2938232777777778
142,1778291987610,0.0276147947777777,0.2443374733333333,0.8627033044444444,-1.0908779777777775,0.3845757333333333,1.2142842555555555
143,1778291987620,0.030001173,0.21884774,0.93765646,-1.1306458,0.31048584,1.1584167
144,1778291987630,0.0457839687777777,0.2350636333333333,1.0757929977777778,-1.0216369799999998,0.19117228,1.0486958666666668
145,1778291987640,0.06807348,0.2625336,1.20075,-0.8799591133333333,0.0919240296666666,0.9345347
146,1778291987650,0.0658372923333333,0.2775839666666667,1.2284912,-0.1813252699999999,-0.1435089133333333,0.5062967733333333
147,1778291987660,0.0464022702,0.28718348,1.19013392,0.232678222,-0.266690068,0.292785642
148,1778291987670,0.0474112981111111,0.2759556,1.0714130666666666,0.5779215455555556,-0.4038509888888889,0.1238064242222222
149,1778291987680,0.0640889853333333,0.2520926777777778,0.8910814555555555,0.8258938233333333,-0.5074157888888888,-0.0099453396666666
150,1778291987690,0.07124812,0.24618134,0.8308807,0.82092285,-0.5055237,-0.016571045
151,1778291987700,0.0858496544444444,0.2577470133333333,0.7809036466666667,0.5351342155555555,-0.3815934888888889,0.0381673188888888
152,1778291987710,0.0905271833333333,0.2784373766666667,0.7865845866666666,0.3058675133333333,-0.2782643666666666,0.08143616
153,1778291987720,0.10118431,0.3146658166666667,0.8561949888888889,0.1358981660444444,-0.1825103822222222,0.0898386666666666
154,1778291987730,0.1180448449999999,0.35985077,0.9663324,-0.02010803284,-0.0467040996,0.070254518
155,1778291987740,0.1227970344444444,0.3729013622222222,1.018208311111111,-0.0488111722222222,0.0713263607777777,0.0248582622222222
156,1778291987750,0.10020871,0.3843586666666667,1.0822603,-0.0399983733333333,0.3369242333333333,-0.09470113
157,1778291987760,0.09174854,0.4002900911111111,1.1086725444444443,-0.020173815,0.4638129377777777,-0.1557193333333333
158,1778291987770,0.07893524,0.4319358822222222,1.1239394444444446,0.0089433457777777,0.5675659111111111,-0.2023518866666666
159,1778291987780,0.0668130673333333,0.4581043033333333,1.1326982333333335,0.0352223706666666,0.614912231111111,-0.2215237044444444
160,1778291987790,0.059165522,0.47681615,1.1413215,0.07417297,0.64390564,-0.2322997999999999
161,1778291987800,0.051803663,0.5006925466666667,1.1660529,0.1395670555555555,0.6282246822222222,-0.2221187988888888
162,1778291987810,0.0497704028,0.5357309480000001,1.2020434400000002,0.240669251,0.5949599969999999,-0.202201841
163,1778291987820,0.0521029982222222,0.5793872333333333,1.2103224444444445,0.4773152555555555,0.4620446088888889,-0.2048255077777777
164,1778291987830,0.0566178955555555,0.6231142388888888,1.1759379,0.7077145,0.3259294277777778,-0.2174343555555555
165,1778291987840,0.06404802,0.64008987,1.1492543,0.7884369,0.27479553,-0.2243042
166,1778291987850,0.0613360422222222,0.6551671677777777,1.0549937666666669,0.9257321,0.0908559171111111,-0.2467922622222222
167,1778291987860,0.0576208066666666,0.6555466999999999,0.9939112622222224,0.9899410777777776,-0.0264451767777777,-0.2537146666666666
168,1778291987870,0.0669898644444444,0.6650102888888889,0.8897534544444444,0.9762708888888888,-0.155644734,-0.2305230011111111
169,1778291987880,0.0580677,0.67313468,0.8480632419999999,0.916687,-0.20597229,-0.216955562
170,1778291987890,0.0408612,0.6747464,0.84491533,0.8645935,-0.21044922,-0.21151733
171,1778291987900,-0.0440439588888888,0.6955722733333334,0.9133045811111112,0.7393086833333333,-0.0703633640555555,-0.1819847966666666
172,1778291987910,-0.066768475,0.7017145,0.9344833500000002,0.69947815,-0.0043182373,-0.16571045
173,1778291987920,-0.0772354977777777,0.7021209877777779,0.9628475355555556,0.6401231555555555,0.3466949555555556,-0.0966508677777777
174,1778291987930,-0.0696425695555555,0.6974426088888889,0.9654644644444444,0.6209479444444445,0.5586310666666666,-0.0623202877777777
175,1778291987940,-0.065222374,0.6714919333333333,0.92484331,0.6011200133333333,0.6534983466666666,-0.08155314
176,1778291987950,-0.105671074,0.628472,0.86778303,0.5411834640000001,0.615786744,-0.151007076
177,1778291987960,-0.1373011,0.6125105,0.8627313,0.5050659,0.5032959,-0.18328857
178,1778291987970,-0.1610556566666666,0.5999420866666667,0.87005271,0.4297315688888889,0.3366987444444445,-0.1449398422222222
179,1778291987980,-0.2071818177777777,0.5668191533333333,0.8996508377777778,0.3323245444444444,0.1669684577777778,-0.0575883631111111
180,1778291987990,-0.1202571905555555,0.4898456500000001,1.0788162444444445,0.4585520444444444,0.5287339977777777,0.1548139808888889
181,1778291988000,-0.0127222252222222,0.4578196355555556,1.0961987111111111,0.644383751111111,0.9891696333333332,0.3375668022222222
182,1778291988010,0.024754701,0.440573,1.07201,0.75328064,1.2436523,0.40473938
183,1778291988020,0.0400318436,0.4407929499999999,0.927454968,0.8422836219999998,1.32280423,0.4150711079999999
184,1778291988030,-0.0068789848888888,0.4413866711111111,0.8168887,0.8540700111111111,1.0889553388888888,0.3624844044444444
185,1778291988040,-0.0539546555555555,0.4268513377777778,0.7487697666666666,0.7728729177777778,0.6583523255555556,0.2784525555555555
186,1778291988050,-0.1237823222222222,0.4111233377777777,0.6809762666666667,0.5743136955555556,0.1165381533333333,0.1955973277777777
187,1778291988060,-0.1610961,0.4122626,0.66248184,0.4509769033333334,-0.1083001055555555,0.1723361511111111
188,1778291988070,-0.2173102811111111,0.3670297666666666,0.7010283666666667,0.2095150437777778,-0.3204040522222222,0.1957736533333333
189,1778291988080,-0.230957239,0.331833076,0.7181261620000001,0.0960067751,-0.317822271,0.226893613
190,1778291988090,-0.153286792,0.25723182,0.6989954444444444,-0.055618285,-0.02082656,0.24028015
191,1778291988100,-0.022322352,0.18055662,0.6422655333333334,-0.2828742133333333,0.3625589999999999,0.1696794288888888
192,1778291988110,0.0090669587777777,0.1647748622222222,0.6010735411111111,-0.4568651044444444,0.4749501577777777,0.083568997
193,1778291988120,-0.0554053522222222,0.1583746055555555,0.6228492588888889,-1.0001525888888887,0.3127933071111111,-0.0776519776666666
194,1778291988130,-0.069940518,0.1626318233333333,0.7297604866666667,-1.2893676666666665,-0.0419413226666666,-0.125595094
195,1778291988140,-0.0547283951111111,0.1704150366666666,1.0914801488888888,-1.3112081,-0.7824876333333334,-0.1318020277777777
196,1778291988150,-0.0495215,0.1205727713333333,1.3695423444444446,-1.0055982777777777,-1.1818474555555556,-0.1045803477777777
197,1778291988160,-0.04748734,0.0581342729999999,1.4809269,-0.7274475,-1.2575989,-0.07676697
198,1778291988170,-0.1290840955555555,-0.0404782182222222,1.5033803555555556,-0.1478237533333333,-0.84942458,-0.0123189291111111
199,1778291988180,-0.2059224333333333,-0.0999880088888888,1.481496988888889,0.2809583911111111,-0.3950297044444444,0.0664571133333333
200,1778291988190,-0.221036536,-0.162542024,1.3767151,0.60723571,0.386961376,0.261891178
201,1778291988200,-0.1819356011111111,-0.18895994,1.2329383555555555,0.6765170555555555,1.2789832333333333,0.4907989555555555
202,1778291988210,-0.1646347033333333,-0.1123804866666666,1.1459593666666668,0.42582703,1.8250528666666668,0.6583947111111111
203,1778291988220,-0.1715091933333333,-0.0252787099999999,1.1740254,0.0526818188888888,2.1680026444444445,0.8158145444444445
204,1778291988230,-0.1878343177777778,0.0311803633333333,1.218470688888889,-0.0864003477777777,2.243042,0.8738148911111111
205,1778291988240,-0.17858728,0.1563959311111111,1.2415614111111113,-0.023483275,2.33235,0.94299996
206,1778291988250,-0.1494087555555555,0.2425205444444444,1.1774555,0.1019846627777777,2.3508165333333335,0.9590928977777776
207,1778291988260,-0.1275789533333333,0.3070732177777777,0.9860061888888888,0.2755076133333333,2.2429318222222223,0.9063602055555556
208,1778291988270,-0.0966104762222222,0.3623256244444444,0.7190479044444444,0.4126315611111111,1.9937201777777775,0.7857479522222222
209,1778291988280,-0.078238234,0.37724048,0.60610366,0.3942871,1.8327484000000005,0.70674133
210,1778291988290,-0.028681304,0.4100931166666666,0.4746110333333334,0.1958482583333333,1.1823967555555557,0.4225616466666667
211,1778291988300,0.0147211278888888,0.4299978,0.4442396933333333,0.1096750892444444,0.8425174066666666,0.2812381355555555
212,1778291988310,0.066122455,0.4565996733333333,0.4408369199999999,-0.0325419112,0.1838938399999999,-0.03538513
213,1778291988320,0.0294318854444444,0.4331693244444444,0.4512233844444445,-0.1133829766666666,-0.1860572,-0.2060750311111111
214,1778291988330,-0.0571279079999999,0.39273727,0.48102513,-0.21185303,-0.6599884,-0.38409424
215,1778291988340,-0.0661444015555555,0.3813343977777778,0.4855808155555556,-0.2563001833333333,-0.8204277777777779,-0.4328579388888889
216,1778291988350,-0.1451917999999999,0.2767289966666666,0.52837195,-0.4465738933333333,-1.2963002666666668,-0.5774332799999999
217,1778291988360,-0.1472667466666666,0.2272263266666666,0.5589201333333333,-0.5323232033333334,-1.260442133333333,-0.5786794199999999
218,1778291988370,-0.118849319,0.1754539799999999,0.5959516600000001,-0.6522369360000001,-1.09983215,-0.5772247279999999
219,1778291988380,-0.1006647996666666,0.1492637533333333,0.6050463,-0.7797631144444446,-0.9388987266666666,-0.6068013511111111
220,1778291988390,-0.1146441546666666,0.1402196066666666,0.6542245666666666,-0.97068785,-0.8785451133333333,-0.63495892
221,1778291988400,-0.1180064797777777,0.1393245411111111,0.6783320288888889,-1.0479142666666668,-0.8807915555555555,-0.6353115622222222
222,1778291988410,-0.11411583,0.14587308,0.70006573,-1.0896301,-0.8858185,-0.63175964
223,1778291988420,-0.11411583,0.14587308,0.70006573,-1.0896301,-0.8858185,-0.63175964
224,1778291988430,-0.11411583,0.14587308,0.70006573,-1.0896301,-0.8858185,-0.63175964
225,1778291988440,-0.11411583,0.14587308,0.70006573,-1.0896301,-0.8858185,-0.63175964
226,1778291988450,-0.11411583,0.14587308,0.70006573,-1.0896301,-0.8858184999999998,-0.63175964
227,1778291988460,-0.1374637288888889,0.0177296792666666,0.82189186,-1.0211080044444445,-0.7818467922222222,-0.5234103511111111
228,1778291988470,-0.2164841644444444,-0.0346078451111111,0.7722123622222222,-0.9863043866666666,-0.8181830455555555,-0.4313184977777778
229,1778291988480,-0.2570118,-0.0730462,0.78853714,-0.9788513,-0.8852844,-0.39900208
230,1778291988490,-0.2096777611111111,-0.0482472555,0.8398159466666667,-0.9016214933333332,-1.113840733333333,-0.3184577122222222
231,1778291988500,-0.1328534255555555,-0.0320717995555555,0.9181444088888888,-0.7886454333333334,-1.4381527555555556,-0.2004496266666666
232,1778291988510,-0.1092886344444444,-0.0824290888888888,0.935988311111111,-0.7505188,-1.4979366666666667,-0.1308492033333333
233,1778291988520,-0.078401551,-0.1414634433333333,0.9492490666666666,-0.7277933666666666,-1.4804178666666663,0.0034942633333333
234,1778291988530,-0.0452548274,-0.163017687,0.952494776,-0.7632385079999999,-1.4236694399999998,0.114138796
235,1778291988540,-0.014173097,-0.17762412,0.93777776,-0.80255127,-1.3923492,0.17037964
236,1778291988550,-0.0129126786666666,-0.17973951,0.9371675066666668,-0.81782023,-1.3951924333333332,0.1916859933333333
237,1778291988560,-0.0020920562,-0.16847351,0.9801213,-0.8884785833333333,-1.3735351666666666,0.2456614133333333
238,1778291988570,0.0103681647555555,-0.1404473899999999,1.0615284555555555,-0.9178873666666666,-1.248840333333333,0.2641279433333333
239,1778291988580,0.029512769,-0.10123529,1.1641413,-0.9074707,-1.0871582,0.27052307
240,1778291988590,0.0356418623333333,-0.0260104526666666,1.2951723222222222,-0.7741411022222222,-0.9157681,0.2106865804444444
241,1778291988600,0.02829331,0.008348004,1.3575562,-0.4866943399999999,-0.7041931,0.101135254
242,1778291988610,0.0357370876666666,-0.016669047,1.3841992,-0.0982259166666666,-0.5065867000000001,-0.016571045
243,1778291988620,0.0711860568,-0.0410385198,1.34741568,0.19604187,-0.330819694,-0.1014831539999999
244,1778291988630,0.10073704,-0.0055376838888888,1.2248168333333334,0.39990743,-0.1371782077777777,-0.1676737499999999
245,1778291988640,0.10968596,0.002977097,1.1859843,0.44754028,-0.05491638,-0.1880951
246,1778291988650,0.1220248544444444,0.0332138308888888,1.150528188888889,0.4000786666666667,0.0652821855555555,-0.2349599222222222
247,1778291988660,0.0519115072222222,0.0166047544444444,1.1444266222222224,0.0100199366666666,0.4986182311111111,-0.2822367333333333
248,1778291988670,-0.0221324148888888,-0.0236377282222222,1.130786877777778,-0.2371249744444444,0.5346018444444445,-0.2322896311111111
249,1778291988680,-0.0470262411111111,-0.0131160944444444,1.1754768333333334,-0.4037831533333333,0.2327117866666667,-0.16695658
250,1778291988690,-0.0430400142222222,0.0259062393333333,1.269980711111111,-0.5407324755555556,-0.2695058222222222,-0.1170128688888888
251,1778291988700,-0.033819757,0.047397126,1.3116741,-0.53570557,-0.3659668,-0.12471008
252,1778291988710,0.00593125225,0.05624403375,1.306183,-0.380435945,-0.3044471749999999,-0.16917801
253,1778291988720,0.0618648904444444,0.058691118,1.2650187222222222,-0.17669678,-0.17102051,-0.2227020299999999
254,1778291988730,0.0715175544444444,0.0422035393333333,1.1182585,0.061319988,-0.0608944363333333,-0.2390407955555555
255,1778291988740,0.0803073424999999,0.031990961,1.010050085,0.24354172,-0.0835456855,-0.222171785
256,1778291988750,0.0836810344444444,0.0329969355555555,0.9355275666666666,0.2721862788888888,-0.1748775933333333,-0.1945376933333333
257,1778291988760,0.0741759633333333,0.0421485793333333,0.9165451,0.2305857333333333,-0.2129313166666666,-0.1756591766666666
258,1778291988770,0.05977681,0.049470518,0.9214271000000002,0.17164612,-0.22747803,-0.15505981
259,1778291988780,0.0605088966666666,0.047315725,0.96974912,-0.0331285288888888,-0.139248316,-0.1181861022222222
260,1778291988790,0.0737005133333333,0.039614608,1.0326339777777778,-0.15327454,-0.086868286,-0.103393555
261,1778291988800,0.0914625133333333,0.0291731639999999,1.2385376666666668,-0.4275750077777778,0.1512179866666666,-0.1226314966666666
262,1778291988810,0.10590237,0.041050963,1.313931,-0.426773075,0.271064755,-0.165718075
263,1778291988820,0.11249196,0.045566384,1.357312,-0.40679932,0.35469055,-0.20407104
264,1778291988830,0.0948798033333333,0.0229509186666666,1.4302036666666669,-0.0837283666666666,0.49684312,-0.3750389966666667
265,1778291988840,0.0878426822222222,-0.0054823792222222,1.4196688888888889,0.1998748777777778,0.5901116222222222,-0.4896155388888888
266,1778291988850,0.0846429811111111,-0.0478131164444444,1.3314428777777776,0.4928232833333333,0.7229156333333333,-0.5852559333333333
267,1778291988860,0.08024975,-0.0914184466666666,1.1989470111111111,0.5794626866666667,0.8086700333333333,-0.6108245833333332
268,1778291988870,0.07746985,-0.12002803,1.1059339,0.63023376,0.9059601000000002,-0.62431335
269,1778291988880,0.0505696853333333,-0.1373149244444444,0.9554049888888888,0.4976094777777777,0.979109021111111,-0.5415157888888888
270,1778291988890,0.0336620372,-0.133328836,0.89436038,0.3807525719999999,0.985958856,-0.453759772
271,1778291988900,0.0641698677777777,-0.1371657788888889,0.8603578333333334,0.2441948799999999,0.9273257777777776,-0.3118913444444444
272,1778291988910,0.1141320485714285,-0.14907017,0.8472331557142858,0.0459354955714285,0.8390851857142857,-0.1081935311428571
273,1778291988920,0.15056582,-0.14052862,0.88018167,-0.049942017,0.8074341,-0.020843506
274,1778291988930,0.0793888097857142,-0.1890601,0.9440365971428571,-0.133948191,0.7188568285714286,0.0163726807142857
275,1778291988940,-0.0306815632142857,-0.2406959971428571,1.00606235,-0.1869812042857142,0.6341705428571428,0.0396597724285714
276,1778291988950,-0.21619260625,-0.2890224125,1.1307515125,-0.18708992,0.485054015,0.118785856875
277,1778291988960,-0.3910509442857143,-0.3084568485714286,1.2714563714285714,-0.0825783899999999,0.4202074285714285,0.24076625
278,1778291988970,-0.44456893,-0.29660222,1.3255843000000005,0.04220581,0.4494934,0.3434906
279,1778291988980,-0.44456893,-0.29660222,1.3255843,0.04220581,0.4494934,0.3434906
280,1778291988990,-0.3864289477777778,-0.2556010288888888,1.3002024333333333,0.3556416855555555,0.6696540222222223,0.5806867777777778
281,1778291989000,-0.1589451275,-0.1797445575,0.93356835,0.763664235,1.0175476,0.85082245
282,1778291989010,-0.0630390687777777,-0.16913733,0.8212142066666667,0.7584245477777778,0.8673774111111112,0.8844604611111111
283,1778291989020,0.0235203783333333,-0.1609481566666666,0.8097164688888889,0.6694149433333334,0.6086358111111111,0.84043375
284,1778291989030,0.0968054255555555,-0.1446774733333333,0.8452399133333333,0.5620591888888888,0.3158043777777777,0.7459242
285,1778291989040,0.11481111,-0.13784394,0.8639507,0.500629,0.1484934492222222,0.6661444777777777
286,1778291989050,0.0448747327777777,-0.1232952955555555,0.8949332044444444,0.3595428444444444,-0.1845821761111111,0.4495442688888889
287,1778291989060,-0.0676630233333333,-0.1002719644444444,0.9319891355555554,0.2804819766666667,-0.3446672155555555,0.3642629011111111
288,1778291989070,-0.1471039533333333,-0.0640573593333333,1.019781133333333,0.2462175177777777,-0.3330112055555555,0.3810068733333333
289,1778291989080,-0.1451517111111111,-0.037129372,1.1174584666666665,0.2986467177777777,-0.2036404091111111,0.3898281533333333
290,1778291989090,-0.13034521,0.015548099,1.1962346,0.42997742,-0.122024536,0.35253906
291,1778291989100,-0.0251565199999999,0.0827443166666666,1.2643262333333334,0.9202304244444446,-0.0085771346666666,0.2497473755555555
292,1778291989110,0.0803582833333333,0.1056859066666666,1.1974141333333332,1.430191022222222,0.0285932753333333,0.1012590222222222
293,1778291989120,0.07153121,0.1042075555555555,1.0149408444444443,1.9133538000000003,0.0252804226666666,-0.1345808233333333
294,1778291989130,0.0445359944444444,0.1047094433333333,0.8605069944444445,2.033608344444444,0.0301344129999999,-0.28064643
295,1778291989140,0.032441646,0.10584871,0.78902555,2.0411835,0.028717041,-0.33935547
296,1778291989150,0.0274388586666666,0.1703203266666666,0.6294937333333334,1.765040088888889,-0.1458095954444444,-0.53205023
297,1778291989160,0.0214452606666666,0.2222779822222222,0.6113784488888889,1.4851735444444445,-0.2942962622222222,-0.6493513222222221
298,1778291989170,0.0220415093333333,0.2564586,0.7122833055555555,1.3239084666666665,-0.3656209333333333,-0.6820119166666667
299,1778291989180,0.0185298617777777,0.2803761288888888,0.8299054222222222,1.1786753,-0.4582977266666666,-0.7061615
300,1778291989190,0.020239282,0.28388813,0.89397055,1.1836395,-0.4959259,-0.698349
301,1778291989200,-0.1111617488,0.2849741209999999,0.923488295,1.25224914,-0.331240844,-0.650411988
302,1778291989210,-0.18981317,0.3071957533333333,0.9253038888888888,1.3528442,-0.06112162,-0.5717570000000001
303,1778291989220,-0.2262320611111111,0.3625833122222222,0.84462986,1.4830423777777777,0.4599151666666666,-0.4353942911111111
304,1778291989230,-0.1996034111111111,0.3781080755555555,0.6911313377777777,1.5376129,1.0592448111111112,-0.2883317744444444
305,1778291989240,-0.1690288,0.37370187,0.58645856,1.5133514,1.3427277,-0.22323608
306,1778291989250,-0.1724996622222222,0.3780676311111111,0.5283591988888889,1.2915954333333333,1.2802277,-0.1971384666666666
307,1778291989260,-0.1743566799999999,0.4001006866666666,0.4160246833333333,0.7527415,1.0423126466666668,-0.1373087583333333
308,1778291989270,-0.1459244146666666,0.4290623,0.38079932,0.3896637,0.5778605116666666,-0.114227295
309,1778291989280,-0.0972352446666666,0.43532602,0.54208052,-0.0273284911111111,-0.0404697027777777,-0.1085442438888888
310,1778291989290,-0.0883186756,0.46349014,0.697430224,-0.1165161139999999,-0.3572326799999999,-0.139508056
311,1778291989300,-0.1140339053333333,0.48263243,0.7901231799999999,-0.1042633053333333,-0.5823974766666667,-0.16855367
312,1778291989310,-0.120216236,0.48767617,0.80549914,-0.082962036,-0.61151123,-0.17103577
313,1778291989320,-0.1722554666666666,0.5369482777777779,0.8055261166666666,0.3597208637777778,-0.65542772,-0.0162726522222222
314,1778291989330,-0.1770143922222222,0.5442697,0.7125947277777778,0.4965532,-0.5483144111111111,0.1341654477777777
315,1778291989340,-0.1710614,0.5432660777777777,0.6614243,0.4883287066666667,-0.4533877866666666,0.2527008088888889
316,1778291989350,-0.1610008799999999,0.5641061,0.6292213222222222,0.4271850577777777,-0.3847995333333333,0.3465033622222222
317,1778291989360,-0.1488519111111111,0.5837118333333333,0.6234731377777778,0.3367580844444444,-0.34040324,0.4153917
318,1778291989370,-0.0930447333333333,0.6036986222222223,0.6106601755555556,-0.0183936222222222,-0.3007541222222222,0.5280202111111111
319,1778291989380,-0.0397179561333333,0.5975425666666667,0.6264015,-0.2596181244444444,-0.3746202244444444,0.5154740955555556
320,1778291989390,0.0106401920666666,0.5915220333333333,0.6853005666666667,-0.4600050166666666,-0.5436994722222223,0.4362826866666667
321,1778291989400,0.0262591498888888,0.6018811888888889,0.7600905933333333,-0.5512644333333333,-0.7442644,0.3215925444444444
322,1778291989410,0.0262994188888888,0.5946007,0.7933773422222222,-0.5700191777777778,-0.8582492622222222,0.2443627288888888
323,1778291989420,0.0172615624,0.5644569799999999,0.8206795400000001,-0.5755340499999999,-0.843478389,0.130972293
324,1778291989430,0.01952242225,0.5588039475,0.824505575,-0.59628295,-0.7759666475,0.1066055325
325,1778291989440,0.0164564715,0.54411423,0.8523581,-0.7397003000000001,-0.53162385,0.056396486
326,1778291989450,0.0053657223444444,0.5328668277777777,0.8829328633333333,-0.8450418888888889,-0.3765716477777778,0.0207689073333333
327,1778291989460,-0.0033115149,0.52928865,0.90104777,-0.8696594,-0.33348083,0.01272583
328,1778291989470,-0.0033115149,0.52928865,0.90104777,-0.8696594,-0.33348083,0.01272583
329,1778291989480,-0.0140377746555555,0.5247051233333333,1.1583924522222222,-0.8291778544444445,0.2814771877777777,-0.0245107022222222
330,1778291989490,-0.0103773246666666,0.5464267222222222,1.2022139666666667,-0.5042114277777778,0.2700585277777778,-0.0992584222222222
331,1778291989500,-0.0073404297333333,0.5814080333333334,1.145321788888889,-0.21185303,0.11375936,-0.16731262
332,1778291989510,-0.0242885897333333,0.6125927333333334,1.0359032333333331,0.06085205,-0.05065918,-0.23335266
333,1778291989520,-0.046999452,0.6138533166666666,0.9490458333333334,0.1338297533333333,-0.1417338033333333,-0.2601674399999999
334,1778291989530,-0.064328,0.60823923,0.8571177,0.13969421,-0.20777893,-0.2711792
335,1778291989540,-0.0916486466666666,0.6136224288888888,0.82957965,-0.2580176566666666,-0.2068362766666666,-0.2150675466666666
336,1778291989550,-0.1162847888888888,0.6088502111111112,0.85022942,-0.6113281333333332,-0.1857605,-0.1554158533333333
337,1778291989560,-0.1228335033333333,0.6005256999999999,0.8955968844444444,-0.7937842333333333,-0.1394771974444444,-0.1165432394444444
338,1778291989570,-0.14864953,0.5729745,1.0345474,-1.0688629,-0.027755737,-0.046936035
339,1778291989580,-0.1514835222222222,0.57230998,1.064701877777778,-1.0693376555555554,-0.0244327121111111,-0.0393541123333333
340,1778291989590,-0.1449266,0.5972579149999999,1.1794561,-0.680305485,-0.16143799,0.0217819211499999
341,1778291989600,-0.15609296,0.6634918222222222,1.1790696333333333,-0.3023461266666667,-0.2842373322222222,0.0613725461111111
342,1778291989610,-0.23463934,0.7674059111111111,1.1335531,0.0218488888888888,-0.3645460333333333,0.1394907666666666
343,1778291989620,-0.2941892266666667,0.8476606666666666,1.0838054333333331,0.2913055333333333,-0.41248576,0.3275095666666667
344,1778291989630,-0.2977688,0.8954964,1.0436981,0.5242462,-0.42669678,0.5703888
345,1778291989640,-0.1952238322222222,0.8715918433333333,0.9741017966666666,0.6287010944444444,-0.2677883589444444,0.8723907444444445
346,1778291989650,-0.01832299,0.82191205,0.8613889,0.7857666,0.0132751465,1.3677368
347,1778291989660,0.07943643,0.7587012111111111,0.8222442511111111,0.7066446955555555,0.386823867,1.6062435666666666
348,1778291989670,0.16228133,0.7062284,0.79500467,0.61053467,0.75149536,1.8045043999999997
349,1778291989680,0.1736702055555555,0.6879110877777778,0.8098111711111111,0.4584943977777778,0.9735446466666668,1.789170977777778
350,1778291989690,0.128356842,0.65379787,0.8261625466666667,0.2649078365555555,1.0804850333333331,1.632756511111111
351,1778291989700,0.0338114651111111,0.6269378333333333,0.8492938911111111,-0.0047895641111111,1.09462826,1.310338311111111
352,1778291989710,-0.0539418655555555,0.5991695666666667,0.929507188888889,-0.20819431,0.7706739633333333,0.8252207622222222
353,1778291989720,-0.0960142266666666,0.5427514433333332,1.039265,-0.3528306777777777,0.4702741833333334,0.3624233655555555
354,1778291989730,-0.08226524,0.4998785299999999,1.0994664,-0.39508057,0.33232117,0.018585205
355,1778291989740,-0.0755538983333333,0.4651002844444444,1.104225188888889,-0.3292134633333333,0.2573954283333333,-0.2322845466666666
356,1778291989750,-0.0562331877777777,0.3605216822222222,1.1102582333333335,-0.1657002779999999,0.0906778966666666,-0.7725525000000001
357,1778291989760,-0.0444912311111111,0.32220515,1.084673977777778,-0.0069749633333333,0.0332709414222222,-0.8758884222222222
358,1778291989770,-0.032050455,0.32989313,1.04339395,0.174835205,0.0052719116,-0.8693237500000001
359,1778291989780,-0.02930434,0.34917426,1.0225877,0.23768616,0.006866455,-0.8299103
360,1778291989790,-0.0371286821111111,0.4136318844444444,0.9869416833333332,0.4199117011111111,-0.0101148816222222,-0.6405249666666667
361,1778291989800,-0.037969653,0.44045168,0.9736538,0.51519775,-0.019226074,-0.5422821
362,1778291989810,-0.0399570504285714,0.4744796542857142,0.9253656371428572,0.6483590214285714,-0.0693010591428571,-0.4080614371428571
363,1778291989820,-0.04166108175,0.5170539875,0.8457381625,0.8076133750000001,-0.15425491,-0.2345581024999999
364,1778291989830,-0.047975745,0.5338025,0.80427814,0.8779144,-0.19340515,-0.14227295
365,1778291989840,-0.065129273,0.5615029742857143,0.7428456885714285,0.8407069428571428,-0.1932460228571428,-0.0460946224285714
366,1778291989850,-0.07958057,0.58737314,0.68676525,0.7937622,-0.18859863,0.040420532
367,1778291989860,-0.0743206211111111,0.6167276044444444,0.6559321055555556,0.5369127022222222,-0.1426798477777777,0.0977122013333333
368,1778291989870,-0.0650329611111111,0.6406456144444445,0.6450174555555556,0.3378889277777778,-0.11036682,0.1294352233333333
369,1778291989880,-0.0612093611111111,0.6466119455555556,0.6642709133333333,0.1766815197777777,-0.094263712,0.1474236344444444
370,1778291989890,-0.0555275393333333,0.6447950555555555,0.7276990333333333,-0.1451009106666666,-0.0597076413333333,0.19844055
371,1778291989900,-0.0430944888,0.64518982,0.792295392,-0.289730833,-0.0473464964,0.240538023
372,1778291989910,-0.0366945435555555,0.6660271888888888,0.8461616,-0.3657294411111111,-0.0743781204444444,0.29934014
373,1778291989920,-0.02548178,0.7014153111111111,0.8844114111111111,-0.3705902133333333,-0.1094156906666666,0.35165914
374,1778291989930,-0.00207944,0.7328848222222222,0.9030684844444444,-0.3057267999999999,-0.1113111715555555,0.3870459666666667
375,1778291989940,0.0236964886666666,0.7526807999999999,0.91304746,-0.2402699866666666,-0.0533091226666666,0.4001261333333333
376,1778291989950,0.040130146,0.7652912,0.9209387,-0.18629456,0.037246704,0.4026184
377,1778291989960,-0.0069462166666666,0.7845986088888889,0.9426870688888888,-0.1457570422222222,0.1507534395555555,0.3660413911111111
378,1778291989970,-0.06579167,0.80873287,0.96987253,-0.10160828,0.2694702,0.30993652
379,1778291989980,-0.1118917355555555,0.8120411322222222,1.0173540477777778,-0.0704752617777777,0.2968122666666667,0.2873874222222222
380,1778291989990,-0.154140205,0.81459067,1.0444306,0.0262298579999999,0.33631134,0.296348565
381,1778291990000,-0.16683097,0.8164214,1.0312514,0.09121704,0.347229,0.3131256
382,1778291990010,-0.1437276233333333,0.8324070833333334,0.9828878833333332,0.1668497733333333,0.2490488683333333,0.3601786266666666
383,1778291990020,-0.11301769,0.84241265,0.93399495,0.23503113,0.112335205,0.41752625
384,1778291990030,-0.0882045766666666,0.8104286655555555,0.9535061177777776,0.2195875388888889,0.0109625916666666,0.4899664944444444
385,1778291990040,-0.0700763616666666,0.8036760222222221,0.9809218244444444,0.20141941,-0.0220048691111111,0.5116272
386,1778291990050,-0.0291830149999999,0.8286238,1.0527289,0.19241333,-0.05278015,0.4803772
387,1778291990060,0.0140291324444444,0.8394447333333334,1.1292412444444446,0.3413747155555555,-0.0051388209999999,0.3512437577777778
388,1778291990070,0.019995078,0.8410719,1.1347328,0.42570496,0.035110474,0.30300903
389,1778291990080,0.0382017225,0.831259752,1.04679793,0.717965697,0.2258972159999999,0.1850296049999999
390,1778291990090,0.068766172,0.8016960933333334,0.8715163666666668,0.96721396,0.4397277799999999,0.07220459
391,1778291990100,0.1290478066666666,0.72839775,0.6158933777777778,1.0323164222222223,0.6221296444444444,-0.0592939611111111
392,1778291990110,0.15898538,0.69683355,0.49749872,1.0190582,0.69078064,-0.12416077
393,1778291990120,0.1588090966666666,0.6962233044444445,0.49395994,1.0149756288888887,0.6909569633333333,-0.1270616344444444
394,1778291990130,0.1356504388888889,0.6348017355555555,0.3901006366666666,0.2931993288888889,0.4059363477777778,-0.31810506
395,1778291990140,0.1366680333333333,0.5992379955555556,0.4233600944444444,-0.2522786422222222,0.0910305448888889,-0.4281175377777778
396,1778291990150,0.1195842055555555,0.5725269177777778,0.5245081333333333,-0.5952368866666666,-0.2001410606666666,-0.5106845433333334
397,1778291990160,0.099728392,0.5425397,0.601272504,-0.7186569300000001,-0.352275085,-0.565673835
398,1778291990170,0.0856189276666666,0.5043934244444445,0.6556482911111111,-0.7608812222222222,-0.4622548333333333,-0.6422424444444444
399,1778291990180,0.03862397,0.4243840833333333,0.6798093333333334,-0.7384541866666666,-0.4394734666666667,-0.7429148333333333
400,1778291990190,-0.0105131653333333,0.3313573266666667,0.6882709,-0.7304585733333333,-0.3281555233333333,-0.8128662166666667
401,1778291990200,-0.0341056128888888,0.2799157266666666,0.6796748777777778,-0.7779252777777779,-0.2266540548888888,-0.8271263999999999
402,1778291990210,-0.0987253455555555,0.2010580855555555,0.6564483333333333,-1.1530202333333337,0.1485646573333333,-0.8497924666666666
403,1778291990220,-0.11362742,0.18748556,0.66650885,-1.3426361,0.21247864,-0.8373718
404,1778291990230,-0.108502274,0.208181508,0.8076960400000001,-1.6764953299999998,0.216465758,-0.7656143240000001
405,1778291990240,-0.1011803366666666,0.2306835266666666,0.9264293166666666,-1.7149505333333337,0.1286671963333333,-0.7082824799999999
406,1778291990250,-0.0821843633333333,0.23609384,1.0172593,-1.5211876444444443,-0.0193973107777777,-0.6605834977777777
407,1778291990260,-0.0858455028888888,0.2226165466666666,1.0481460444444446,-0.9262932666666666,-0.2057054311111111,-0.6241895844444444
408,1778291990270,-0.121437244,0.20993978,1.0360111,-0.5783081,-0.27702332,-0.60406494
409,1778291990280,-0.1773749314,0.1034446309999999,0.89678887,-0.0519577039999999,-0.039572144,-0.4740005519999999
410,1778291990290,-0.1999964066666666,0.0644536473333333,0.7950050166666666,0.0846455886666666,0.20111084,-0.38782247
411,1778291990300,-0.2235886911111111,0.0676529968888888,0.6066337333333333,-0.1008894151111111,0.4877810966666667,-0.2905239555555555
412,1778291990310,-0.2337031466666667,0.0918959616666666,0.5407786333333333,-0.39579264,0.5677388466666666,-0.22536723
413,1778291990320,-0.23516732,0.115976125,0.5177551,-0.76260376,0.60076904,-0.15187073
414,1778291990330,-0.1929183333333333,0.1318809366666666,0.6133035666666666,-1.0029347711111112,0.5055999755555556,-0.0864715587777777
415,1778291990340,-0.1235253288888888,0.1519480833333333,0.76033444,-1.2691904444444444,0.3520202666666667,-0.0077006022222222
416,1778291990350,-0.0453593383333333,0.11401075,0.8489546522222222,-1.0606977333333334,0.1213904466666666,-0.0443386504444444
417,1778291990360,0.0012289638888888,0.0685624077777777,0.8337687944444444,-0.8625539,-0.025619508,-0.0973612473333333
418,1778291990370,0.018102895,0.0372074899999999,0.751318825,-0.73995972,-0.1183013899999999,-0.17689514
419,1778291990380,-0.002689688,0.0138385066222222,0.6947790222222223,-0.7970428466666666,-0.1610921166666666,-0.2294514933333333
420,1778291990390,-0.0370338,-0.0084926587333333,0.6782637666666667,-0.9713846733333332,-0.2310384099999999,-0.2795206666666667
421,1778291990400,-0.1215865628888888,-0.0128857172222222,0.8120067555555556,-1.209599811111111,-0.4253285688888889,-0.3032531699999999
422,1778291990410,-0.1730689488888889,0.0080486694666666,1.005585611111111,-1.3122219888888889,-0.5838758666666668,-0.2994639055555555
423,1778291990420,-0.1641466511111111,0.0221768317777777,1.119180877777778,-1.250315388888889,-0.6392686666666667,-0.2909427211111111
424,1778291990430,-0.13424934,0.032143004,1.232599,-1.032708088888889,-0.6831817622222223,-0.3062116844444444
425,1778291990440,-0.11387163,0.033119816,1.2559072,-0.7732544,-0.74946594,-0.3223114
426,1778291990450,-0.10625139,-0.0074769619333333,1.1172417555555556,-0.3189765155555555,-0.8187645666666667,-0.3501790311111111
427,1778291990460,-0.108583156,-0.0311910773333333,1.036946913333333,-0.1660003655555555,-0.8161621000000001,-0.3583458833333333
428,1778291990470,-0.0993900333333333,-0.0686935786666666,0.9187008933333334,-0.1447550466666666,-0.78231301,-0.3247935
429,1778291990480,-0.1134646166666666,-0.0703615223333333,0.8500389466666667,-0.2484402133333333,-0.8063439233333334,-0.2439490444444444
430,1778291990490,-0.11850837,-0.053522415,0.84662324,-0.35406494,-0.81710815,-0.17849731
431,1778291990500,-0.1069560011111111,-0.0523292283333333,0.9271074977777778,-0.5616861933333334,-0.75816175,-0.0572882766666666
432,1778291990510,-0.096054928,-0.057304917,0.999622672,-0.655278,-0.70504151,0.0281204215
433,1778291990520,-0.0562330166666666,-0.0735755633333333,1.056389866666667,-0.6419898111111111,-0.6040564555555555,0.1046362988888888
434,1778291990530,-0.0389995206666666,-0.080896981,1.0661521111111112,-0.6118672666666667,-0.54244995,0.1284840933333333
435,1778291990540,-0.0311350839999999,-0.084150426,1.0704235,-0.59375,-0.50445557,0.13310242
436,1778291990550,-0.0312709247777777,-0.1077570491111111,1.0309403777777777,-0.49124824,-0.3005133755555556,0.1313222244444444
437,1778291990560,-0.0434603266666666,-0.108800918,1.0208393666666666,-0.4375712111111111,-0.1797807522222222,0.1284806988888888
438,1778291990570,-0.049500847,-0.095377537,1.03479155,-0.44674683,-0.1108398449999999,0.131507875
439,1778291990580,-0.0291564008888888,-0.0950522777777777,1.070192866666667,-0.4997745,-0.1957092311111111,0.1312086322222222
440,1778291990590,-0.019055597,-0.0940352,1.1158172,-0.544754,-0.30046082,0.12084961
441,1778291990600,-0.0504703122222222,-0.1159460555555555,1.2255219333333334,-0.6243523555555556,-0.5165303688888889,0.1342824291111111
442,1778291990610,-0.0477719833333333,-0.13434526,1.2757166,-0.6454196733333333,-0.5947096300000001,0.1510297977777778
443,1778291990620,-0.0153661135555555,-0.1400135977777777,1.326100511111111,-0.6137017177777778,-0.569847958888889,0.1983727355555555
444,1778291990630,0.0314254313333333,-0.1250308133333333,1.3359165000000002,-0.5591379799999999,-0.4131978366666666,0.2403310133333333
445,1778291990640,0.0785830213333333,-0.1025499835555555,1.338004588888889,-0.4993099599999999,-0.2141113255555555,0.2528194888888889
446,1778291990650,0.1138352276,-0.0933517456,1.3452807999999998,-0.369198608,0.0160339339999999,0.205862424
447,1778291990660,0.11859392,-0.08866585,1.3358362,-0.27844238,0.16239929,0.16879272
448,1778291990670,0.0834634477777777,-0.0989982373333333,1.274251277777778,-0.1068149166666666,0.4593234555555556,0.1376580088888889
449,1778291990680,0.0471942284444444,-0.1038121288888888,1.1686289888888888,-0.011884902,0.6600613044444444,0.1274787022222222
450,1778291990690,-0.0239218548888888,-0.1081500544444444,1.0710739888888887,0.0011359318888888,0.8026886044444445,0.1461198577777777
451,1778291990700,-0.0429589611111111,-0.1145494455555555,1.0342489666666663,-0.0488179538888888,0.9328901777777776,0.18044196
452,1778291990710,-0.013685729,-0.10542459,1.0072942,-0.1191864033333333,1.0542144999999998,0.2193857799999999
453,1778291990720,0.0129175518,-0.0690434519999999,0.98588166,-0.203976442,1.033474716,0.24474182
454,1778291990730,0.0038462377777777,-0.0358820894444444,1.0084597333333334,-0.2546505433333333,0.9591047555555556,0.2092098655555555
455,1778291990740,-0.0469721448888888,-0.0108790376666666,1.0136120222222222,-0.2594401,0.9262627555555556,0.1999172611111111
456,1778291990750,-0.084095987,0.005846480125,1.016577525,-0.25526427125,0.89903831625,0.21399116
457,1778291990760,-0.07933637,0.000903706,1.0435767,-0.23849487,0.84310913,0.23590088
458,1778291990770,-0.098910544,-0.0553273436,1.04098966,-0.14155884,0.7274292,0.246548464
459,1778291990780,-0.1176273022222222,-0.0819671233333333,1.022940588888889,-0.1071166995555555,0.6562160888888889,0.2719946977777778
460,1778291990790,-0.0851946433333333,-0.07764198,0.9802032,-0.065032958,0.4209137,0.31277466
461,1778291990800,-0.07156802,-0.068978225,0.9494922333333334,-0.039464314,0.2383982399999999,0.31241862
462,1778291990810,-0.07579776,-0.064992175,0.9211813,-0.020645142,0.07078552,0.2854309
463,1778291990820,-0.122657483,-0.0678603925,0.912212675,-0.0267715455,-0.142265318,0.22631073
464,1778291990830,-0.14922912125,-0.073839666875,0.9105046175,-0.035560608,-0.21018219,0.203140255
465,1778291990840,-0.146086955,-0.08860519,0.891285115,-0.070648194375,-0.178625109,0.19528197875
466,1778291990850,-0.139390625,-0.100182269375,0.877251625,-0.1394157425,-0.112041473,0.1840972874999999
467,1778291990860,-0.13693401,-0.118441485,0.8815225,-0.19694519,-0.07408142,0.17251587
468,1778291990870,-0.1400797866666666,-0.1269562649999999,0.8934815155555555,-0.2126871744444444,-0.0783437088888888,0.1742316355555555
469,1778291990880,-0.15218814,-0.1712795,0.9613301,-0.28642273,-0.05545044,0.16877747
470,1778291990890,-0.1086106333333333,-0.1609474611111111,1.1121572888888889,-0.2297939755555555,-0.3481631822222222,0.1716902022222222
471,1778291990900,-0.0741173697777777,-0.1315518744444444,1.1683443111111111,-0.0993042016666666,-0.5222117133333333,0.140207928
472,1778291990910,-0.0416793562,-0.107384546,1.15720972,0.0787414569999999,-0.662753304,0.0666259764
473,1778291990920,-0.026193671125,-0.09345541625,1.112035,0.176700595,-0.7332191625,-0.017107010625
474,1778291990930,-0.031990573,-0.08964266,1.0784775,0.19934082,-0.7531891,-0.06504822
475,1778291990940,-0.0410318308,-0.089813445,1.0440648,0.117906192,-0.6636062620000001,-0.150749207
476,1778291990950,-0.0374535934444444,-0.0923679479999999,1.0306145666666666,0.0482567687111111,-0.585120308888889,-0.1910417355555555
477,1778291990960,-0.0217943683333333,-0.0943200155555555,1.053718611111111,-0.1332041471999999,-0.4659220466666666,-0.25235494
478,1778291990970,-0.0174011367777777,-0.0990927755555555,1.0878323444444444,-0.2395528177777778,-0.4150848444444444,-0.2875078
479,1778291990980,-0.015638314,-0.10343157,1.1071534,-0.28749084,-0.400589,-0.30259705
480,1778291990990,-0.0033673373555555,-0.1132615499999999,1.1189363666666663,-0.3945482022222222,-0.3480987533333333,-0.3299984466666666
481,1778291991000,0.0058665713222222,-0.1106992377777777,1.1268008333333333,-0.47669474,-0.2774963388888889,-0.3453233488888889
482,1778291991010,0.0055414861222222,-0.11423767,1.1363597444444444,-0.5641648944444444,-0.0080379911111111,-0.3659803622222222
483,1778291991020,-0.001872584626,-0.130192462,1.15157311,-0.582783509,0.1710372859999999,-0.367845152
484,1778291991030,-0.0122369726,-0.15430197875,1.1796091375,-0.57951545,0.35142134375,-0.3613262075
485,1778291991040,-0.0811401494444444,-0.1889191488888889,1.2143765666666666,-0.5217929444444445,0.4536404055555556,-0.3479342977777777
486,1778291991050,-0.131564665,-0.239432325,1.26817095,-0.401474,0.4441680899999999,-0.330833435
487,1778291991060,-0.1640109777777777,-0.2716683,1.3206902444444446,-0.2244042288888889,0.3528493222222222,-0.3144989022222222
488,1778291991070,-0.1844986122222222,-0.26819726,1.3416923777777778,0.0058085133333333,0.2653808566666666,-0.3015340199999999
489,1778291991080,-0.19392194,-0.24962196,1.3349806,0.19934082,0.21887207,-0.2951355
490,1778291991090,-0.1890406422222222,-0.2175689955555555,1.2275964222222224,0.4931708533333334,0.1632368266666666,-0.2734781888888889
491,1778291991100,-0.1761737611111111,-0.2161184733333333,1.1400344777777778,0.6515401333333334,0.1148257762222222,-0.2547743022222222
492,1778291991110,-0.1508048366666666,-0.24120189,1.038127,0.7032114666666667,-0.010701498,-0.2029927533333333
493,1778291991120,-0.1081849625,-0.273465955,0.95175037,0.66480867,-0.224185181,-0.1169784519999999
494,1778291991130,-0.058470245,-0.29635802,0.9077595000000002,0.5950928,-0.40911865,-0.0554657
495,1778291991140,-0.0417389814444444,-0.3108394466666667,0.9076239933333334,0.4660135999999999,-0.6788075833333332,0.0185801173333333
496,1778291991150,-0.0298613578888888,-0.3114090866666667,0.9290741111111112,0.3427361366666666,-0.9418097666666666,0.0922071644444444
497,1778291991160,-0.0074069669999999,-0.2799935044444444,0.975485261111111,0.3149261466666667,-0.9461873666666668,0.1366475399999999
498,1778291991170,-0.0005457837777777,-0.2466932511111111,1.0002439555555556,0.3273501911111111,-0.8066406444444444,0.1467047799999999
499,1778291991180,0.0245500752222222,-0.2231552322222222,1.00035155,0.3020765522222222,-0.5948282855555556,0.1165228928888889
500,1778291991190,0.0453646421,-0.219834487,1.02580941,0.245788574,-0.419027705,0.0593765255999999
501,1778291991200,0.04647631,-0.2508414,1.076037,0.20626831,-0.42723083,0.011642456
502,1778291991210,0.0391540266666666,-0.2491612022222222,1.2005193555555556,0.2965698266666667,-0.4639773855555555,-0.051727295
503,1778291991220,0.036143748,-0.2411889233333333,1.2661841,0.5689849833333334,-0.4124942333333333,-0.0875956216666666
504,1778291991230,0.0306658617777777,-0.2436838344444444,1.2238804555555556,0.9357960833333334,-0.2392120333333333,-0.0801391583333333
505,1778291991240,0.0105178321666666,-0.25104621,1.1213493333333333,1.1085459333333334,-0.0934448216666666,-0.0584767643333333
506,1778291991250,-0.0152712315,-0.25682205,1.0262492,1.2491608,0.072387695,-0.024032593
507,1778291991260,-0.0271488558888888,-0.2649166955555555,0.946930617777778,1.278511911111111,0.1443549238888889,-0.0008324516666666
508,1778291991270,-0.0384572778999999,-0.268610054,0.862230576,1.24809264,0.26264648,0.069079591
509,1778291991280,-0.0360713321111111,-0.2556148666666666,0.7457731666666666,0.9772237022222224,0.1669006327111111,0.1657189277777777
510,1778291991290,-0.0126271697777777,-0.2128907777777778,0.7706533444444444,0.6849229611111112,-0.0923105863333333,0.22164239
511,1778291991300,-0.003067312,-0.17872225,0.80793965,0.585495,-0.20031738,0.2364349399999999
512,1778291991310,0.0167952101111111,-0.0886795,0.9217113722222222,0.4845394611111111,-0.2532874244444444,0.3064439566666667
513,1778291991320,0.0355333276666666,-0.053359096,0.9761767133333332,0.5002797466666666,-0.1880696633333333,0.3353220666666667
514,1778291991330,0.0703523635555555,-0.0418203844444444,0.9610859011111113,0.6311899844444445,0.1094394277777777,0.3205261277777778
515,1778291991340,0.0861761193333333,-0.0409125313333333,0.90426131,0.6980641666666667,0.29574585,0.2882741266666666
516,1778291991350,0.08528123,-0.045712594,0.84235203,0.6888275,0.32699585,0.25880432
517,1778291991360,0.0815390333333333,-0.048003918,0.8357894855555555,0.6625501733333334,0.2919582788888888,0.2522939033333333
518,1778291991370,0.078690864,-0.068897866,0.76754814,0.55140686,0.13949585,0.22790527
519,1778291991380,0.0195063277777777,-0.0054965527777777,0.7997502622222222,0.2153778077777778,-0.49249946,0.1748182511111111
520,1778291991390,0.0375263535555555,0.08622918,0.8517751455555556,0.1221059155555555,-0.8240356444444443,0.1094241666666666
521,1778291991400,0.07185785,0.1230549,0.87200475,0.15193176,-0.87091064,0.07557678
522,1778291991410,0.1207233022222222,0.1237057611111111,0.8679644233333333,0.2462107366666666,-0.7745005266666667,-0.0261637393333333
523,1778291991420,0.15532544,0.11500087,0.85955817,0.3420868,-0.6519928,-0.14068604
524,1778291991430,0.111541276,0.1270324424,0.86443943,0.340591428,-0.4957244799999999,-0.207900998
525,1778291991440,0.11341519,0.1276242288888888,0.8496329611111111,0.2655690466666667,-0.4582926466666666,-0.2086842833333333
526,1778291991450,0.1147706666666666,0.12830085,0.8518297466666667,0.1505177793333333,-0.6503906266666666,-0.2282104499999999
527,1778291991460,0.0950426,0.1664555966666666,0.8735099266666667,0.0123816593333333,-1.0014546666666666,-0.27780151
528,1778291991470,0.1040724,0.20322809,0.8853053,-0.036087036,-1.1936798,-0.31219482
529,1778291991480,0.1179022666666666,0.1993229166666666,0.8865667466666667,-0.0354359948888888,-1.2352837333333335,-0.3447435166666666
530,1778291991490,0.16691652,0.20871876,0.9036096,-0.03236389,-1.1590576,-0.40060425
531,1778291991500,0.15427553,0.226876254,0.926819434,-0.09212494,-0.4556625399999999,-0.2846023589999999
532,1778291991510,0.1711880888888889,0.2302224388888889,0.9706436977777776,-0.1398383288888889,0.3065151777777777,-0.1665479872222222
533,1778291991520,0.18143804,0.23141563,0.9939102,-0.1538086,0.6348572,-0.1241760249999999
534,1778291991530,0.1357729733333333,0.2697870944444445,1.0377063666666666,-0.0661553288888888,0.9882236222222224,-0.090789795
535,1778291991540,0.09841841,0.3040226733333333,1.0499633333333334,0.1274312388888888,1.0550961222222222,-0.0907287611111111
536,1778291991550,0.0838294937777777,0.3135681933333333,1.028919711111111,0.3263465133333333,0.9274495555555556,-0.11268616
537,1778291991560,0.0572134579999999,0.3241327499999999,0.977400199,0.55652466,0.70377809,-0.1484619159999999
538,1778291991570,0.047817092,0.3306242,0.96791893,0.59402466,0.66415405,-0.1539917
539,1778291991580,-0.0073803522222222,0.4532229977777777,0.7612701277777778,0.8203871,0.7559950111111111,-0.1521572522222222
540,1778291991590,-0.0326267422222222,0.4562192755555556,0.6790632955555556,0.7673034666666667,0.9565633,-0.1385447166666666
541,1778291991600,-0.0695203805555555,0.4459285422222222,0.6187947777777778,0.5533074222222223,1.192223422222222,-0.1031612833333333
542,1778291991610,-0.1124478866666666,0.4426884033333333,0.5680313333333333,0.24337259,1.3915456333333334,-0.0559946693333333
543,1778291991620,-0.12522006,0.45668107,0.5702276,0.06617737,1.3901215,-0.036819458
544,1778291991630,-0.12522006,0.45668107,0.5702276,0.06617737,1.3901215,-0.036819458
545,1778291991640,-0.08848853,0.46119493,0.63111967,-0.183944702,1.17238462,-0.030422974
546,1778291991650,-0.0188371477777777,0.49594673,0.9331271633333332,-0.4260355522222221,0.0262841055555555,-0.0322587764444444
547,1778291991660,0.0478043,0.5310372722222222,1.0463835222222222,-0.3985748255555555,-0.3506435833333333,-0.0082346598888888
548,1778291991670,0.0500816250222222,0.538386,1.0672773777777778,-0.2746480288888889,-0.4250318733333333,-0.0100148521111111
549,1778291991680,-0.0227564889999999,0.5350228166666667,1.0647556444444444,0.1926523855555555,-0.5063544444444444,0.0282236734444444
550,1778291991690,-0.0471626002222222,0.5120810622222222,1.021395211111111,0.3817342133333333,-0.4364573255555555,0.0753343368888889
551,1778291991700,-0.032301658,0.4606667866666667,0.9448693,0.5610588911111112,-0.2729407411111111,0.0740390355555555
552,1778291991710,-0.0127766646666666,0.4429588666666667,0.8822949555555556,0.6218973888888889,-0.2452375633333333,0.0153232151111111
553,1778291991720,-0.009047948,0.4508233,0.8629739,0.6098853444444444,-0.3140055355555555,-0.0617370613333333
554,1778291991730,0.0339873997777777,0.4869029233333333,0.8465011977777778,0.5612369266666666,-0.4168633344444444,-0.1523454477777777
555,1778291991740,0.0617531422999999,0.5122405999999999,0.83693384,0.495915228,-0.479310611,-0.2388946569999999
556,1778291991750,0.0635995443333333,0.5549133666666667,0.8191257666666667,0.2815450066666666,-0.4835052466666666,-0.4082387333333333
557,1778291991760,0.0438718264444444,0.5609607044444445,0.8033435,0.1554938422222222,-0.3468610944444444,-0.4415537533333333
558,1778291991770,0.005880571,0.5566631866666667,0.77161616,0.0057627366666666,-0.0465087888888888,-0.4229125977777778
559,1778291991780,-0.0373720205555555,0.5598359444444445,0.7590876666666666,-0.1260986333333333,0.2181599933333333,-0.35959371
560,1778291991790,-0.0749741595,0.5678491800000001,0.7558486,-0.2911510475,0.51668167,-0.25326538
561,1778291991800,-0.097833122,0.6012149085714286,0.7724464428571428,-0.5244380314285715,0.7838374457142857,-0.1141292041428571
562,1778291991810,-0.1008144405714285,0.6203033857142858,0.7864108999999999,-0.6970868771428572,0.9283381914285714,-0.0212990895
563,1778291991820,-0.072747558,0.65650275,0.832650785,-0.83983612,0.91954805,0.03855133075
564,1778291991830,-0.02973208325,0.690426325,0.8669107275000001,-0.9331779475,0.867076875,0.06239318875
565,1778291991840,0.012917863,0.7184323,0.8915301000000001,-0.96713257,0.7839813,0.042022705
566,1778291991850,0.0306383822222222,0.7051713555555555,0.9081122,-0.9486660411111112,0.5063120511111111,-0.0460442438888888
567,1778291991860,0.0029240388888888,0.6911513933333333,0.9344159244444444,-0.9296620666666668,0.2746175166666667,-0.0797780366666666
568,1778291991870,-0.1245826738888888,0.7502545166666666,1.0717106,-0.8748660666666667,0.14915297,0.0231984433333333
569,1778291991880,-0.197240916,0.8926154759999999,1.23484406,-0.7604736400000001,0.2576416019999999,0.229721068
570,1778291991890,-0.1778681533333333,0.9783802444444444,1.3234560777777775,-0.6587982266666667,0.4345804888888889,0.3895992711111111
571,1778291991900,-0.1306834255555555,0.8694090977777778,1.2742113333333334,-0.5205468088888888,0.4686720222222222,0.6445431288888889
572,1778291991910,-0.0876346,0.7060261566666666,1.2065667666666666,-0.46095276,0.3374684666666667,0.7795359266666666
573,1778291991920,-0.0430534951111111,0.5344813611111111,1.1553418777777775,-0.4273986833333333,0.1648915663333333,0.8320922666666666
574,1778291991930,0.0047824353333333,0.3957888488888889,1.123790988888889,-0.3875054277777778,-0.0581037741111111,0.8291320666666666
575,1778291991940,0.041228283,0.31207567,1.1260691,-0.36099243,-0.19978333,0.7541504
576,1778291991950,0.0312759358888888,0.2084337677777777,1.2794993222222224,-0.2165357799999999,-0.4349178755555555,0.5376637833333333
577,1778291991960,0.0243473502666666,0.1858181288888888,1.3344664111111113,-0.1013726133333333,-0.5211452877777778,0.4013112388888888
578,1778291991970,0.0005381794,0.2317818444444444,1.4016093555555555,0.2271542022222222,-0.6119893266666667,0.1549987797777777
579,1778291991980,0.0138688533999999,0.312417856,1.39448248,0.569255066,-0.636230473,-0.0481582631
580,1778291991990,0.0435735275555555,0.3956253444444444,1.3208258777777775,1.015045172222222,-0.5262383388888888,-0.29141235
581,1778291992000,0.0647790813333333,0.4339831733333333,1.2116105333333334,1.3131408666666666,-0.3806491444444444,-0.4360588944444444
582,1778291992010,0.0769118957142857,0.44812085,1.108932157142857,1.4057617,-0.31111145,-0.4703827
583,1778291992020,0.050135461,0.44295205,0.951506,1.3277873875,-0.04066085875,-0.4675788875
584,1778291992030,0.0230722426666666,0.4339017722222222,0.8567643155555555,1.190209277777778,0.1213361955555555,-0.4454040577777777
585,1778291992040,0.0143001239999999,0.4356101433333333,0.79764888,0.8198547500000001,0.23723602,-0.36917877
586,1778291992050,0.0002718125,0.44702573,0.7680215737499999,0.3781051525,0.3508224475,-0.26311683625
587,1778291992060,-0.0213462295555555,0.4511084855555556,0.7926730677777777,0.0446963822222222,0.4333445244444445,-0.1553005644444444
588,1778291992070,-0.043445161875,0.4741917324999999,0.8508780875,-0.2203102125,0.51514435625,-0.013845444375
589,1778291992080,-0.0670729525,0.50437878125,0.904997975,-0.397146225,0.5498256699999999,0.12391281125
590,1778291992090,-0.0597204235,0.52385705,0.968102475,-0.44641875,0.5224628437500001,0.21905518125
591,1778291992100,-0.0261736006666666,0.5346436333333334,1.0616638222222223,-0.4070994022222222,0.5025804333333334,0.2765519933333333
592,1778291992110,-0.014784382,0.5355119,1.0950724,-0.36419678,0.4910431,0.30140686
593,1778291992120,-0.014784382,0.5355119,1.0950724,-0.36419678,0.4910431,0.30140686
594,1778291992130,-0.000110046875,0.5360295275,1.198553275,-0.0463409434999999,0.350032805,0.2496070925
595,1778291992140,-0.0277060488444444,0.5394703666666667,1.221087466666667,0.162287396,0.2776896166666666,0.16712952
596,1778291992150,-0.0555282344444444,0.5422362511111111,1.208234088888889,0.3493058955555555,0.2317640522222222,0.1141035306666666
597,1778291992160,-0.06847634,0.54637194,1.1864727,0.44755554,0.21194458,0.096343994
598,1778291992170,-0.0423379277,0.571277978,1.1232986500000002,0.6844085740000001,0.1001480119999999,0.0545898449
599,1778291992180,-0.01828203,0.5901801666666667,1.0805929,0.8081342888888889,0.0345781115555555,0.0245022243333333
600,1778291992190,0.004035655,0.6033997888888889,1.02117765,0.9453803333333334,-0.0126020644444444,-0.0208960641111111
601,1778291992200,0.0129306525555555,0.6080094066666667,0.9614642455555557,1.0634460666666667,-0.0446217856666666,-0.061314902
602,1778291992210,0.0127949845,0.60787374,0.92899114,1.1149292,-0.055984497,-0.079422
603,1778291992220,-0.0252510557777777,0.6234939,0.8674755133333334,1.1025645111111109,-0.0729064935555555,-0.0895436622222222
604,1778291992230,-0.0716762091111111,0.6391951022222222,0.7995734644444444,1.0747528444444443,-0.0994754355555555,-0.0969424777777777
605,1778291992240,-0.1067258,0.640564048888889,0.7524839711111111,0.927746222222222,-0.1984337688888889,-0.0905541311111111
606,1778291992250,-0.11216283,0.6278383160000001,0.730499936,0.7659545999999999,-0.2691436779999999,-0.09253235
607,1778291992260,-0.10923333,0.61312175,0.7269125,0.66752625,-0.2908783,-0.098602295
608,1778291992270,-0.0803126597777777,0.5861260222222222,0.7330545488888889,0.4639977377777777,-0.1390686051111111,-0.1123911533333333
609,1778291992280,-0.0462668448888888,0.5707090888888888,0.726559768888889,0.3053334566666666,0.0274759939999999,-0.13144938
610,1778291992290,-0.0175222878888888,0.568675288888889,0.7008792166666666,0.0901472313333333,0.2004021611111111,-0.1765475766666666
611,1778291992300,-0.027759624,0.5825056777777777,0.7039987222222223,-0.142439102,0.2613525444444444,-0.2161949988888888
612,1778291992310,-0.0633102306666666,0.5922136333333333,0.73651212,-0.2289581311111111,0.1932389988888888,-0.2130550822222222
613,1778291992320,-0.085999526,0.58329728,0.80591323,-0.189376832,0.0691925032,-0.161874392
614,1778291992330,-0.098007776,0.5674823,0.8923824999999999,-0.10372925,-0.049057007,-0.09539795
615,1778291992340,-0.0767071717777777,0.5436598233333334,0.9336420277777778,0.19111294,0.1123911557777777,0.0172153033333333
616,1778291992350,-0.0648160666666666,0.5131121711111111,0.8969253722222221,0.3839246955555555,0.3580542666666667,0.1115536166666666
617,1778291992360,-0.0446135944444444,0.4611823155555556,0.7432374555555555,0.3540429011111111,0.8205651111111112,0.2168986
618,1778291992370,-0.0410203733333333,0.43349527,0.6268085333333333,0.1682688366666666,1.1323344000000002,0.26838684
619,1778291992380,-0.0563953,0.42519757,0.5671774,-0.06645203,1.2686768,0.27903748
620,1778291992390,-0.071734816,0.447491725,0.6130480300000001,-0.610696409,1.1264633,0.221199037
621,1778291992400,-0.0596902256666666,0.46233454,0.6746847333333333,-0.8394826333333333,0.9736022666666666,0.1735788999999999
622,1778291992410,0.015642463,0.5027664399999999,0.8944174933333334,-0.8398386666666666,0.4715067599999999,-0.0348663333333333
623,1778291992420,0.0405366353333333,0.5161488666666667,0.9829697933333332,-0.6408047111111111,0.1265970866666667,-0.1786736366666667
624,1778291992430,0.03793388,0.51086146,1.0030639,-0.4446106000000001,-0.07461548,-0.25411987
625,1778291992440,-0.0047231561666666,0.4287762622222222,0.9589570288888888,-0.0582784044444444,-0.3073154044444444,-0.2936638655555555
626,1778291992450,-0.0140517735666666,0.3789882766666667,0.94367647,0.1357794866666666,-0.3041839611111111,-0.2862141822222222
627,1778291992460,0.0095278856888888,0.33663145,0.8474225355555556,0.0713263627777777,0.1589677577777777,-0.2320522755555555
628,1778291992470,0.003642822,0.3185447,0.73362419,-0.2166519144999999,0.51447296,-0.22909546
629,1778291992480,-0.0283427368888888,0.3147757111111111,0.6896127288888889,-0.40733337,0.62472534,-0.24295044
630,1778291992490,-0.1364193366666666,0.342326411111111,0.8441549344444444,-0.8658718444444444,0.3314259722222222,-0.3260396311111111
631,1778291992500,-0.13852159,0.3606030833333333,0.9631603533333334,-0.9570108866666666,0.04361979,-0.3690032966666667
632,1778291992510,-0.1384400211111111,0.3609286855555556,1.1015405777777778,-0.7546115444444444,-0.4301859522222222,-0.4082997611111111
633,1778291992520,-0.1264400366666666,0.3326182633333333,1.1888722,-0.37182617,-0.89753722,-0.4165852833333333
634,1778291992530,-0.08126199,0.2684044944444445,1.1702699555555556,0.1656663677777777,-1.1218312222222222,-0.3821377255555556
635,1778291992540,-0.0810862277777777,0.2348598777777777,1.036878988888889,0.538933648888889,-0.9183061111111112,-0.3306460944444444
636,1778291992550,-0.094139257,0.21388,0.876495587,0.678985602,-0.5733764640000001,-0.282675171
637,1778291992560,-0.1150233377777777,0.1991874122222222,0.6637152777777778,0.4473164977777778,-0.0437282988888888,-0.2261420344444444
638,1778291992570,-0.1342503788888888,0.1859133555555555,0.4454878266666666,-0.0817735466666666,0.4181891511111111,-0.1793908011111111
639,1778291992580,-0.1358092622222222,0.1553378888888889,0.3797950488888889,-0.7108222355555556,0.2411770277777777,-0.1510959166666666
640,1778291992590,-0.1533268844444444,0.1328843644444444,0.4620691111111111,-1.2032131777777777,-0.1489461277777778,-0.1335720455555555
641,1778291992600,-0.1757804133333333,0.1277726928888888,0.5774809555555556,-1.4017639,-0.39898682,-0.13002014
642,1778291992610,-0.14418786,0.1182677915555555,0.8238705111111112,-1.582683988888889,-0.8747439888888889,-0.0797763396666666
643,1778291992620,-0.06847634,0.091692716,1.0967818,-1.3809967,-1.0844879,-0.040008545
644,1778291992630,-0.01795606294,0.0666771716,1.15559947,-0.98007204,-0.756118764,-0.0595046995
645,1778291992640,-0.0218742128333333,0.040874506,1.0993712111111111,-0.4930301255555556,-0.1714375844444444,-0.0880059138888888
646,1778291992650,-0.05285669,0.032264326,1.0484576,-0.38710022,0.07771301,-0.09539795
647,1778291992660,-0.1716720011111111,-0.0086020576666666,0.8739709933333333,-0.3778652666666666,0.6407759111111111,-0.0231441922222222
648,1778291992670,-0.2172561855555555,-0.0092795346244444,0.8425958466666666,-0.4346788222222222,0.7351125244444444,0.0065663653333333
649,1778291992680,-0.2653079633333333,0.0040353091266666,0.8894142066666666,-0.4501241066666666,0.5890502933333334,0.0272827146666666
650,1778291992690,-0.25261719,0.0053372056666666,0.9821558,-0.3400421166666666,0.1499786333333333,0.0493011473333333
651,1778291992700,-0.16524443,-0.008492659,1.024784,-0.18736267,-0.11244202,0.028701782
652,1778291992710,-0.1136949966666666,-0.0339156782222222,1.005178111111111,0.1176673017777777,-0.4826727966666667,-0.0387081574444444
653,1778291992720,-0.09780453,-0.050755306,0.96372912,0.2419484466666666,-0.6379648866666667,-0.0496012373333333
654,1778291992730,-0.0634329372222222,-0.0949024422222222,0.8151129044444444,0.1070183699999999,-0.653891671111111,0.0071021195555555
655,1778291992740,-0.058226389,-0.1217218911111111,0.7178697111111112,-0.0905914293333333,-0.6296285066666667,0.0537465433333333
656,1778291992750,-0.07360149,-0.12978992,0.66699725,-0.23582458,-0.62323,0.08357239
657,1778291992760,-0.0565855815555555,-0.1587102377777777,0.6921755533333334,-0.5963609355555556,-0.6205664844444444,0.1362372511111111
658,1778291992770,-0.029550098,-0.19727078,0.7479015,-1.1088104,-0.59606934,0.1831665
659,1778291992780,-0.0196656384,-0.208668676,0.965576152,-1.3230316400000002,-0.4410736079999999,0.06321716232
660,1778291992790,-0.0333500185714285,-0.2220605928571428,1.1357778285714286,-1.3329685857142857,-0.2564043371428571,-0.0575147369142857
661,1778291992800,-0.0454131725,-0.22423964,1.22875475,-1.16766355,-0.1033859269999999,-0.14201355
662,1778291992810,-0.026789012625,-0.20495908625,1.227047075,-1.012668585,-0.006576538,-0.1947441074999999
663,1778291992820,-0.010391842,-0.19092618,1.2066077,-0.89842224,0.05215454,-0.22750854
664,1778291992830,-0.0001937375555555,-0.1588331155555555,1.1422712666666668,-0.6740095222222222,0.2215372744444444,-0.2686954
665,1778291992840,-0.0211112117142857,-0.1408774785714285,1.120002,-0.5500858628571429,0.3371189657142857,-0.2689753814285714
666,1778291992850,-0.06034091,-0.1092888066666666,1.0785184333333333,-0.4055633533333333,0.5505167533333333,-0.22324117
667,1778291992860,-0.1085292322222222,-0.0477859844444444,1.0066837755555555,-0.2107323511111111,0.8232286111111111,-0.1402672677777777
668,1778291992870,-0.1180199599999999,-0.027650915,0.98451537,-0.120773315,0.9262085,-0.10180664
669,1778291992880,-0.1808241555555555,-0.0212515221111111,0.941235667777778,-0.0306989885555555,0.96614755,-0.0306023488888888
670,1778291992890,-0.213812327,-0.01212957,0.907637706,0.0168075557,0.8898208610000001,0.0434021
671,1778291992900,-0.1749397899999999,-0.0003299245555555,0.8765602777777778,-0.044079251,0.5973358133333333,0.1209682872222222
672,1778291992910,-0.11801945,0.0135545529333333,0.8523580900000001,-0.1468760173333333,0.26431783,0.1883188866666666
673,1778291992920,-0.0936135033333333,0.0047812253222222,0.837593251111111,-0.2218017577777777,0.0825754766666666,0.21205309
674,1778291992930,-0.0916080366666666,-0.0140927329444444,0.8320614288888889,-0.3872680688888889,-0.2301483188888889,0.2698126944444444
675,1778291992940,-0.0790665877777777,-0.0235573646666666,0.8312747422222223,-0.4982350733333334,-0.38277859,0.3152618488888888
676,1778291992950,-0.0400171194444444,-0.0806121688888888,0.9115683833333332,-0.7089267388888889,-0.5880771166666666,0.3787672255555556
677,1778291992960,-0.0162895216666666,-0.1322708253333333,1.0474004566666666,-0.7855021166666667,-0.63744099,0.3953348766666666
678,1778291992970,-0.0140118506666666,-0.1514700433333333,1.1165907333333331,-0.7615356466666667,-0.6166687,0.3877004
679,1778291992980,-0.0226073408888888,-0.1794826911111111,1.187936833333333,-0.5848219122222222,-0.5587243111111111,0.35284085
680,1778291992990,-0.0288982,-0.1933668155555555,1.1839238111111112,-0.4089321611111111,-0.5293731688888889,0.32395765
681,1778291993000,-0.0323555783333333,-0.2066545266666666,1.1349087,-0.2677883611111111,-0.5107320244444444,0.2970343666666666
682,1778291993010,-0.0201529545,-0.23503978,1.0976964,-0.22518158,-0.5047226,0.28463745
683,1778291993020,-0.006486152,-0.2547471,1.0810393,-0.21665955,-0.5039215,0.28170776
684,1778291993030,0.0424207805555555,-0.2758989044444444,1.1297027333333334,-0.2320370133333333,-0.5142788322222223,0.2440643333333333
685,1778291993040,0.0624473133333333,-0.2761427622222222,1.152006766666667,-0.2252315944444444,-0.5072343577777778,0.2237023266666667
686,1778291993050,0.0650498938888888,-0.2701088888888889,1.1444941888888889,-0.1965891533333333,-0.4059193933333333,0.1771291066666666
687,1778291993060,0.0505152481111111,-0.2759116888888889,1.1258373,-0.1858181422222222,-0.3316446966666666,0.1543426511111111
688,1778291993070,0.0269236658888888,-0.2801148111111111,1.0985169666666663,-0.1727973088888889,-0.2502729633333333,0.1410251177777778
689,1778291993080,0.0119275723333333,-0.2748270333333333,1.0811618111111112,-0.1637980155555555,-0.1965416788888888,0.1268242706666666
690,1778291993090,-0.012465232,-0.2618243,1.0640773,-0.15965271,-0.16517639,0.114990234
691,1778291993100,-0.0399765037777777,-0.2422597488888889,1.047996877777778,-0.1639251722222222,-0.1405453144444444,0.1159396704444444
692,1778291993110,-0.031460686,-0.2332702133333333,1.0687560333333337,-0.2191382499999999,-0.1256323917777778,0.1151699505555555
693,1778291993120,-0.0121391096666666,-0.2311138666666666,1.1086995333333334,-0.2437625477777777,-0.1256323917777778,0.0981275772222222
694,1778291993130,0.0201578803333333,-0.2200495733333333,1.1667036666666668,-0.2528737433333333,-0.053670248,0.06741333
695,1778291993140,0.0307199556666666,-0.2145042866666666,1.173605311111111,-0.257665,0.02693685,0.0446828206666666
696,1778291993150,0.0647668111111111,-0.1733264555555555,1.2043290333333332,-0.2634599455555556,0.2312995111111111,-0.0262841118888888
697,1778291993160,0.0381101598888888,-0.1378029822222222,1.2258465333333333,-0.2452341744444444,0.37842136,-0.0834503191111111
698,1778291993170,-0.0026207303333333,-0.1117705822222222,1.230022711111111,-0.2059410944444444,0.4446987555555555,-0.1085425488888889
699,1778291993180,-0.0426877958888888,-0.1021433183333333,1.226836711111111,-0.1618516666666666,0.4370100222222222,-0.1168331544444444
700,1778291993190,-0.0730160242,-0.106530605,1.22813312,-0.132287596,0.37269592,-0.104782102
701,1778291993200,-0.1082570333333333,-0.123851275,1.2187697333333334,-0.0595296233333333,0.18033854,-0.038416544
702,1778291993210,-0.0976821733333333,-0.1398774066666666,1.2055905,-0.0053812666666666,0.02444458,0.0120137529999999
703,1778291993220,-0.0477315453333333,-0.16135429,1.1954215666666663,0.065114339,-0.1538085933333333,0.0443318683333333
704,1778291993230,-0.0034748352222222,-0.1755232377777777,1.1807643666666667,0.1337127693333333,-0.2922905799999999,0.0466376411111111
705,1778291993240,0.014748607,-0.18018746,1.1717069,0.16685486,-0.3505249,0.04095459
706,1778291993250,0.0365642327777777,-0.1900724155555555,1.0985574333333332,0.2030724433333333,-0.4459245433333333,0.0021226672222222
707,1778291993260,0.0378656113333333,-0.1983703022222222,1.0531766555555555,0.1988101544444444,-0.4875878166666667,-0.0278252494444444
708,1778291993270,0.0285779535555555,-0.1927430966666666,1.0581937666666663,0.1760236933333333,-0.3985188777777778,-0.0482381183333333
709,1778291993280,0.0086466472,-0.18073654,1.06877625,0.190818785,-0.28847504,-0.0725021375
710,1778291993290,-0.0047767316,-0.17567205,1.0712774,0.21105957,-0.2440033,-0.08634949
711,1778291993300,-0.0389998649999999,-0.1956716177777777,1.0337599111111109,0.2959899822222222,-0.1451636417777778,-0.1265953888888888
712,1778291993310,-0.0512297082222222,-0.2070751833333333,0.9959449222222224,0.3191833466666666,-0.0974663631111111,-0.1333465555555555
713,1778291993320,-0.0587820242222222,-0.2110878544444444,0.9419948777777776,0.2639634888888889,-0.0047895644444444,-0.10546875
714,1778291993330,-0.0544434068888888,-0.2046338455555555,0.9192164333333334,0.1576741533333333,0.0707312688888888,-0.0614352757777777
715,1778291993340,-0.0261597752444444,-0.1862488122222222,0.9243958511111112,0.0296630858888888,0.1469590927777778,-0.0198313394444444
716,1778291993350,0.0149371602777777,-0.1743979766666666,0.950766988888889,-0.0920749244444444,0.19720459,-0.0089992944444444
717,1778291993360,0.037909302,-0.174939752,0.98524642,-0.177349856,0.210983276,-0.0144470212
718,1778291993370,0.0189370393333333,-0.1863834488888889,1.0894327,-0.1659308577777777,0.1522267644444444,-0.0220235188888888
719,1778291993380,0.002056281,-0.19763786,1.1726837,-0.1218414299999999,0.107543945,-0.023498535
720,1778291993390,-0.0095904483222222,-0.1747780266666666,1.2358262,0.06652832,0.1219278966666666,-0.0306040439999999
721,1778291993400,-0.0350003319999999,-0.1471184666666666,1.2081123333333332,0.2689412433333333,0.1750081333333333,-0.0369873046666666
722,1778291993410,-0.06249726,-0.13613608,1.1586506,0.38043213,0.21087646,-0.03414917
723,1778291993420,-0.0668358777777777,-0.1473082311111111,1.0675354888888888,0.4443494944444444,0.2312350777777777,-0.0216030544444444
724,1778291993430,-0.07002192,-0.1655441166666666,0.9450592433333332,0.5199839166666667,0.2504679366666666,-0.00592041
725,1778291993440,-0.0505747162,-0.184482487,0.920316461,0.51145935,0.23803711,-0.00592041
726,1778291993450,-0.015638314,-0.2087421,0.9026343,0.51145935,0.23803711,-0.00592041
727,1778291993460,-0.0170077855555555,-0.2049862488888889,0.9036375555555556,0.4951850033333333,0.2132992219999999,-0.0101233588888888
728,1778291993470,-0.0632697926666666,-0.17493944,0.90995576,0.3368801577777778,-0.0168592664444444,-0.0123816605555555
729,1778291993480,-0.0783196346666666,-0.1812446433333333,0.9092236733333334,0.29823304,-0.0332539873333333,0.0246124266666666
730,1778291993490,-0.0700488828888888,-0.1935973666666667,0.909887652222222,0.2589908199999999,-0.0063849551111111,0.0477650963333333
731,1778291993500,-0.0366136613333333,-0.18654642,0.9193515833333332,0.1927100266666666,0.0833435057777777,0.0337948271777777
732,1778291993510,-0.005388017,-0.16908324,0.9407066,0.15460205,0.17199707,0.0031280518
733,1778291993520,-0.0095237549,-0.127019847,0.960474938,0.155987548,0.2246200589999999,-0.0348999016599999
734,1778291993530,-0.03699284,-0.09501201,0.97999996,0.16845703,0.25508118,-0.0639801
735,1778291993540,-0.0788756138888888,-0.1117294533333333,1.0077819,0.2558000366666667,0.15465122,-0.0347476533333333
736,1778291993550,-0.08747128,-0.12860987,1.0130290666666666,0.3216654466666667,0.0402526853333333,-0.0087687177
737,1778291993560,-0.08958667,-0.13308433,1.0075778,0.35327148,-0.049591064,0.0015258789
738,1778291993570,-0.0575886646666666,-0.1240268744444444,0.9650308222222224,0.3958757177777777,-0.3168572288888889,0.0167507594444444
739,1778291993580,-0.03174637,-0.11746468,0.9328968,0.40119934,-0.39260864,0.00579834
740,1778291993590,-0.0154482058888888,-0.1055338177777777,0.90457272,0.4113226988888889,-0.4616716166666667,-0.023735894
741,1778291993600,-0.024119307,-0.106543985,0.85992373,0.41133118,-0.4679718,-0.0530548095
742,1778291993610,-0.0448163176666666,-0.1133301644444444,0.8406159944444443,0.3913913311111111,-0.4595947266666667,-0.0511355927222222
743,1778291993620,-0.100488685,-0.1088003933333333,0.82526765,0.25775146,-0.5232747466666666,0.0398813871666666
744,1778291993630,-0.096054668,-0.1052213466666666,0.8379993833333333,0.2215321866666667,-0.5811564133333333,0.0755716946666666
745,1778291993640,-0.0487477613333333,-0.1064423653333333,0.8877872,0.1862606466666666,-0.7387525722222222,0.1313815651111111
746,1778291993650,0.020483484,-0.104164176,0.9608417,0.17536926,-0.81710815,0.15386963
747,1778291993660,0.0639934137777777,-0.0724632566666666,1.0190081111111111,0.2606489333333333,-0.7507697222222222,0.1524556433333333
748,1778291993670,0.0905891425,0.0030999764999999,1.0884836,0.569786075,-0.39579772,0.130699155
749,1778291993680,0.06868477,0.017255964,1.0876297,0.6755066,-0.25624084,0.12510681
750,1778291993690,-0.0155833522222222,0.0251878034444444,1.0133275333333334,0.8101484555555555,-0.0316484233333333,0.1910925988888888
751,1778291993700,-0.0853303077777777,0.0309366794444444,0.9285578444444444,0.9107615222222224,0.1593916122222222,0.26329719
752,1778291993710,-0.0913370422222222,0.0341769894444444,0.8781870911111112,0.8728875111111111,0.1545427088888888,0.3065049933333333
753,1778291993720,-0.0692084300666666,0.0485351843333333,0.8230714066666667,0.7081858166666666,0.0185953786666666,0.3857472766666666
754,1778291993730,-0.0033130702,0.049349193,0.8438157,0.58177185,-0.119903564,0.41166687
755,1778291993740,0.0802907121777777,0.0650640695555555,0.8951629166666666,0.4841189922222222,-0.2593282031111111,0.3176879855555555
756,1778291993750,0.1218888433333333,0.0806294499999999,0.944449,0.4318016888888889,-0.3257225844444444,0.2400410933333333
757,1778291993760,0.1097466199999999,0.080954793,0.99934175,0.444352721,-0.2564056396999999,0.178691098
758,1778291993770,0.1097263988888888,0.1070145915555555,1.0662607777777775,0.6186353922222222,0.0484839524444444,0.0639258511111111
759,1778291993780,0.1168614772,0.13379298,1.09570794,0.68136597,0.11714172,0.03883362
760,1778291993790,0.124451676,0.158173756,1.06495578,1.1187683,0.324749756,-0.0672882059999999
761,1778291993800,0.105219692,0.162957644,0.982220488,1.28878782,0.3371093719999999,-0.1122406
762,1778291993810,0.08039873,0.1647887,0.89970547,1.3578186,0.31474304,-0.13587952
763,1778291993820,0.08039873,0.1647887,0.8997054700000001,1.3578186,0.31474304,-0.13587952
764,1778291993830,0.09948096125,0.1754506025,0.8221866062500001,1.2846488875000002,0.3007602674999999,-0.1611843125
765,1778291993840,0.1140926666666666,0.1971795333333333,0.667010011111111,1.0188310333333337,0.2960968011111111,-0.224249941111111
766,1778291993850,0.11883812,0.15465972,0.67309767,0.4585554444444444,0.4397396555555555,-0.1867268877777778
767,1778291993860,0.0900667744444444,0.1008186144444444,0.8421347522222222,0.24005636,0.7320844733333334,-0.1360609233333333
768,1778291993870,0.0345299005555555,0.0631389622222222,0.9731532777777778,0.2012905544444444,0.8977949344444445,-0.1369510233333333
769,1778291993880,0.0141373222,0.102797731,1.0776842,0.317047125,0.757087715,-0.25466919
770,1778291993890,-0.0079365056666666,0.1880679833333333,1.1888862333333334,0.5291578555555555,0.5415785133333334,-0.4464772544444444
771,1778291993900,-0.0265667797777777,0.2405403044444444,1.2450336999999998,0.7014397488888889,0.4373016333333333,-0.5664384644444443
772,1778291993910,0.0147067828888888,0.3019349355555555,1.1735514777777778,0.9848022266666666,0.3078104666666666,-0.6584014866666666
773,1778291993920,0.0671386697777777,0.3465156955555555,1.0711830111111111,1.2128838,0.1225721537777777,-0.6859792022222222
774,1778291993930,0.0448073306666666,0.3502309266666666,0.9369238333333334,1.2230529666666667,0.0154012046666666,-0.5937754133333333
775,1778291993940,0.0021518537777777,0.3547053844444445,0.7433050555555556,1.132685333333333,-0.0053863524333333,-0.4739278166666667
776,1778291993950,-0.01673645,0.3868795,0.6234327,1.0222626,-0.0043182373,-0.36279297
777,1778291993960,-0.0645851688888888,0.4176717,0.551029098888889,0.81264074,0.0954708524555555,-0.2173224562222222
778,1778291993970,-0.112955163,0.450517505,0.45288552,0.430607604,0.324707031,0.0151718138
779,1778291993980,-0.1704651544444444,0.4934245222222222,0.4612706322222222,-0.0249023433333333,0.4977925666666666,0.1799723333333333
780,1778291993990,-0.2875307644444445,0.5748451722222222,0.5366022733333334,-0.5322740322222222,0.5828925444444445,0.3434295722222222
781,1778291994000,-0.27494904,0.59371775,0.67078006,-0.81585693,0.5421753,0.44096375
782,1778291994010,-0.1724580122222222,0.6070069888888888,0.8664728111111111,-0.9125010166666668,0.5649006999999999,0.4319068033333333
783,1778291994020,-0.1216263255555555,0.6164026811111111,0.9483680444444444,-0.8714921722222222,0.58318074,0.3834957555555556
784,1778291994030,-0.11631141,0.6732001466666666,1.078803022222222,-0.5798492333333334,0.4245181688888888,0.21820238
785,1778291994040,-0.1221688233333333,0.6942434222222222,1.1621617333333334,-0.2813398511111111,0.3366953555555556,0.1237470822222222
786,1778291994050,-0.101777986,0.69649169,1.18571516,-0.12983704,0.3594818,0.1133880599999999
787,1778291994060,-0.0651001905555555,0.7239777111111112,1.1021912777777778,0.3478885266666667,0.6281094111111111,0.0642717138888888
788,1778291994070,-0.0531686438888888,0.7269606822222223,1.0307094644444446,0.467910771111111,0.6946868888888889,0.0395270455666666
789,1778291994080,-0.0029465073333333,0.7238016333333334,0.9239883433333334,0.5206960133333333,0.6909535533333333,-0.0517323805999999
790,1778291994090,0.0415134436666666,0.72127924,0.8110717333333333,0.3694373244444444,0.5284440777777778,-0.2231157077777777
791,1778291994100,0.019141147,0.7235574,0.7721849,0.24249268,0.40208435,-0.30152893
792,1778291994110,-0.0385111163333333,0.7261874844444445,0.7817577333333333,-0.0289272728888888,0.1328074155555555,-0.4090677888888889
793,1778291994120,-0.1020340977777777,0.7180930322222222,0.7928218733333333,-0.2375505244444444,-0.0975867355555555,-0.4783698111111111
794,1778291994130,-0.1897461177777777,0.6785561944444445,0.8120617055555556,-0.36827087,-0.3304595866666667,-0.4824472999999999
795,1778291994140,-0.254729218,0.64761907,0.875116709,-0.380065914,-0.479318226,-0.4348022399999999
796,1778291994150,-0.3341871644444444,0.6105725733333334,0.97179765,-0.23594157,-0.3181542277777778,-0.3287014399999999
797,1778291994160,-0.3816423544444445,0.5864243311111111,1.031618711111111,-0.14421082,-0.1625061,-0.26213074
798,1778291994170,-0.3873368,0.5813941,1.0478479,-0.14421082,-0.1625061,-0.26213074
799,1778291994180,-0.2569428622222222,0.6067894222222222,1.1149772,0.1778598355555555,0.7993774555555555,0.2711775033333333
800,1778291994190,-0.1831835742222222,0.6504756444444444,1.0735688222222222,0.1707560222222222,1.0155063444444443,0.49156867
801,1778291994200,-0.0532222153333333,0.72701465,0.9662924433333332,0.0123901366666666,1.001475,0.7511393266666667
802,1778291994210,0.1003165504444444,0.9176504722222224,0.9042200122222224,-0.0866292333333333,0.8989749611111111,0.7860548399999999
803,1778291994220,0.26612663,1.1839715,0.8273420999999999,-0.21398926,0.62153625,0.61087036
804,1778291994230,0.2333149655555555,1.2451483888888888,0.7477794888888889,-0.23476664,-0.0364990177777777,0.1732262511111111
805,1778291994240,0.0643862415555555,1.1040418444444446,0.6993742466666667,-0.1820933022222222,-1.0056593,-0.3703053799999999
806,1778291994250,-0.083608102,0.8400535666666666,0.7490810533333333,-0.0192209866666666,-1.822901433333333,-0.5342966666666666
807,1778291994260,-0.1296131166666666,0.5852178333333333,0.8458092266666667,0.1727091533333333,-2.4093272333333333,-0.5319874900000001
808,1778291994270,-0.10496367,0.5267253,0.887136,0.20999146,-2.3265839,-0.47624207
809,1778291994280,-0.1749802344444444,0.4430136666666666,0.9763801111111112,0.1549580911111111,-1.2660641266666666,-0.2734832766666666
810,1778291994290,-0.2005658811111111,0.4531960466666666,0.9976810666666668,0.104944866,-0.7305925177777778,-0.1836429144444444
811,1778291994300,-0.1692724866666666,0.5254233866666667,0.9858172866666668,0.0143330906666666,-0.2152353933333333,-0.1254068983333333
812,1778291994310,-0.0738812457142857,0.6259869428571428,0.93636654,-0.1424669514285714,0.4681374571428571,-0.0804138185714285
813,1778291994320,-0.05212564,0.63435495,0.9191079,-0.19908142,0.666275,-0.08102417
814,1778291994330,-0.1304399111111111,0.62250429,0.933453131111111,-0.3244205044444445,0.5784488177777778,-0.026102702
815,1778291994340,-0.1696380066666666,0.6219073566666666,0.98386468,-0.4259745266666666,0.4470062266666667,0.0489400226666666
816,1778291994350,-0.16597756,0.60083747,1.1063809,-0.377631291111111,0.3951738177777777,0.1977200017777778
817,1778291994360,-0.1806618766666666,0.59018016,1.155720766666667,-0.2722269666666667,0.3923339866666666,0.3379821833333333
818,1778291994370,-0.19514295,0.5933522,1.1720725,-0.16604614,0.39517212,0.44522095
819,1778291994380,-0.1808786033333333,0.6107080666666667,1.149945211111111,-0.00093248,0.3649834577777777,0.5967881922222222
820,1778291994390,-0.1525543566666666,0.61793476,1.114719188888889,0.1503346766666666,0.346344,0.7300008066666667
821,1778291994400,-0.1078780262222222,0.6191827422222222,1.0746127333333333,0.2620764833333333,0.3394775333333333,0.8071695666666666
822,1778291994410,-0.082265242,0.6399070649999999,1.0410755,0.323660278,0.30398559,0.7751373
823,1778291994420,-0.08580385,0.65839416,1.0286896,0.33729553,0.28012085,0.7451019
824,1778291994430,-0.0843806311111111,0.6662174799999999,1.060457633333333,0.4093170188888889,0.1131642666666666,0.6648474744444444
825,1778291994440,-0.0773843,0.6699868,1.0817719,0.4629974399999999,0.025512695,0.62046814
826,1778291994450,-0.0687609833333333,0.6734844266666666,1.0825039666666667,0.56420052,0.0088263616666666,0.5802747955555555
827,1778291994460,-0.0555818079999999,0.6800333266666666,1.0600912,0.6706712666666667,0.0224999326444444,0.5338745155555555
828,1778291994470,-0.0312303113333333,0.6945687,0.9653972,1.027355638888889,0.1287350144444444,0.36438497
829,1778291994480,-0.0224988065555555,0.7014020444444444,0.8932516500000001,1.0797899444444443,0.1271972672222222,0.2965613444444444
830,1778291994490,-0.018811395,0.7067168,0.80745125,1.1181335,0.084106445,0.18955994
831,1778291994500,-0.0302541902222222,0.7072191811111112,0.6962969444444445,1.059126088888889,0.0432722304444444,0.123218114
832,1778291994510,-0.0374942091111111,0.7023918122222222,0.5890071833333334,0.9665646,0.0239834258888888,0.08357239
833,1778291994520,-0.0439726856,0.6679855800000001,0.528323016,0.68638,-0.0077209475999999,0.055767823
834,1778291994530,-0.0561106553333333,0.6504215333333333,0.5083183066666667,0.5381012,-0.03201294,0.037231445
835,1778291994540,-0.0706862624444444,0.6599395611111112,0.5300394288888889,0.4935370588888888,-0.0936211466666666,0.0140313044444444
836,1778291994550,-0.0652904677777777,0.708805,0.7657853266666668,0.0645192483333333,-0.7492302722222222,-0.2425910088888888
837,1778291994560,-0.0445994223333333,0.6965074000000001,0.8669609833333333,0.0016632081111111,-0.9008483944444444,-0.3123101133333333
838,1778291994570,-0.0557442642222222,0.6713970333333333,0.9743468555555554,0.0261077882222222,-0.8849894333333334,-0.3527289555555556
839,1778291994580,-0.0529294839999999,0.64216446,1.0236137,0.0886566148,-0.661260988,-0.340631112
840,1778291994590,-0.037481245,0.6150738,1.0262492,0.13276672,-0.43467712,-0.32817078
841,1778291994600,0.0031950309999999,0.5431582533333333,0.9386050844444446,0.16046312,0.1154734279999999,-0.2940792511111111
842,1778291994610,0.027072296,0.51195955,0.8617545,0.1415846077777777,0.4183671711111111,-0.2679816333333333
843,1778291994620,0.0521019614444444,0.5135729111111111,0.7821374288888889,-0.0539584677777777,0.6311899888888889,-0.2414652466666666
844,1778291994630,0.0360082520222222,0.4749171488888888,0.7719688888888889,-0.2754262266666666,0.6582896,-0.22679138
845,1778291994640,0.0046196333,0.44142696,0.80891645,-0.3940277,0.56987,-0.21046448
846,1778291994650,-0.0723440776699999,0.407551516,0.944282595,-0.52419281,0.38132171,-0.101959227
847,1778291994660,-0.1171247211111111,0.3993943466666667,1.0297746555555554,-0.5561726933333334,0.2730170288888889,0.0010053846666666
848,1778291994670,-0.0610330766666666,0.3821209266666667,1.050125566666667,-0.4462178533333333,0.3301849366666667,0.1000823976666666
849,1778291994680,-0.0281263593333333,0.3577561166666666,1.0190895233333332,-0.3595784466666666,0.4029795333333333,0.1078948966666666
850,1778291994690,-0.027963558,0.33416435,0.96303797,-0.28323364,0.46653748,0.07771301
851,1778291994700,-0.0551074017777777,0.3381232777777778,0.8795975155555555,-0.3056657588888888,0.5168457155555556,0.0540907114444444
852,1778291994710,-0.07079549,0.3391666,0.8035471,-0.34342957,0.55496216,0.051605225
853,1778291994720,-0.120704634,0.3148343859999999,0.82224183,-0.35726928,0.4731414779999999,0.0944305419999999
854,1778291994730,-0.1562281111111111,0.3234116622222222,0.8951226111111112,-0.3294016466666666,0.3278808566666666,0.1556447333333333
855,1778291994740,-0.0761499764444444,0.3349370533333333,0.9706711333333332,-0.2800394699999999,0.1537119546666666,0.20287069
856,1778291994750,-0.0223626188888888,0.3043340977777777,0.9830102466666668,-0.2007310677777777,-0.0466834155555555,0.1934068477777777
857,1778291994760,-0.01978665,0.29206347,0.99012893,-0.15753174,-0.13427734,0.18423462
858,1778291994770,-0.0111495087333333,0.2831012444444444,0.9775190455555556,-0.1464046911111111,-0.1484798833333333,0.1613311769666666
859,1778291994780,0.040618554,0.24068911,0.8964095,-0.11225891,-0.20191956,0.0074005127
860,1778291994790,0.0335649802,0.254308162,0.8448903399999999,-0.1990234329999999,-0.263389586,-0.1724792493299999
861,1778291994800,0.04700412,0.27888482,0.8231937666666667,-0.2555338466666666,-0.3750254266666666,-0.3299509666666667
862,1778291994810,0.07686012,0.30060592,0.8285631,-0.25979614,-0.4804839999999999,-0.4325714
863,1778291994820,0.0308417991111111,0.3252964966666666,0.8467315977777778,-0.1334381083333333,-0.8446875888888888,-0.6125369444444444
864,1778291994830,-0.0093198031111111,0.3329979633333333,0.8685066111111112,-0.0380401609333333,-1.0488027333333332,-0.6797078333333333
865,1778291994840,-0.0227704878888888,0.3368082477777778,0.892586411111111,0.0754089354666666,-1.084315,-0.6683451333333333
866,1778291994850,-0.0263770166666666,0.3420960233333334,0.9047891333333332,0.2463938399999999,-0.9722849333333332,-0.6104634666666667
867,1778291994860,-0.023692342,0.34331653,0.8893323,0.29362488,-0.8235016,-0.5699768
868,1778291994870,-0.0111717355,0.354811474,0.82171626,0.32072754,-0.519477849,-0.5203399639999999
869,1778291994880,0.0083485224444444,0.3787044955555556,0.7165269044444444,0.3475223111111111,-0.1384226445555555,-0.4657067233333333
870,1778291994890,0.0337297172222222,0.38362605,0.5941054188888889,0.2758060044444444,0.0126190185555555,-0.5258331277777777
871,1778291994900,0.0075070333333333,0.3623518866666667,0.4693511133333333,0.1726515024444444,0.0056338845555555,-0.6164974555555555
872,1778291994910,-0.1158641333333333,0.3063817533333333,0.40105571,-0.0142517093333333,-0.31572468,-0.7249755666666666
873,1778291994920,-0.2125115911111111,0.2575292688888889,0.3896255333333334,-0.1868879544444444,-0.6413455333333333,-0.7433285033333333
874,1778291994930,-0.25871968,0.1921223,0.43160284,-0.46006775,-0.9481354,-0.68556213
875,1778291994940,-0.2526725066666666,0.1128581755555555,0.5696038711111111,-0.9139879,-0.8817359222222222,-0.4419114755555555
876,1778291994950,-0.226369803,0.0396843609999999,0.7146486729999999,-1.28660735,-0.69215547,-0.206939696
877,1778291994960,-0.19929129,0.02652945,0.74582654,-1.3373108,-0.6242981,-0.1689148
878,1778291994970,-0.0650602659999999,-0.0014558844444444,0.8800043622222222,-1.8689388555555555,0.23342556,0.1810997822222222
879,1778291994980,-0.032844502,-0.0066619157,0.92655224,-2.0984497,0.60609436,0.31900024
880,1778291994990,-0.010593702,0.0104217397888888,1.0308589866666666,-2.1401095777777774,0.7777133577777778,0.3257344566666666
881,1778291995000,0.0191406273333333,0.0387738096666666,1.127613566666667,-2.086373233333333,0.8389027888888889,0.3028310166666667
882,1778291995010,0.0489427042222222,0.0712336005555555,1.1898484111111112,-1.770763833333333,0.7023739333333334,0.2067192888888888
883,1778291995020,0.0360217314666666,0.0840871699999999,1.2053872,-1.3767293333333332,0.4805704666666666,0.0837402316666666
884,1778291995030,-0.0039227996,0.08376157,1.208804,-1.01213533,0.2293640091,-0.0288726809
885,1778291995040,-0.0818591068888889,0.0735247522222222,1.188316377777778,-0.5347612111111111,-0.1735670294444444,-0.1466573066666666
886,1778291995050,-0.1080546588888888,0.04678653,1.138474111111111,-0.0787048333333333,-0.5299038222222222,-0.2342512311111111
887,1778291995060,-0.1148069604444444,0.0132006062355555,1.0700836666666669,0.2866872133333333,-0.7776947000000001,-0.2702840066666667
888,1778291995070,-0.1083392982222222,-0.0061472403166666,1.0127307222222222,0.4432254444444444,-0.8341539111111111,-0.2708740111111111
889,1778291995080,-0.0909436931111111,-0.0147700372222222,0.9796746888888888,0.5425957744444445,-0.8333282222222222,-0.2675035166666666
890,1778291995090,-0.0563142427777777,-0.0299966795555555,0.8760995055555555,0.5797593877777777,-0.6600358666666666,-0.2556694944444444
891,1778291995100,-0.0354877,-0.0307425953333333,0.8173365,0.56289334,-0.5148078,-0.2504560799999999
892,1778291995110,-0.0307689344,-0.030385054,0.78634092,0.482489016,-0.424874884,-0.2425109899999999
893,1778291995120,-0.0406128483333333,-0.03216668,0.7827744888888889,0.2685852,-0.30046082,-0.21737671
894,1778291995130,-0.04175246,-0.03045847,0.78695065,0.2685852,-0.30046082,-0.21737671
895,1778291995140,-0.0416439266666666,-0.0339295024444444,0.8021910722222222,-0.1465216755555555,-0.3001641222222222,-0.1123894588888888
896,1778291995150,-0.0326003,-0.035339415,0.8191667,-0.21664429,-0.3297577,-0.08102417
897,1778291995160,-0.0137531297777777,-0.0492506831111111,0.8461215000000001,-0.2725728333333334,-0.3212331133333334,-0.0302530926666666
898,1778291995170,-0.0015505928333333,-0.0560437732222222,0.8814419155555555,-0.2867804622222222,-0.2239362924444444,0.0168558753333333
899,1778291995180,-0.012465232,-0.03924355,0.92130417,-0.26565552,-0.058639526,0.05000305
900,1778291995190,-0.0086412889111111,-0.0484772867777777,0.91658551,-0.2696194122222222,0.04155816,0.0592380091111111
901,1778291995200,-0.0075018489333333,-0.056653502,0.9135342666666668,-0.3020528133333333,0.2176259366666666,0.08072408
902,1778291995210,-0.0347011722222222,-0.0551896655555555,0.9431469333333332,-0.3994683133333333,0.2861582388888888,0.1098412388888888
903,1778291995220,-0.0545514244444444,-0.0636505255555555,0.97387124,-0.47018433,0.3163452,0.1320343
904,1778291995230,-0.0561785776666666,-0.0648300655555555,0.9865083977777778,-0.50852966,0.33551025,0.14428711
905,1778291995240,-0.0131833233333333,-0.0714736594444444,1.0514812555555555,-0.6202036555555556,0.3410729288888889,0.25277032
906,1778291995250,-0.0008988670666666,-0.0742934861111111,1.0702463666666668,-0.6274227777777779,0.3453386077777777,0.2666151266666666
907,1778291995260,0.0149508122222222,-0.0888965722222222,1.1063399333333337,-0.6263037833333334,0.4190182144444444,0.2983330644444444
908,1778291995270,0.0284554188888888,-0.1044080322222222,1.1235866,-0.6310441833333333,0.4879065611111111,0.3141954244444445
909,1778291995280,0.0105489398,-0.1014549219999999,1.1210160999999998,-0.6554443400000001,0.52566223,0.320059198
910,1778291995290,-0.0118560216666666,-0.0922459299999999,1.1225299,-0.7002919433333333,0.5306345666666668,0.3037261866666667
911,1778291995300,-0.020642139,-0.08451751,1.1454715,-0.74076843,0.5214081,0.27745056
912,1778291995310,-0.0474335914444444,-0.0788225544444444,1.1813196777777777,-0.83054267,0.4735277011111111,0.2050103066666666
913,1778291995320,-0.0697103166666666,-0.0691814677777777,1.2377511222222222,-0.8925628666666667,0.47257996,0.1489054333333333
914,1778291995330,-0.0685439166666666,-0.0679749733333333,1.2774650777777776,-0.9238094755555556,0.5618201377777778,0.0885348866666666
915,1778291995340,-0.056029385,-0.0682873574999999,1.2938278,-0.9008178775,0.634719845,0.042015078
916,1778291995350,-0.0319698316666666,-0.0664166933333333,1.3064680666666666,-0.8424988,0.7078247000000001,-0.020309448
917,1778291995360,-0.0501231756,-0.078366398,1.30986728,-0.72456666,0.8324584959999999,-0.078460694
918,1778291995370,-0.0612902442222222,-0.0842318288888888,1.3071716333333334,-0.6569637555555556,0.8833550333333333,-0.0965830488888888
919,1778291995380,-0.09129627625,-0.1202559025,1.264462975,-0.47411726875,0.7409839500000001,-0.1393470775
920,1778291995390,-0.1159324,-0.1492737888888889,1.2111082666666666,-0.34560988,0.5155402222222222,-0.1649373422222222
921,1778291995400,-0.12363352,-0.1606637,1.1875708,-0.2992096,0.4026184,-0.1694336
922,1778291995410,-0.1111050288888888,-0.17685228,1.1545147777777778,-0.2295549211111111,0.1968434622222222,-0.1554718033333333
923,1778291995420,-0.0986175,-0.19068196,1.1311942,-0.13569641,-0.07835388,-0.13215637
924,1778291995430,-0.0745103777777777,-0.1814487533333333,1.1472606333333333,0.0218522811111111,-0.3069627555555556,-0.08895874
925,1778291995440,-0.0699681706666666,-0.1579919711111111,1.1371459666666666,0.1698710133333333,-0.43733724,-0.0439198806666666
926,1778291995450,-0.073357284,-0.15358491,1.1270443,0.2451477,-0.4927368199999999,-0.021896362
927,1778291995460,-0.0944954339999999,-0.1458972755555555,1.1061638444444446,0.2714216377777778,-0.51989916,0.0103607185555555
928,1778291995470,-0.115079105,-0.1345728635,1.0773538400000002,0.29600982,-0.561015322,0.070895388
929,1778291995480,-0.1247726133333333,-0.1176269553333333,1.0523628333333332,0.2462158233333333,-0.56375122,0.1116129566666666
930,1778291995490,-0.11669128,-0.0933570355555555,1.0328929444444443,0.1466674788888889,-0.5545179622222223,0.1715053944444444
931,1778291995500,-0.10435238,-0.07634061,1.0445535,0.09547424,-0.54919434,0.19488525
932,1778291995510,-0.09817006,-0.0922454166666666,1.0487832333333331,-0.0712381984444444,-0.5657077444444444,0.1902618422222222
933,1778291995520,-0.09373656,-0.09049659,1.0549251,-0.1117740188888888,-0.5531650133333333,0.1989627411111111
934,1778291995530,-0.0675684891111111,-0.0840021411111111,1.0678742666666663,-0.1842227522222222,-0.4800109999999999,0.1949412033333333
935,1778291995540,-0.0644250632,-0.088568478,1.07999054,-0.251379392,-0.4064483659999999,0.1761322
936,1778291995550,-0.0881230009999999,-0.098265458,1.094340833333333,-0.35353597,-0.2908732133333333,0.15245565
937,1778291995560,-0.1039464133333333,-0.1040418126666666,1.12733,-0.40716553,-0.19482422,0.13647461
938,1778291995570,-0.11850837,-0.10648177,1.1562102,-0.42279053,-0.1071167,0.12084961
939,1778291995580,-0.1119045211111111,-0.1024958877777778,1.179895811111111,-0.3198632088888888,0.065233018,0.1250457766666667
940,1778291995590,-0.0958509066666666,-0.1024552733333333,1.1854554333333334,-0.23511759,0.1372019433333333,0.1286621116666666
941,1778291995600,-0.08495044,-0.1076082448888889,1.1836929,-0.131790159,0.1599171933333333,0.1189015699999999
942,1778291995610,-0.07718987,-0.1134871216,1.17351248,0.0194122314,0.1869049039999999,0.1094512919999999
943,1778291995620,-0.0701040111111111,-0.1100755022222222,1.157849788888889,0.0936465791111111,0.2150217644444444,0.1109093544444444
944,1778291995630,-0.06636095,-0.09021143,1.1012153,0.2170969666666666,0.3108367866666667,0.112497968
945,1778291995640,-0.07384569,-0.07695189,1.0593193,0.2632599,0.3594818,0.112854004
946,1778291995650,-0.0938723972222222,-0.0704707508888888,0.9887864555555556,0.2319522488888889,0.3206634511111111,0.0839792875555555
947,1778291995660,-0.1160003194444444,-0.0776022322222222,0.9488152911111112,0.1725362186666666,0.2472788499999999,0.058176675
948,1778291995670,-0.1270508,-0.08817744,0.94766253,0.115722656,0.17625427,0.046813965
949,1778291995680,-0.1432257366666666,-0.1161219866666666,0.966305431111111,0.0240461557777777,0.0700853114444444,0.0486433243333333
950,1778291995690,-0.159888142,-0.141431231,0.998364958,-0.079127502,-0.0414886474999999,0.0596984859
951,1778291995700,-0.16390365,-0.14638637,1.0116048,-0.12237549,-0.084747314,0.06864929
952,1778291995710,-0.1320126313333333,-0.1372736166666666,1.081406366666667,-0.2249959333333333,-0.1726277666666666,0.1219177266666666
953,1778291995720,-0.078726634,-0.1185628099999999,1.1023953,-0.22357178,-0.16836548,0.13256836
954,1778291995730,-0.0669711981111111,-0.1141020033333333,1.1020833555555556,-0.2130398244444444,-0.1635131844444444,0.1236911355555555
955,1778291995740,-0.023081057,-0.0970854,1.1009301,-0.1588372137777778,-0.14658949,0.0811394588888889
956,1778291995750,-0.0291562274444444,-0.0988620533333333,1.080388588888889,0.0529869926666666,-0.1156989211111111,-0.0394151477777777
957,1778291995760,-0.0201936553333333,-0.1203116333333333,1.0498409333333334,0.1382124166666666,-0.0780537922222222,-0.0770534944444444
958,1778291995770,-0.012465232,-0.13772106,1.0138026,0.17164612,-0.06236267,-0.09539795
959,1778291995780,0.0171637256,-0.165055601,0.9726664,0.16706543,-0.099758912,-0.156869508
960,1778291995790,0.0643321491111111,-0.2050403311111111,0.9174669133333332,0.14714559,-0.1637471533333333,-0.2544860866666666
961,1778291995800,0.0983236966666666,-0.2306664255555555,0.8902816088888889,0.1054789233333333,-0.2566596111111111,-0.3849216022222222
962,1778291995810,0.1090081333333333,-0.2328499066666666,0.8828651455555555,0.0379486063333333,-0.3372090666666666,-0.5431721966666667
963,1778291995820,0.1150962666666666,-0.2265723566666666,0.8816173222222221,-0.0737864161111111,-0.3494025333333333,-0.70639715
964,1778291995830,0.1058490516666666,-0.2392900944444444,0.8907153777777778,-0.1876559755555555,-0.3587561644444444,-0.8274230777777778
965,1778291995840,0.0832869941111111,-0.2554111166666667,0.918049858888889,-0.2665473066666666,-0.3929680688888889,-0.9106309611111112
966,1778291995850,-0.0183224719999999,-0.2421372233333333,1.05590192,-0.2773691833333333,-0.54440816,-0.9978688666666664
967,1778291995860,-0.1423579811111111,-0.2109112266666666,1.2480962777777778,-0.190907796,-0.6975080644444445,-1.0445641666666663
968,1778291995870,-0.19502069,-0.162322716,1.44295194,0.2986206056,-0.68938292,-0.95293882
969,1778291995880,-0.1558357977777777,-0.1341285322222222,1.4715992555555557,0.8780941333333333,-0.3647223588888889,-0.7724372
970,1778291995890,-0.11875257,-0.13284011,1.4221097,1.1985626,-0.11349487,-0.6626587
971,1778291995900,-0.0766254211111111,-0.1545074544444444,0.997408727777778,1.6328362222222224,0.4971364355555556,-0.3501180055555555
972,1778291995910,-0.0744154966666666,-0.15496873,0.8257145866666666,1.731547,0.72007244,-0.1818644216666666
973,1778291995920,-0.0690871066666666,-0.1513077633333333,0.7091779933333333,1.674964011111111,0.7623833777777778,-0.0584140355555555
974,1778291995930,-0.0625216805999999,-0.143774495,0.58738572,1.35616298,0.71490476,0.2103881839999999
975,1778291995940,-0.0640160558888888,-0.1335863811111111,0.5920029688888888,1.2200469888888887,0.6232570977777778,0.27022298
976,1778291995950,-0.0783616316666666,-0.06958899,0.67753168,0.7976633666666666,0.26094564,0.43279521
977,1778291995960,-0.08558834,-0.0442067602222222,0.7107505111111112,0.7025587222222222,0.1560143388888888,0.4675360799999999
978,1778291995970,-0.09304577,-0.0074622713333333,0.7627485944444445,0.6309458555555555,0.0967729377777777,0.49931675
979,1778291995980,-0.0941573864444444,0.0056624642333333,0.7948558277777777,0.5995178333333333,0.1203308099999999,0.52157085
980,1778291995990,-0.09894259,-0.0055238573,0.8153019866666668,0.5953843666666666,0.1982116655555555,0.5487959166666667
981,1778291996000,-0.10642733,-0.01764482,0.81709176,0.583374,0.27693176,0.5980835
982,1778291996010,-0.08462501,-0.0070146523111111,0.8361820888888888,0.5658501333333333,0.2035403777777777,0.6527710111111111
983,1778291996020,-0.0149057049999999,0.03342467865,0.8863427250000001,0.5550293,0.0529998796,0.7305054
984,1778291996030,0.0422716311111111,0.0687112111111111,0.9141319222222224,0.5891723666666667,-0.0115271673333333,0.7322591311111111
985,1778291996040,0.054040376,0.07521914,0.9153251,0.6110687,0.018066406,0.71687317
986,1778291996050,0.0334450727222222,0.0614573667777777,0.8836248766666667,0.6294742000000001,0.1833580882222222,0.7054443311111112
987,1778291996060,0.0053522415,0.049227867,0.84332883,0.6403656,0.40315247,0.701416
988,1778291996070,-0.0391619797777777,0.1022421746666666,0.7679684999999999,0.5395219588888889,0.6462758399999999,0.67732918
989,1778291996080,-0.0904416366666666,0.1557993333333333,0.7363902866666667,0.4479641388888889,0.6711290133333334,0.6163787788888889
990,1778291996090,-0.1381550299999999,0.1944414566666666,0.7363902733333334,0.3545074466666666,0.39640808,0.51677449
991,1778291996100,-0.1042715,0.21323366,0.7745035333333333,0.3079935733333333,0.0267639133333333,0.4011993466666667
992,1778291996110,-0.0396655416,0.220128478,0.826073165,0.290950014,-0.305464174,0.282084668
993,1778291996120,0.0230597955555555,0.2022917133333333,0.9141592277777778,0.3586578422222222,-0.6753692622222223,0.0990668408888889
994,1778291996130,0.0686443233333333,0.1804078233333333,0.9739804333333332,0.43103027,-0.8052113933333334,0.0075734456666666
995,1778291996140,0.0818769051111111,0.1677711499999999,0.9906843888888888,0.4838188944444444,-0.6346520422222222,-0.0245039205555555
996,1778291996150,0.0992455511111111,0.1808011766666666,0.9821016922222222,0.5010986266666666,-0.2686174184444445,-0.0676523855555555
997,1778291996160,0.10968596,0.20310521,0.96230537,0.4768371599999999,-0.057037354,-0.09753418
998,1778291996170,0.0899444177777777,0.2546819611111111,0.9051968055555556,0.3350457066666666,0.1839497873333333,-0.2658555755555555
999,1778291996180,0.0314791823888888,0.2934058211111111,0.8851025133333335,0.2397630477777778,0.1265360488711111,-0.4211459688888889
1000,1778291996190,0.0057177682999999,0.30951387,0.8844512999999999,0.21105957,0.00047302246,-0.49275208
