id,timestamp,acc_x,acc_y,acc_z,gyro_x,gyro_y,gyro_z
0,1778325696960,-0.18447987625,0.50453197375,0.2685575975,2.450279225,0.7121391275,-1.83423995
1,1778325696970,-0.14832444,0.4751077533333332,0.2357874333333333,2.208191,0.5883026,-1.5510101
2,1778325696980,-0.0364643404444444,0.5369897666666668,0.24251312,1.9267866666666669,0.693169488888889,-1.2074635555555555
3,1778325696990,0.0439728397499999,0.5881368625,0.2195791799999999,1.7719727,0.7379761,-1.0380859
4,1778325697000,0.1765166533333333,0.6658379766666667,0.095901721,1.5917612666666667,0.4648997,-1.0950775333333334
5,1778325697010,0.3119412222222222,0.7086292722222223,0.0596729416666666,1.3260379333333334,0.0385623466666666,-1.3062388
6,1778325697020,0.37062368,0.6954497666666666,0.1634250933333333,1.1010284133333332,-0.0609842956666666,-1.4963277
7,1778325697030,0.3331201333333333,0.6720607333333333,0.2743081999999999,0.8654276599999999,0.1181589753333333,-1.6822153999999998
8,1778325697040,0.25062832,0.6723044,0.2952972,0.7237549,0.32304382,-1.7741852
9,1778325697050,-0.0179564265555555,0.5579104877777777,0.1106670835555555,0.7112053833333333,-0.2082282133333333,-1.733820611111111
10,1778325697060,-0.19123726,0.4334958,-0.030520687,0.7210846,-0.7960205,-1.6426239
11,1778325697070,-0.2886836933333333,0.4403018622222222,0.0142785204444444,0.7461836222222222,-1.107076011111111,-1.3270721666666665
12,1778325697080,-0.3398271599999999,0.4512702433333333,0.0878077666666666,0.7408599933333334,-1.1687401444444443,-0.9712745111111112
13,1778325697090,-0.29532832,0.44118273,0.1338527,0.67581177,-0.94462585,-0.7728424
14,1778325697100,-0.2569568555555555,0.4131704466666666,0.17024463,0.7299075655555556,-0.90367466,-0.6706288633333334
15,1778325697110,-0.18379451,0.38541585,0.2459978,0.927951815,-0.87032127375,-0.47222328125
16,1778325697120,-0.1339515588888889,0.3749213544444444,0.2156936688888888,1.138487111111111,-0.8272060777777779,-0.3889889155555555
17,1778325697130,-0.0941292122222222,0.3385842177777778,0.1214749305555555,1.3601260666666666,-0.8021714888888889,-0.3225216344444444
18,1778325697140,-0.10508499,0.3348954,0.076133735,1.4529266,-0.8173218,-0.30784607
19,1778325697150,-0.1269550544444444,0.3464885533333333,0.0486229802222222,1.4966617,-0.8930172633333334,-0.3011593288888889
20,1778325697160,-0.1930536533333333,0.3724003177777778,-0.0278759346666666,1.6001112333333334,-1.1034715777777775,-0.2744106733333333
21,1778325697170,-0.2485768755555555,0.3581225022222222,-0.0666946797777777,1.5739491666666665,-1.2021297666666666,-0.1931542222222222
22,1778325697180,-0.3649116144444444,0.3424212844444445,-0.1310845555555555,1.4555817,-1.3701935,0.0894928
23,1778325697190,-0.42174917,0.3391666,-0.18195756,1.2382812,-1.3654022,0.41334534
24,1778325697200,-0.4306308677777777,0.3546644266666666,-0.2330471022222222,0.9518398533333332,-1.3664703333333332,0.741212628888889
25,1778325697210,-0.3796502111111111,0.4029749533333333,-0.29415572,0.5473937977777777,-1.3699018444444446,1.1489054111111112
26,1778325697220,-0.2156433711111111,0.4608439222222222,-0.2921488577777777,-0.0814158133333333,-1.2047221,1.4890798
27,1778325697230,-0.0825374496666666,0.4974662266666667,-0.2632551422222222,-0.6683180133333333,-0.9688822555555556,1.6898243777777775
28,1778325697240,0.0315742334444444,0.4910661577777777,-0.1950280177777777,-1.2168121666666667,-0.76459249,1.7296498333333332
29,1778325697250,0.0526171553333333,0.4366279133333333,-0.0836023993333333,-1.4724731666666666,-0.8959757466666667,1.6918335
30,1778325697260,0.052943796,0.4150686,0.015485882,-1.5378113,-1.0309143,1.6538391
31,1778325697270,0.0161716546666666,0.3843726677777778,0.1078749135555555,-1.456910888888889,-1.113352477777778,1.6411793777777777
32,1778325697280,-0.06786661,0.31561583,0.20206773,-1.2459259,-1.2173309,1.7262878
33,1778325697290,-0.0850589757777777,0.2990739833333333,0.1786923544444444,-1.1325361555555555,-1.3915032,1.7962358
34,1778325697300,-0.1004072933333333,0.23414074,0.1297043666666666,-0.786205711111111,-1.9908413333333332,2.0010664222222223
35,1778325697310,-0.0505391,0.19224362,0.14166252,-0.4933166499999999,-2.5505219,2.1630402
36,1778325697320,0.0701624277777777,0.1247632822222222,0.2209959544444444,-0.0938992,-2.952706255555556,2.3528307222222224
37,1778325697330,0.2024270333333333,0.071924215,0.2605198366666666,0.4059499,-3.1820322666666665,2.536768566666667
38,1778325697340,0.2941657222222222,0.057958853,0.16932347,0.8011661,-3.1770613111111112,2.643769988888889
39,1778325697350,0.3153852733333334,0.0328484781111111,0.038833092,0.9769338,-3.0808359999999997,2.7082774
40,1778325697360,0.30114874,0.012984747,-0.028689943,1.0337372,-2.9771576,2.763321
41,1778325697370,0.2254909877777778,-0.0446545532222222,-0.1168753377777777,0.9249030222222222,-2.678933011111111,2.952050088888889
42,1778325697380,0.15202948,-0.116122335,-0.16499557,0.743454,-2.3081665,3.2155304
43,1778325697390,0.1745099733333333,-0.1780319927777777,-0.2176579966666666,0.4712304004444443,-1.8453708333333336,3.590259133333334
44,1778325697400,0.3386115011111111,-0.2525235355555555,-0.3321471155555555,-0.0505133728888888,-1.2075144222222225,4.210006711111111
45,1778325697410,0.5581419,-0.24303159,-0.40038842,-0.35377502,-1.1209259,4.5066223
46,1778325697420,0.9833707388888888,-0.1195797155555555,-0.4169166266666667,-0.6449415266666666,-1.3055131444444443,4.413950688888889
47,1778325697430,1.2917097333333334,-0.0315973908888888,-0.4413626688888888,-0.8549194111111111,-1.5181528444444443,4.170949333333334
48,1778325697440,1.38308515,-0.0223745014999999,-0.4206759424999999,-0.88401030625,-2.3196868625,3.7309074375
49,1778325697450,1.290285511111111,-0.0709719442222222,-0.11221129,-0.7805243411111111,-3.1725073555555556,3.3615790666666667
50,1778325697460,1.0663902,-0.10172214,0.17717305,-0.43206787,-3.4783478,3.2858276
51,1778325697470,0.7479773866666667,-0.1407178622222222,0.3634163344444444,0.2276950397777777,-3.2733510444444445,3.835028711111111
52,1778325697480,0.6201321,-0.20800948,0.36729506,0.58740234,-3.0378723,4.23497
53,1778325697490,0.7033008611111111,-0.3725048977777778,0.2119250208888888,0.9121263266666668,-2.670945888888889,5.0510354444444445
54,1778325697500,1.0103796333333337,-0.5185323133333334,-0.0364987293333333,1.0873633622222223,-2.213645122222222,5.973970244444445
55,1778325697510,1.4156775666666668,-0.5460561977777778,-0.213440531111111,0.8675096344444445,-1.7400783888888889,6.529091688888888
56,1778325697520,1.900225066666667,-0.5540839444444444,-0.3249067699999999,0.5404765044444445,-1.3108402,6.800735333333333
57,1778325697530,2.2936323,-0.5609168,-0.44895524,0.14797974,-1.091629,6.839554
58,1778325697540,2.620696477777778,-0.5702186044444445,-0.4044287488888888,0.027835423,-1.650831411111111,6.617452
59,1778325697550,3.11918615,-0.69844339,-0.0937913924999999,0.104562759,-2.80823705,6.158853375
60,1778325697560,3.1085396,-0.83084413,0.312869705,0.5779457125,-3.1594391,6.106647325
61,1778325697570,3.06946636,-0.87128394,0.47160418,1.4360962000000002,-3.08836672,6.37349852
62,1778325697580,3.1076683714285713,-0.9187041228571428,0.4629301142857143,2.1068463714285715,-2.849779414285714,6.8266906857142855
63,1778325697590,3.26299735,-0.948937205,0.3401733675,2.7168541,-2.6221542500000004,7.264591225
64,1778325697600,3.6197174666666663,-0.82844386,0.098668313,3.222147566666667,-2.4470062,7.544759133333333
65,1778325697610,4.0373402,-0.6126571999999999,-0.0676167073333333,3.3551873,-2.3363359111111115,7.405439711111111
66,1778325697620,4.327781966666667,-0.40550734,-0.1674766577777777,3.2673610777777777,-2.017227088888889,6.87364028888889
67,1778325697630,4.4756265,-0.15212126,-0.31423616,2.8862305,-1.3899078,6.012909
68,1778325697640,4.230348833333333,0.11567782,-0.35012637,2.2334662777777776,-0.8701188666666666,5.001676788888889
69,1778325697650,3.807791111111111,0.34057618,-0.2969221155555555,1.3344438844444444,-0.3187323577777777,3.6309220666666664
70,1778325697660,3.07559148,0.30924508,-0.180908248,0.5926239,-0.000805664,2.6120513599999997
71,1778325697670,2.669168322222222,0.2042439557777777,-0.1365088566666666,0.1176164388888888,0.1232469366666666,2.0179900777777777
72,1778325697680,2.329387,0.045077976,-0.103859305,-0.18812561,0.16592407,1.68367
73,1778325697690,2.015136488888889,-0.1307115942222222,-0.0618678277777777,-0.3779720766666666,0.2182413744444444,1.5210384666666663
74,1778325697700,1.6532267,-0.3417533,-0.022587985,-0.58226013,0.2969513,1.3651581
75,1778325697710,1.4922567444444443,-0.4110661177777778,-0.0198766934444444,-0.6073659255555556,0.3192087844444444,1.3992564111111112
76,1778325697720,1.2416236,-0.5229658,0.01011653,-0.50823975,0.08123779,1.5063019
77,1778325697730,1.1671853,-0.5603071,0.06356584,-0.37331135,-0.2170478011111111,1.5209774555555555
78,1778325697740,1.0012947,-0.5908409,0.0680399555555555,0.0219116266666666,-0.5779419111111112,1.5402136777777775
79,1778325697750,0.69126045,-0.6197759288888889,0.0231593461111111,0.5002187133333333,-0.9987725222222222,1.6658664
80,1778325697760,0.499543335,-0.561551568,-0.0177309916,0.66195984,-1.1392456000000002,1.84581302
81,1778325697770,0.38138986,-0.4754828044444444,-0.0422749143333333,0.688010311111111,-1.1688639333333333,2.009528233333333
82,1778325697780,0.31286427,-0.4211939,-0.05821982,0.6225586,-1.0756531,2.1246948
83,1778325697790,0.2563778911111111,-0.3388657422222222,-0.0691216733333333,0.4640638577777777,-0.8030633,2.249447288888889
84,1778325697800,0.2301277199999999,-0.27378404,-0.07432788,0.25131226,-0.4657898,2.3888702
85,1778325697810,0.2759836,-0.2343279111111111,-0.0570276655555555,0.1609412311111111,-0.3338165322222222,2.417051611111111
86,1778325697820,0.3687525,-0.18336055,-0.011483755,0.11654663,-0.23249817,2.3702393
87,1778325697830,0.424495134,-0.1212484131999999,0.0228804046,0.318261719,-0.273661807,2.1973968800000003
88,1778325697840,0.4378072844444445,-0.0562342244444444,-0.0120658315555555,0.5816650333333333,-0.3564758422222222,2.0190498
89,1778325697850,0.42793667,-0.010202079,-0.08884939,0.7349396,-0.44181824,1.9158936
90,1778325697860,0.4277742144444444,-0.0053750547777777,-0.1487248811111111,0.8179694288888889,-0.6127353244444445,1.8044569666666668
91,1778325697870,0.42720562,0.01151953,-0.3582891,0.80044556,-0.8348999,1.6186829
92,1778325697880,0.41318445,0.0752600957777777,-0.4331458311111111,0.3950534377777777,-0.7676730777777778,1.4797363
93,1778325697890,0.4269063077777777,0.1190951122222222,-0.4428949288888889,0.0309075266666666,-0.6422085355555556,1.3769344555555556
94,1778325697900,0.41670957,0.15770993,-0.4510302,-0.41555786,-0.4599304199999999,1.2879181
95,1778325697910,0.4757171522222221,0.1451821317777777,-0.3803624133333333,-0.915698568888889,-0.3244696722222222,1.2069668111111111
96,1778325697920,0.5305488977777778,0.1232842357777777,-0.3091108333333333,-1.3822800888888889,-0.1840922022222222,1.1348826
97,1778325697930,0.6251627111111111,0.1287085477777777,-0.1960858866666666,-1.6340434,-0.0823008233333333,1.1125132333333334
98,1778325697940,0.8447453,0.2230370366666666,-0.0480514446666666,-1.7664897000000002,-0.1007639566666666,1.0674133
99,1778325697950,1.0103791,0.28413233,0.017193746,-1.7402039000000002,-0.2229156499999999,1.0098877
100,1778325697960,1.391068188888889,0.3996257477777778,0.0988715555555555,-1.5669318333333333,-0.4920026988888888,0.7468922844444444
101,1778325697970,1.7438939666666666,0.4986181133333334,0.1100571866666666,-1.4962666666666666,-0.5360870333333333,0.4264831566666667
102,1778325697980,2.1638352,0.5872922666666667,0.0696252856666666,-1.5877024333333334,-0.307769774,-0.10206604
103,1778325697990,2.4850412222222222,0.6352628,0.0227936472222222,-1.801817166666667,0.1035359695555555,-0.7479773666666667
104,1778325698000,2.673629,0.6448479,-0.028934147,-2.0528717,0.57870483,-1.4290314
105,1778325698010,2.6323293666666667,0.6160904077777778,-0.0565798775555555,-2.195851655555556,0.849878961111111,-1.8633066666666664
106,1778325698020,2.4088275,0.55784327,-0.09177827,-2.5583344,1.4996338,-3.108429
107,1778325698030,2.173108777777778,0.48436706,-0.0152527377777777,-2.4932335555555554,1.3139207444444445,-3.5600975555555556
108,1778325698040,2.0158954,0.3831780866666666,0.20625703,-2.1846008,0.7834167666666666,-3.960637333333333
109,1778325698050,2.0378602,0.34453598,0.38181657,-1.884552,0.4812317,-4.068222
110,1778325698060,2.2406314333333333,0.2690819666666666,0.49957368,-1.278066,0.4128825,-4.212570166666667
111,1778325698070,2.4804583,0.19907819,0.5694966,-0.6680298,0.4492798,-4.387268
112,1778325698080,2.651081722222222,0.1209256874222222,0.4406335133333333,-0.2574208588888889,0.7621137866666667,-4.661704211111111
113,1778325698090,2.805665,0.0044407584,0.22574142,0.1096191399999999,1.1970978,-5.0088654
114,1778325698100,2.8703399,-0.11892989,-0.023808999,0.32321167,1.5800629,-5.3342896
115,1778325698110,2.849567377777778,-0.2362120544444444,-0.2140509611111111,0.4259558766666667,1.6798943222222222,-5.6159329
116,1778325698120,2.807617,-0.31527364,-0.35072348,0.47607422,1.6397095,-5.8243103
117,1778325698130,2.7082992444444445,-0.3796769866666667,-0.4655112644444444,0.41974216,1.447911611111111,-5.992628288888889
118,1778325698140,2.532469022222222,-0.4670499333333333,-0.5950106466666667,0.2521430075555556,1.1869252777777777,-6.1702914444444446
119,1778325698150,2.417247,-0.5156444,-0.6372465,0.049972534,1.0990906,-6.2179413
120,1778325698160,2.2715202,-0.538830292,-0.6434449,-0.2454361038,1.13706819,-6.230456569999999
121,1778325698170,2.034687,-0.56396854,-0.63382924,-0.71170044,1.3062897,-6.2088776
122,1778325698180,1.861420922222222,-0.5487415977777778,-0.5972888422222222,-1.0606299422222225,1.5267384888888889,-6.108330611111111
123,1778325698190,1.6769004,-0.5140579,-0.5429189,-1.4749603,1.825592,-5.9521484
124,1778325698200,1.5244043333333337,-0.4699649766666667,-0.4469212533333333,-1.8079172333333335,2.1679077333333336,-5.771175733333333
125,1778325698210,1.4685015888888888,-0.4470365266666667,-0.4076692311111111,-1.970247011111111,2.3638628444444443,-5.666302
126,1778325698220,1.4130743,-0.41850922,-0.35560444,-2.0635223,2.5153656,-5.57399
127,1778325698230,1.405603511111111,-0.3532242744444444,-0.2890988266666666,-2.0675455333333335,2.6307033555555557,-5.492663933333334
128,1778325698240,1.45893242,-0.242837164,-0.149986272,-1.96402743,2.7391128,-5.4367690699999995
129,1778325698250,1.4792132666666666,-0.24128277,-0.0598073953333333,-1.6873016666666667,2.814341333333333,-5.508295700000001
130,1778325698260,1.477613911111111,-0.25760789,-0.0094774202222222,-1.4188520666666666,2.883226222222222,-5.555167277777778
131,1778325698270,1.4831184,-0.23473336,0.03769434,-1.1479187,2.97023,-5.567581
132,1778325698280,1.539278,-0.1519850666666666,0.0704939088888888,-0.7311723377777777,3.109246144444444,-5.581856555555556
133,1778325698290,1.5687821,-0.1296271155555555,0.0513351342222222,-0.37537638,3.2141689555555555,-5.589306155555556
134,1778325698300,1.5687215,-0.118965662,-0.0381961224,-0.0888381973,3.39175264,-5.46154328
135,1778325698310,1.6095799222222222,-0.0388790577777777,-0.1171060622222222,0.0336931025555555,3.4454498000000005,-5.274285222222222
136,1778325698320,1.6972781,0.07729253,-0.15022986,0.08673096,3.401123,-5.097809
137,1778325698330,1.8072397333333332,0.1074748244444444,-0.1387182748888888,0.1179775666666666,3.291995588888889,-5.050106555555555
138,1778325698340,2.0927732,0.13879587,-0.030886214,0.2315979,3.0708923,-5.064789
139,1778325698350,2.1573129333333334,0.1465512522222222,0.1147354108888888,0.4146474177777777,3.0123680666666663,-5.186052177777778
140,1778325698360,2.1559036,0.1756487188888889,0.3550783566666666,1.0443284666666666,2.889210988888889,-5.516342133333334
141,1778325698370,2.0240712,0.19273204,0.4272102999999999,1.5509338,2.7864685,-5.613388
142,1778325698380,1.905215322222222,0.22158547,0.3485152888888889,1.8191985666666664,2.7442168999999996,-5.4997609
143,1778325698390,1.7205863,0.26094705,0.20243326,2.3557281,2.6597137,-5.2725067
144,1778325698400,1.5828968555555556,0.30730395,-0.0902050366666666,2.339935233333333,2.742026411111111,-4.954411633333333
145,1778325698410,1.3611034333333334,0.4392987777777777,-0.4336077888888889,2.066987711111111,2.782441811111111,-4.675433488888888
146,1778325698420,1.0885999355555556,0.6314940222222222,-0.5674862111111111,1.4314964799999998,2.6462148333333335,-4.348753222222222
147,1778325698430,0.9327381275,0.72207725625,-0.5749201374999999,0.8943958275,2.5431919250000004,-3.9889431
148,1778325698440,0.8582096,0.7655354,-0.5512156,0.3738098,2.3875275,-3.6277466
149,1778325698450,0.8446649214285714,0.6909229314285714,-0.4295185714285714,-0.1663578585714285,2.2718767142857144,-3.3687395
150,1778325698460,0.7497874625000001,0.574895845,-0.2993798425,-0.573745725,2.2908610625,-3.27780905
151,1778325698470,0.4850630528571429,0.4900297628571429,-0.1953284945714286,-0.7487574857142857,2.3085500857142853,-3.2234060857142857
152,1778325698480,0.1636492488888888,0.453480671111111,-0.0885377824222222,-0.8254496177777777,2.2743700111111114,-3.080674933333333
153,1778325698490,-0.11045434,0.4363018,0.0018183001,-0.8150329600000001,2.1531677,-2.76062
154,1778325698500,-0.2674105666666666,0.4318546444444444,0.0780185711666666,-0.6701558444444444,1.9268561444444443,-2.2793578666666665
155,1778325698510,-0.46360585,0.4262957,0.17326891,-0.4890594499999999,1.6439667,-1.6777802
156,1778325698520,-0.4618421644444445,0.42858722,0.1907056511111111,-0.2760637079999999,1.405897333333333,-1.1993577688888888
157,1778325698530,-0.38392003,0.4099839,0.1618795166666666,0.0258229559999999,1.0983887,-0.5988464333333333
158,1778325698540,-0.33779317,0.3883447,0.13251193,0.1415863,0.9978943,-0.39041138
159,1778325698550,-0.2513158288888888,0.35393268,0.0693682960555555,0.24509345,0.9281785788888888,-0.1775326214444444
160,1778325698560,-0.16988273,0.32781819,0.0093839215,0.32214355,0.87112427,-0.011703491
161,1778325698570,-0.0716495944444444,0.3046329166666667,-0.0420314037777777,0.3525136333333333,0.7990468266666667,0.0099639899999999
162,1778325698580,0.0292687376666666,0.2869791066666666,-0.1109501822222222,0.3650529666666666,0.7110951555555556,-0.0437774655555555
163,1778325698590,0.056603726,0.29096535,-0.14986277,0.3530426,0.6170654,-0.12249756
164,1778325698600,0.0252012820888888,0.2747494522222222,-0.1597891877777777,0.3175913466666666,0.3871442911111111,-0.2394951699999999
165,1778325698610,-0.0036785968,0.261801,-0.15682021,0.29444885,0.22877502,-0.29986572
166,1778325698620,-0.0320306662222222,0.2469538788888889,-0.112089443111111,0.2761094866666667,0.0643090144444444,-0.2902153844444444
167,1778325698630,-0.0470941631111111,0.2246090555555555,-0.0494611821111111,0.2642161044444445,-0.1017659488888889,-0.2316809766666666
168,1778325698640,-0.033210028,0.1916339,-0.018439647,0.26515198,-0.15100098,-0.16777039
169,1778325698650,-0.0152575777777777,0.1802446733333333,-0.0214765416666666,0.2623138433333333,-0.1630757666666666,-0.1510772733333333
170,1778325698660,0.06660982,0.14880197,-0.048823457,0.2358551,-0.2346343999999999,-0.11715698
171,1778325698670,0.1441526022222222,0.1741845388888888,-0.0573252772222222,0.2140197766666666,-0.34346009,-0.1581776966666666
172,1778325698680,0.2147927166666666,0.2218979333333333,-0.0469932333333333,0.2031911233333333,-0.4991658466666667,-0.2226257333333333
173,1778325698690,0.2977726055555555,0.27366478,-0.0095985702222222,0.2110087066666666,-0.6580708666666667,-0.30323283
174,1778325698700,0.3516692,0.29535788,0.027078517,0.2230835,-0.789093,-0.37283325
175,1778325698710,0.4013490044444444,0.3092420044444444,0.0739378085555555,0.2510104688888889,-0.8568013555555556,-0.4215935611111111
176,1778325698720,0.4479903611111112,0.3503526,0.2639768733333333,0.4952511222222222,-0.7493862644444444,-0.593043
177,1778325698730,0.43493302,0.3979977233333333,0.4789775022222222,1.0509084,-0.3966573177777778,-0.9293094
178,1778325698740,0.3129619469999999,0.392591671,0.441365503,1.4196854,-0.1937194854,-0.94455568
179,1778325698750,0.1163572066666666,0.40595792,0.3220615366666666,2.0553335,0.0121612546666666,-0.7630717
180,1778325698760,0.07063684,0.44020748,0.25087875,2.3259125,0.00932312,-0.5432739
181,1778325698770,0.1060934255555555,0.4886785555555555,0.0322841988888888,2.636735688888889,-0.2597774888888888,-0.213104246
182,1778325698780,0.2225220088888889,0.5186843888888889,-0.2270405466666666,2.8227319,-0.8428276788888889,0.0459340423333333
183,1778325698790,0.3072501866666666,0.52794578,-0.47974814,2.756986811111111,-1.6511908444444443,0.2374504944444444
184,1778325698800,0.3461366866666666,0.5142237533333334,-0.6320944111111111,2.5735846222222225,-2.1165924222222223,0.3490668377777777
185,1778325698810,0.33958814,0.4644909,-0.7131485,2.2827606,-2.4509125,0.47459412
186,1778325698820,0.2249759599999999,0.375342,-0.7227614111111111,1.8856591,-2.4565955555555554,0.6938018844444445
187,1778325698830,-0.03174481,0.21543045,-0.7199815,1.1077881,-2.3374634,1.1510315
188,1778325698840,-0.1729458966666666,0.1426739068888888,-0.6788983888888889,0.8491024518888889,-2.2062530555555555,1.408594777777778
189,1778325698850,-0.5252161866666667,-0.0712564168888889,-0.5788616222222223,-0.1344434978888889,-1.694278288888889,2.708392688888889
190,1778325698860,-0.64030296,-0.20532636,-0.5628082,-0.433136,-1.6018982,3.4072723
191,1778325698870,-0.6315301288888889,-0.2212301355555555,-0.5976813377777778,-0.6846584888888889,-1.7275984,4.324934211111111
192,1778325698880,-0.5624616711111111,-0.1997929988888888,-0.6514414133333334,-1.0041199,-1.9150848,5.4973145
193,1778325698890,-0.065133088,-0.0690926028,-0.55722016,-1.36449586,-2.09064026,6.6392854
194,1778325698900,0.6723194266666667,0.051585902,-0.3704919733333333,-1.6581929333333332,-2.0643971666666667,7.484217333333333
195,1778325698910,1.1498578,0.13025343,-0.23382032,-1.7540588,-1.8975067,7.719986
196,1778325698920,1.8719826222222224,0.31473406,-0.1086854698888888,-1.6297793888888887,-1.7336951333333337,7.396382633333333
197,1778325698930,2.239600655555555,0.4844488144444445,-0.0416377075555555,-1.413350433333333,-1.7455291888888889,6.950449611111111
198,1778325698940,2.3315423,0.7725722133333333,-0.0192116606666666,-0.9039866433333336,-2.172877,6.2579193
199,1778325698950,2.2211467000000003,1.016250011111111,-0.059101582,-0.3021087613333333,-2.8385468,5.475662277777778
200,1778325698960,1.7229857333333334,0.93556179,-0.1710560533333333,0.0654144293333333,-3.319631,5.122873966666667
201,1778325698970,1.3830299,0.909418838,-0.239688347,0.154956056,-3.49210212,5.23131865
202,1778325698980,1.3246028,0.9238068499999998,-0.25846925,0.11708069,-3.6253662,5.555374
203,1778325698990,1.5852562666666667,0.9382868833333332,-0.3111047277777777,-0.0266096322222222,-3.489010222222222,5.548629688888889
204,1778325699000,2.132514688888889,1.0233413333333334,-0.4984596333333332,-0.39637756,-3.0746307,5.2927856
205,1778325699010,2.1637393333333335,1.070294711111111,-0.6782739666666666,-0.7818264666666666,-2.869555966666667,4.933795444444445
206,1778325699020,1.8928908,1.0736572,-0.9635513,-2.041687,-2.5414581,4.056015
207,1778325699030,1.5347354,0.90660065,-0.9639168,-3.1479645,-2.4530334,3.6719818
208,1778325699040,1.4320012555555557,0.8238110566666667,-0.8536707044444445,-3.523824077777778,-2.453567477777778,3.5991923000000003
209,1778325699050,1.1702371,0.53160626,-0.29239324,-4.669159,-2.5265503,3.401947
210,1778325699060,1.1680813111111112,0.4827000044444445,-0.0107782817777777,-4.7477468,-2.630823744444444,3.255591511111111
211,1778325699070,1.0798136,0.37919256,0.81221086,-4.334671,-2.8961945,2.8357544
212,1778325699080,0.9018955,0.33196652,1.0978799,-3.5959014999999996,-2.8993835,2.6743622
213,1778325699090,0.8813949,0.3367256233333333,1.1570231666666666,-3.510384466666667,-2.8746456222222223,2.658087844444444
214,1778325699100,0.6663813,0.33819136,1.258836,-1.90234984,-2.44968262,2.3753982099999997
215,1778325699110,0.5470499611111111,0.3399123811111111,1.1028282955555555,-1.1238403155555554,-2.304375577777778,2.2882656999999997
216,1778325699120,0.3987994844444444,0.3485908266666666,0.694751338888889,0.3362901466666666,-2.2482673111111113,2.291700611111111
217,1778325699130,0.4074361,0.3802907,0.4540570699999999,0.6859436,-2.2921906,2.2871552
218,1778325699140,0.4149204888888889,0.4038019133333333,0.2106639188888889,0.65942384,-2.381790177777778,2.1973080444444446
219,1778325699150,0.4046301,0.40396437,-0.25444224,0.3430413162222222,-2.4635162444444445,2.0366329555555556
220,1778325699160,0.4504304822222222,0.4021066511111111,-0.2631467966666667,-0.0427754724444444,-2.376695388888889,1.9416469888888888
221,1778325699170,0.55608008,0.4280315644444444,0.1180711244444444,-0.6271887933333333,-1.892003366666667,1.6816542222222222
222,1778325699180,0.5317836,0.3950564,0.39792308,-0.73088074,-1.5709991,1.4993896
223,1778325699190,0.4676506955555555,0.3753148622222222,0.4343423044444444,-0.6796264655555555,-1.158801588888889,1.3996056222222224
224,1778325699200,0.34837478,0.34307232,0.43380067,-0.56095886,-0.57977295,1.317215
225,1778325699210,0.3292974099999999,0.3435602066666667,0.4199708033333333,-0.56095886,-0.57977295,1.317215
226,1778325699220,0.1544709993333333,0.4231226333333333,0.3500074633333333,-0.1450856522222222,-0.7265387744444445,1.7426181777777776
227,1778325699230,0.3616483071111111,0.76598254,0.3205308233333333,0.2029537644444444,-0.9176940888888888,2.4149186888888887
228,1778325699240,1.3499843,1.4824937,0.3336557266666666,0.70605638,-1.175259022222222,3.753712955555556
229,1778325699250,2.1949105,1.8428043,0.36717218,0.9666289999999998,-1.0969543,3.9968872
230,1778325699260,3.47091523,2.24427796,0.136013053,1.19747317,-0.8203613219999999,3.1717361100000003
231,1778325699270,4.3134092,2.6339151333333333,-0.3136668666666666,1.1979675333333335,-0.4826609266666666,1.230051673333333
232,1778325699280,4.088741711111111,2.724745311111111,-0.5635005333333333,0.9041900588888888,-0.3184882285555555,-0.03494941
233,1778325699290,3.3695320777777775,2.616384211111111,-0.6608246044444445,0.2454477966666667,0.0128156871111111,-0.9932234
234,1778325699300,2.8206735,2.4029155,-0.57513344,-0.38093567,0.49668884,-1.3757782
235,1778325699310,2.5069927888888888,2.2341625777777776,-0.5126690155555556,-0.7899966844444444,0.9767693644444444,-1.4364980111111112
236,1778325699320,2.28596898,2.02538248,-0.4941066239999999,-1.4013458799999998,1.58740848,-1.41039428
237,1778325699330,2.3070557,1.893202,-0.5170474,-1.5713654,1.693512,-1.421051
238,1778325699340,2.2959640111111113,1.647978377777778,-0.4933197888888888,-2.0767805333333333,2.0810343777777778,-1.648898688888889
239,1778325699350,2.2479928,1.4713485,-0.4143002,-2.3676605,2.4051056,-1.8295746
240,1778325699360,2.2265441111111115,1.3603568555555556,-0.1337970555555555,-2.2813703444444444,2.574069577777778,-2.0038655666666667
241,1778325699370,2.2620815666666667,1.3033831222222223,0.2108662866666666,-1.9913160222222224,2.7132093666666663,-2.2968139888888888
242,1778325699380,2.2371051888888887,1.2289729222222223,0.3994150822222222,-1.4776306,2.5148315,-2.5619507
243,1778325699390,2.1576918666666667,1.1183608355555554,0.46602906,-0.0711246022222222,2.177018822222222,-3.1167721444444445
244,1778325699400,2.059459,0.99165326,0.34008121,0.72055054,1.9603577,-3.427475
245,1778325699410,1.7753369666666667,0.8590506000000001,-0.0574467733333333,1.4530996,1.5436605,-3.703552266666667
246,1778325699420,1.5819615,0.7754202,-0.33461544,1.7080536,1.2578125,-3.8019104
247,1778325699430,1.4686778666666669,0.7028935333333334,-0.58274002,1.5267792,1.0960795333333335,-3.809549933333334
248,1778325699440,1.4592145555555556,0.6430176444444444,-0.7814568222222222,1.063746146666667,1.1074371333333333,-3.764806066666667
249,1778325699450,1.5121615,0.6393572,-0.8183361,0.74772644,1.201889,-3.747055
250,1778325699460,1.62320675,0.6220442937499999,-0.8693591625,0.35423850875,1.3490963125,-3.8433895125
251,1778325699470,1.8132060999999997,0.54881245,-0.9253561,-0.31436157,1.6231995,-4.0746155
252,1778325699480,1.86067545,0.416533815,-0.8586062499999999,-0.8074035666666667,1.8600413,-4.366149933333333
253,1778325699490,1.8525517428571427,0.3114146071428571,-0.7910896042857143,-1.2045419142857143,2.049227028571429,-4.674976928571428
254,1778325699500,1.786969,0.16027327,-0.69642913,-1.3780212,2.1126862,-4.9023285
255,1778325699510,1.646080922222222,-0.0334416189444444,-0.5415753522222223,-1.3284250666666668,2.0064053222222222,-5.117163711111111
256,1778325699520,1.5499896,-0.14894818,-0.44419718,-1.2123718,1.8825989,-5.2165833
257,1778325699530,1.4563396,-0.2509095044444444,-0.3619495577777777,-0.8776431433333334,1.6100667333333334,-5.209893077777778
258,1778325699540,1.3881395666666667,-0.34736686,-0.30183055,-0.3301544166666667,1.1576792,-5.150894133333334
259,1778325699550,1.4126265888888887,-0.40941202,-0.3133282988888889,0.0863630499999999,0.790047528888889,-5.059399
260,1778325699560,1.4720951,-0.4651654466666666,-0.3498280733333334,0.34611511,0.5190582266666666,-4.977961133333333
261,1778325699570,1.5247309,-0.5155231,-0.3851343,0.49632263,0.3368988,-4.9151154
262,1778325699580,1.5649176,-0.5834519,-0.4494851233333333,0.5868632,0.1550954166666666,-4.814982133333333
263,1778325699590,1.5759819,-0.6454426000000001,-0.5010217533333334,0.5545501666666667,0.010396321,-4.699935933333333
264,1778325699600,1.54454806,-0.767047936,-0.5125089199999999,0.40428162,0.0046386718,-4.54909364
265,1778325699610,1.506697333333333,-0.8719006911111111,-0.4827174322222222,0.3100721611111111,0.0769093822222222,-4.420179622222222
266,1778325699620,1.4288152,-0.9914339,-0.41600809,0.25183105,0.2511444,-4.2530518
267,1778325699630,1.2583278,-1.067091188888889,-0.3998187922222222,0.2688802122222222,0.3703392844444444,-4.1047432
268,1778325699640,0.8527998466666666,-1.1768900555555557,-0.4072352677777778,0.3165825844444445,0.4260304733333333,-3.7372877666666664
269,1778325699650,0.54557246,-1.2066917,-0.4205235,0.37167358,0.21226501,-3.3880615
270,1778325699660,0.28730574,-1.212223611111111,-0.4443859,0.4928758200000001,-0.3445248122222222,-2.821818033333334
271,1778325699670,0.2550224,-1.2129151,-0.4473686999999999,0.5222337444444445,-0.4827745266666666,-2.6873576000000003
272,1778325699680,0.0631932177777777,-1.192699311111111,-0.4570497066666667,0.6482967822222222,-1.4563107,-1.6479492368888886
273,1778325699690,-0.24871203,-1.1944894,-0.48422155,0.7977905,-2.9478607,0.099624634
274,1778325699700,-0.4061974622222222,-0.9909052766666668,-0.4579587755555555,0.6629146933333333,-3.294891322222222,1.2002749964444446
275,1778325699710,-0.2772811848888888,-0.8186003788888889,-0.4474910577777777,0.3910369866666667,-3.5340983222222224,2.645601077777778
276,1778325699720,-0.038579382,-0.7027131,-0.4517628,0.16235352,-3.4682312,3.3428192
277,1778325699730,0.2564997375555555,-0.5226680222222222,-0.37851871,-0.0987582733333333,-3.2120412,3.967420733333334
278,1778325699740,0.38010094,-0.4076492,-0.33229628,-0.2850647,-2.97023,4.409149
279,1778325699750,0.489695129,-0.21828483,-0.279701997,-0.395632934,-2.82529292,4.84553983
280,1778325699760,0.7002379111111111,-0.0295495802222222,-0.1807237466666666,-0.4474487344444444,-2.799190888888889,5.355222944444445
281,1778325699770,0.9208111,0.067165114,-0.07945302,-0.31488037,-2.952118,5.6246185
282,1778325699780,1.1321642333333333,0.18772941,0.0043671377777777,-0.0958489336666666,-3.054618044444444,5.643792
283,1778325699790,1.5692707,0.4231226,0.14776449,0.4909972999999999,-3.3025818,5.651245
284,1778325699800,1.7417787,0.5378837888888888,0.0327596488888888,0.79937744,-3.1429748666666666,5.294204799999999
285,1778325699810,1.5705316666666669,0.7305942,-0.3255846066666666,0.8441263666666666,-2.855178866666667,4.9870556666666666
286,1778325699820,1.3917191777777775,0.8482291,-0.5353927111111111,0.5502386933333334,-2.7821435333333335,5.035002111111111
287,1778325699830,1.3787696666666664,0.8728519444444445,-0.6349415422222222,0.0678490544444444,-2.866768755555555,5.137205422222221
288,1778325699840,1.4560275,0.8653537,-0.61662304,-0.3170166,-2.922287,5.1425934
289,1778325699850,1.5457734666666667,0.8860859333333333,-0.5300915933333333,-0.8388824555555556,-2.928673611111111,5.0010256222222225
290,1778325699860,1.5604577666666666,0.8652733888888888,-0.4369433077777777,-1.2934587333333334,-2.9180195555555555,4.801642533333332
291,1778325699870,1.4625769333333334,0.78257831,-0.2885290166666666,-1.8126525666666669,-2.8223267,4.5407104
292,1778325699880,1.4371134,0.77078193,-0.19367151,-2.0651245,-2.7502441,4.411804
293,1778325699890,1.430646,0.77236843,-0.16182248,-2.0651245,-2.7502441,4.411804
294,1778325699900,1.325240588888889,0.8189297844444445,0.0978821333333333,-2.394227755555556,-2.559385522222222,4.046900355555556
295,1778325699910,1.26378388,0.92058524,0.4207182559999999,-2.4766296399999996,-2.38752748,3.73569028
296,1778325699920,1.2757918,0.9755468,0.5680314,-2.4012146,-2.3214874,3.5942230000000004
297,1778325699930,1.2159434777777778,1.101005288888889,0.8869056333333334,-2.083941988888889,-1.9634365444444444,3.1791246444444443
298,1778325699940,1.1125165,1.1458976,0.9787805,-1.5969391,-1.4170685,2.556656
299,1778325699950,0.8768252,1.181096388888889,0.92249805,-1.063117151111111,-1.2337866666666666,2.0840318555555557
300,1778325699960,0.4484232822222222,1.2583811111111112,0.7851615422222221,-0.4394616,-1.2626037444444445,1.6260274222222222
301,1778325699970,0.2716588066666666,1.3035997999999998,0.6409639933333333,-0.1927337653333333,-1.4307454,1.5831807333333332
302,1778325699980,0.21121368,1.3395582,0.5564387,-0.121017456,-1.520935,1.6250916
303,1778325699990,0.23769335,1.3611571,0.5431382,-0.13059998,-1.5177307,1.6309509
304,1778325700000,0.6240057062500001,1.5205112625,0.4658322675,-0.37427901625,-1.132112475,1.2161579
305,1778325700010,0.7752298844444444,1.5548705555555555,0.3881746666666666,-0.6429917833333333,-0.7618221833333334,0.6651085888888889
306,1778325700020,0.75277776,1.531875,0.33849624,-0.82196045,-0.59895325,0.3313141
307,1778325700030,0.3529710766666667,1.4203406666666667,0.4134208733333333,-1.4614664333333334,-0.2861175533333333,-0.4562784866666666
308,1778325700040,0.15593517,1.4017926,0.52641886,-1.6752319,-0.15473938,-0.6029358
309,1778325700050,-0.0052793094444444,1.4611932333333333,0.73331208,-1.7908121444444445,0.1039513494444444,-0.5007832888888889
310,1778325700060,-0.07286888,1.5894727,0.948882,-1.7812195,0.41412354,-0.2897339
311,1778325700070,0.2245960899999999,1.9024765,1.057041,-1.5173323222222224,0.7928924577777777,-0.0080329033333333
312,1778325700080,0.799483125,2.309289425,1.00489465,-1.0303459,1.47234345,0.2562217675
313,1778325700090,1.60244655,2.6853501875,0.775770175,-0.73500061,1.99245455,0.1410369875
314,1778325700100,2.2479662444444446,2.921943411111111,0.5655507644444444,-0.5200653088888889,2.3000674666666665,-0.2903391555555555
315,1778325700110,2.8381238,3.0719986,0.33776364,-0.35643005,2.3406677,-0.89268494
316,1778325700120,3.291094933333333,3.058792133333333,0.0630629199999999,-0.1599511055555555,2.0333896333333334,-1.8573387711111111
317,1778325700130,3.3362456666666667,2.8380699,-0.2480965966666666,0.12649536,1.3994954333333334,-3.509857166666667
318,1778325700140,3.1449046,2.6816287,-0.38769767,0.1612854,1.2024231,-3.9931335
319,1778325700150,3.1449046,2.6816287,-0.38769767,0.1612854,1.2024231,-3.9931335
320,1778325700160,2.9928569777777776,2.5909750000000003,-0.4556676288888888,0.0027974444444444,1.2092285222222223,-3.9929554888888887
321,1778325700170,1.8039319666666669,1.8319028333333336,-0.9347928833333334,-1.4124688,1.3964776111111112,-3.868081
322,1778325700180,1.9626902666666668,1.7570176000000002,-0.7350728333333333,-1.9910871666666663,1.9910210222222224,-3.383093911111111
323,1778325700190,2.2856597333333335,1.7265508333333337,-0.5258340399999999,-2.224199111111111,2.619399955555556,-3.1981438555555557
324,1778325700200,2.5344903666666667,1.6803165,-0.36886397,-2.2278120444444447,3.261691655555556,-3.236377288888889
325,1778325700210,2.6807077,1.5675069,-0.20648517,-1.8888092,3.5183105,-3.5355988
326,1778325700220,2.52308242,1.32294923,-0.114365788,-1.1501602050000002,3.4037399,-3.89987032
327,1778325700230,2.2065982444444447,1.0003719222222225,-0.0864768411111111,-0.1533186144444444,3.0956352222222225,-4.2312741
328,1778325700240,1.8804839111111111,0.7505397033333333,-0.2070407933333333,0.6023067911111111,2.7171036666666666,-4.324596833333334
329,1778325700250,1.6240883666666668,0.5687304466666667,-0.3812025188888889,1.079427088888889,2.328937077777778,-4.292231222222223
330,1778325700260,1.4544425,0.4225129,-0.54596907,1.3469238,1.9113617,-4.192337
331,1778325700270,1.4544425,0.4225128999999999,-0.54596907,1.35539396,1.87668763,-4.18152463
332,1778325700280,1.309308988888889,0.1230279355555555,-0.7312355855555555,1.3783569,1.2279968,-3.9803467
333,1778325700290,1.2259497222222222,0.0100695197111111,-0.7589769,1.2602267666666669,1.1232435333333337,-3.923058411111111
334,1778325700300,1.0626074,-0.1667641,-0.7579325,0.9756775,0.9201355,-3.785400399999999
335,1778325700310,1.0439504222222225,-0.1826004644444444,-0.753918811111111,0.8876241044444444,0.8874613666666666,-3.733791777777778
336,1778325700320,0.8833065355555556,-0.3227715033333333,-0.6349684777777778,0.4627583855555556,0.6897328777777777,-3.389002488888889
337,1778325700330,0.841552525,-0.38107735,-0.572601975,0.2690124525,0.59814835,-3.17966075
338,1778325700340,0.8458997500000001,-0.4284390999999999,-0.4915134,0.1315975215,0.57798385,-2.9693412500000003
339,1778325700350,0.8614132375,-0.4623026,-0.41285094,-0.01401329125,0.6076774625,-2.7379837
340,1778325700360,0.8685828,-0.4779376,-0.37708184,-0.0736084,0.6399689,-2.6514282
341,1778325700370,0.8575594666666667,-0.4770017533333333,-0.3377470266666666,-0.1337941466666666,0.66889955,-2.5974579
342,1778325700380,0.8375877,-0.47256824,-0.29873782,-0.18492126,0.6969452,-2.5651398
343,1778325700390,0.7904840333333333,-0.4940036466666667,-0.2927188366666666,-0.2256401888888888,0.6947089444444444,-2.5765652111111113
344,1778325700400,0.7256868111111111,-0.5195484822222222,-0.2832811666666666,-0.26748657,0.6495514,-2.569931
345,1778325700410,0.6671811222222223,-0.5504368022222222,-0.2579405888888889,-0.27174377,0.530777,-2.520401
346,1778325700420,0.6130549,-0.6100949,-0.23223378,-0.27174377,0.530777,-2.520401
347,1778325700430,0.5886620777777778,-0.6493873777777778,-0.2067969466666666,-0.1706644711111111,0.2510884611111111,-2.3201903999999995
348,1778325700440,0.5546836666666667,-0.7258185333333333,-0.150108008,0.0241597482222222,0.0401611335555555,-2.114359533333334
349,1778325700450,0.5160285833333333,-0.8074289388888889,-0.0894466742222222,0.3796674922222222,-0.2291208911111111,-1.8382195777777777
350,1778325700460,0.4479365922222222,-0.8869640266666666,-0.0375158095222222,0.8414645733333334,-0.4620073077777778,-1.5983513444444446
351,1778325700470,0.2961865788888889,-0.9532392444444444,-0.0082294453888888,1.4545830444444443,-0.7129296055555555,-1.3441128111111111
352,1778325700480,0.22012164,-0.9739835,-0.011483755,1.7789001,-0.8567352,-1.2186432
353,1778325700490,-0.1181006708333333,-1.0252630333333332,-0.1025980216666666,2.4574161333333335,-1.4261864888888889,-0.7891608444444445
354,1778325700500,-0.4916198571428571,-1.0645286142857142,-0.2399387185714285,3.0210702428571428,-2.0813380857142856,-0.2196480971428571
355,1778325700510,-1.02510784,-1.03329006,-0.66899755,3.3570830999999997,-3.3096160599999997,1.3203094480000002
356,1778325700520,-1.071613,-0.99454604,-0.7710195,3.31820295,-3.94787215,2.3314819250000003
357,1778325700530,-1.056787,-0.90064496,-0.9157155,3.0865173,-4.5255127,3.5095367
358,1778325700540,-0.610446256111111,-0.5662455233333333,-0.9804580777777778,2.2782067111111113,-4.791469944444445,5.2850902444444445
359,1778325700550,-0.096665435,-0.23607725,-0.9504934,1.4960632,-4.7774506,6.6275635
360,1778325700560,1.468841133333333,0.3458383866666666,-0.7189647533333333,0.0627492333333333,-3.798763711111111,7.635421666666667
361,1778325700570,2.1060736,0.58883834,-0.65542954,-0.56736755,-3.290863,7.673126
362,1778325700580,2.95326952,1.0378051940000002,-0.474215314,-1.23506775,-2.7275574,7.161798
363,1778325700590,3.1392773333333333,1.5719136,-0.0888215744444444,-1.9816131777777777,-2.0497182333333335,5.776533322222223
364,1778325700600,2.9291851555555555,1.8514808777777776,0.1962650977777777,-2.2787018,-1.7579498,5.0072937
365,1778325700610,2.196050911111111,1.9665959555555557,0.5126579666666667,-2.273966488888889,-1.5635986222222222,4.5191141777777775
366,1778325700620,1.7368708888888889,1.9329291888888889,0.6412210066666667,-2.0378961111111114,-1.435421388888889,4.451936666666667
367,1778325700630,1.387814,1.8007051000000005,0.69176906,-1.7487335,-1.39151,4.562546
368,1778325700640,1.3309889,1.6796929333333337,0.6777354533333333,-1.3513912555555556,-1.368069088888889,4.755125333333334
369,1778325700650,1.4089698375,1.629208675,0.65747821625,-0.8117675999999999,-1.3010883125,5.003433225
370,1778325700660,1.61994205,1.6863632750000002,0.5867015824999999,-0.415424365375,-1.259410875,4.8660162499999995
371,1778325700670,1.7114740666666668,1.6448326,0.3612330066666667,0.0909779856666666,-1.1484425666666669,4.238891499999999
372,1778325700680,1.4681085333333332,1.5702325,0.1234396006666666,0.2568105033333333,-1.1175536666666668,3.7348429333333337
373,1778325700690,1.1229301866666668,1.5215832666666669,-0.1066248653333333,0.1815338122222222,-1.234731022222222,3.3883938444444444
374,1778325700700,0.87529296,1.5075916,-0.21270844,0.06968689,-1.3190613,3.2948914
375,1778325700710,0.7095252066666666,1.433696511111111,-0.3063312788888889,-0.2763078477777778,-1.3472951555555557,3.3100399555555553
376,1778325700720,0.6798047,1.3228406,-0.26652327,-0.70051575,-1.330246,3.3460236
377,1778325700730,0.7218359044444445,1.2802110000000002,-0.2107700344444444,-0.8747473944444445,-1.272011688888889,3.251564888888889
378,1778325700740,0.791704,1.231319,-0.14815646,-1.1423988625,-1.2183342124999998,2.9572696375
379,1778325700750,0.7976831,1.224363,-0.14132188,-1.2864075,-1.1731262,2.6631775
380,1778325700760,0.7871429249999999,1.224286575,-0.1362126825,-1.4979285875,-1.03457829125,2.3022537375
381,1778325700770,0.6972535,1.217163,-0.107765,-1.8153075999999997,-0.73902893,1.7571716
382,1778325700780,0.5667106333333334,1.1974215666666668,-0.0844300595555555,-1.999954277777778,-0.5536770377777778,1.4211409022222223
383,1778325700790,0.3136639355555555,1.1455455444444445,-0.0184382637777777,-2.2739648444444445,-0.3116743322222222,0.8655531122222222
384,1778325700800,0.14727142,1.0782955,0.03720749,-2.3383636,-0.28468323,0.55023193
385,1778325700810,0.0857278106666666,1.0465406622222222,0.0706838444444444,-2.3011932,-0.3477766255555555,0.3827480713333333
386,1778325700820,-0.1335183,0.92527056,0.225253,-2.1854858,-0.5014801,0.035705566
387,1778325700830,-0.1985453788888889,0.8477685288888889,0.3593219055555555,-1.925275988888889,-0.5352088055555556,-0.1402418326666666
388,1778325700840,-0.266162815,0.748298525,0.5028377375,-1.570636725,-0.5339031125,-0.314632415
389,1778325700850,-0.3082633,0.7013474,0.56095415,-1.1963959,-0.4812317,-0.41436768
390,1778325700860,-0.3364650055555555,0.6860938166666667,0.59112175,-0.962509171111111,-0.4379102955555555,-0.4413587822222222
391,1778325700870,-0.37034448625,0.68969352875,0.60991795375,-0.20596123,-0.3767757425,-0.4657649975
392,1778325700880,-0.2846974728888889,0.7462409733333334,0.5540929422222223,0.1930711555555555,-0.4275004055555555,-0.4795871288888889
393,1778325700890,-0.016084896,0.8885539888888889,0.3984382711111111,0.6805521777777778,-0.5215979666666666,-0.5472988544444444
394,1778325700900,0.2077964,1.0048339,0.3186038,0.8334656,-0.5547333,-0.75845337
395,1778325700910,0.3603475375,1.115741925,0.25286192,0.83846665,-0.5044689274999999,-1.00446317625
396,1778325700920,0.5569209,1.2902573,0.12555604,0.7391968,-0.355011,-1.5632629
397,1778325700930,0.5228071555555556,1.3652103333333332,0.0832657375555555,0.5874565888888889,-0.2531500964444444,-1.7924736666666663
398,1778325700940,0.2822347,1.6109501,0.045748368,0.2236023,-0.016784668,-2.0825806
399,1778325700950,0.240595441111111,1.8835065888888889,0.1549094611111111,-0.1793043333333333,0.17373318,-1.6690809555555557
400,1778325700960,0.5748456844444445,2.139361422222222,0.2793927611111111,-0.4240824444444444,0.3305664066666666,-1.0435282222222222
401,1778325700970,1.1965954,2.4402552,0.34154645,-0.5284729,0.4668579,-0.7083893
402,1778325700980,1.7662385555555558,2.639596011111111,0.3315802611111111,-0.6061774333333333,0.5129038333333333,-0.7744920611111111
403,1778325700990,2.9243574555555556,2.911191244444444,0.3251273,-0.8622555111111112,0.6141594555555555,-1.5879991222222225
404,1778325701000,3.1894445,2.8822436,0.3680261,-0.97161865,0.7140045,-2.155548
405,1778325701010,3.0264549777777776,2.647284544444444,0.5012142888888889,-1.1426595222222222,1.128928266666667,-3.1172485222222224
406,1778325701020,2.774425222222222,2.381452188888889,0.6409508533333333,-1.1893548111111112,1.4228210222222222,-3.618101344444444
407,1778325701030,2.5615315,2.16779675,0.71718171625,-1.0846081,1.6216678625,-3.747447925
408,1778325701040,2.2554366666666663,1.8081882,0.7545312533333334,-0.7493947177777778,1.9371642888888887,-3.8058149555555554
409,1778325701050,2.0659674,1.5890651333333334,0.7188589666666666,-0.3706359866666667,2.1141154,-3.7861124666666663
410,1778325701060,1.909273075,1.396484375,0.657355935,-0.004695895,2.194852825,-3.6888599125
411,1778325701070,1.7896537,1.2392501,0.59951484,0.21401978,2.2394562,-3.5883331
412,1778325701080,1.6709882,1.0539156388888888,0.4601448333333333,0.6020202644444445,2.3313073111111113,-3.3426123444444444
413,1778325701090,1.5801154125,0.90653923625,0.32536176625,0.8493270875,2.372087475,-3.193317325
414,1778325701100,1.4605839,0.7427970933333333,0.1480501743333333,1.0609656555555556,2.305567422222222,-3.094455288888889
415,1778325701110,1.3472322555555556,0.6096499999999999,0.0310104772222222,1.1578505222222222,2.2063767999999997,-3.048478877777778
416,1778325701120,1.2303965,0.4915803000000001,-0.056023553,1.1764832,2.126007,-3.0194855
417,1778325701130,1.1793273875,0.44549946,-0.083296885625,1.15604405,2.111825875,-3.0017738625
418,1778325701140,0.8412609688888889,0.178292438,-0.2334945488888888,1.1261291111111111,2.0646412888888888,-2.965384577777778
419,1778325701150,0.671398108888889,0.0731441937777777,-0.2831871444444445,0.8375549333333333,1.939585333333333,-2.7196045333333334
420,1778325701160,0.4535902533333333,-0.048464152,-0.3321474733333333,0.6699524,1.8639526,-2.5470276
421,1778325701170,0.3024911,-0.12429924,-0.35169873,0.4238739,1.7350616,-2.2082825
422,1778325701180,0.20336341,-0.1572464033333333,-0.3467363933333333,0.2152608246666666,1.6544494666666667,-1.9240316
423,1778325701190,0.0958968744444444,-0.1873599099999999,-0.3355782511111111,-0.0512949608888888,1.5730726666666668,-1.5656823444444443
424,1778325701200,0.0434651681111111,-0.1951429533333333,-0.3153211477777777,-0.337265,1.5385132,-1.1973419
425,1778325701210,0.022312673,-0.19666106,-0.27909273,-0.5753479,1.5598145,-0.9235687
426,1778325701220,0.045987904,-0.21618639,-0.2262547,-0.95510864,1.6514282,-0.546463
427,1778325701230,0.0845346202222222,-0.2256228544444444,-0.1917738833333333,-1.1236046622222222,1.7313842555555554,-0.4037187322222222
428,1778325701240,0.16716072,-0.23339102,-0.1313158,-1.4936066,1.9342651,-0.12889099
429,1778325701250,0.2172541962499999,-0.2320644325,-0.0983526925,-1.7069930749999995,2.0571708500000003,-0.040927887
430,1778325701260,0.27357095,-0.23571017,-0.06261392,-2.104538,2.2943115,0.06340027
431,1778325701270,0.2887560966666667,-0.2346262055555555,-0.0532840888888888,-2.2191077777777775,2.3724364777777778,0.0681338842222222
432,1778325701280,0.29065424,-0.23449071,-0.05211786,-2.233429,2.3822021,0.068725586
433,1778325701290,0.3697693922222222,-0.2249849455555555,0.0526363401111111,-2.709837144444444,2.8875511666666664,-0.0195736357777777
434,1778325701300,0.4896970411111112,-0.2838165666666666,0.2833388962222222,-3.089486044444444,3.9267764666666665,-0.3586273164444444
435,1778325701310,0.5494782,-0.33272246,0.41818103,-3.2150726,4.7635956,-0.6167755
436,1778325701320,0.53057601,-0.3748498099999999,0.4677381266666666,-3.1516231777777777,5.265942088888889,-0.7521786111111112
437,1778325701330,0.4204120177777777,-0.4992917933333333,0.4132454677777778,-2.664805122222222,6.358956388888888,-0.9675462366666666
438,1778325701340,0.31139904,-0.5891059,0.2292800099999999,-2.0933533,6.3684235,-0.8889465299999999
439,1778325701350,0.16441577975,-0.6207103,0.0315931612499999,-1.42156412,5.5717448874999995,-0.75125884125
440,1778325701360,-0.0724627418888888,-0.6262966133333333,-0.1630835877777777,-0.3128136499999999,3.832092233333334,-0.4581604011111111
441,1778325701370,-0.3408444133333333,-0.58389934,-0.19611302,0.86703492,1.60473626,0.0697886133333333
442,1778325701380,-0.554089205,-0.5346506,-0.1145669025,2.1360283,-0.62211609,0.75276565
443,1778325701390,-0.59490764,-0.5587205,-0.05443701,3.0348358,-1.9795227,1.3092346
444,1778325701400,-0.4977325666666666,-0.6190432800000001,-0.07908698,4.1742011,-3.2642381222222223,2.296193433333334
445,1778325701410,-0.38953462,-0.56591904,-0.18671562,5.018890399999999,-3.9987335,3.228302
446,1778325701420,-0.20647316,-0.3337686085714285,-0.6026419428571429,5.141403228571429,-4.451472714285715,3.790383485714286
447,1778325701430,0.414421935,0.260641415,-1.596849,4.3115007499999995,-5.7443751249999995,4.8865909
448,1778325701440,0.7721787,0.5800517,-1.9141536,2.797287,-6.092514,5.506912
449,1778325701450,1.39137658,0.806731972,-1.69638128,1.205249032,-5.84068604,5.8710173
450,1778325701460,2.925497,1.3052672,-1.0226126,-0.8901367,-5.2072754,6.1194305
451,1778325701470,3.7155103142857144,1.5343857285714286,-0.2677951742857142,-2.7783857285714286,-2.9400896428571426,4.795237871428571
452,1778325701480,4.0804987,1.6776998999999997,0.29761636,-3.9692688,-1.1193237,3.6096802
453,1778325701490,3.082024285714286,1.6573724142857142,0.7079986642857143,-4.4830323142857145,0.2157549171428571,2.092812657142857
454,1778325701500,1.8894584375,1.60762415,1.01291813125,-4.218143625000001,-0.095607755,1.8535881
455,1778325701510,1.0411315,1.6005769,1.4047822,-3.6289215,-0.92012024,2.0772858
456,1778325701520,0.90266804,1.4492214666666667,1.7932394333333337,-2.048965426666667,-1.9532572,2.717147866666666
457,1778325701530,1.1068900444444445,1.3613329333333335,2.008849944444444,-0.1529049288888888,-2.5106234888888888,3.275704288888889
458,1778325701540,1.3361955,1.4956319,1.9389005,1.2018822666666666,-2.412909655555555,3.386142288888889
459,1778325701550,1.4721756888888888,1.5921563666666667,1.6671698,2.440600911111111,-2.1514502777777778,3.1843974
460,1778325701560,1.4500484,1.5755609,1.3628042,3.3283234,-1.9118805,2.8544006
461,1778325701570,1.353225711111111,1.5293529666666668,1.175314,3.7588128333333337,-1.822580977777778,2.6233588222222224
462,1778325701580,1.0979966,1.4154587,0.7546132,4.6332703,-1.7345276,2.1385498
463,1778325701590,0.7393266111111111,1.2337725,0.2224872694444444,5.201887366666666,-1.991607688888889,1.7280545111111112
464,1778325701600,0.5324601777777778,1.1333843444444445,-0.0756567322222222,5.377353222222222,-2.2435438,1.4613291444444445
465,1778325701610,0.31628,1.0244807,-0.40941927,5.232483,-2.3955078,1.3145599
466,1778325701620,0.1315155811111111,0.9385316333333332,-0.6898673099999999,4.634755511111112,-2.3779975111111114,1.2932553
467,1778325701630,-0.09141741,0.84241265,-0.9984505,3.7874603,-2.155304,1.3529053
468,1778325701640,-0.1743839822222222,0.8555783422222222,-1.1182832444444444,3.3240662,-1.9955139,1.4077759
469,1778325701650,-0.1910746335555555,0.9201187333333336,-1.1918801222222222,1.0677100248888889,-1.2070956444444445,1.6724819333333334
470,1778325701660,-0.041385382,0.9550462,-1.0836275,0.103775024,-0.7502136,1.6809998
471,1778325701670,0.0396692223333333,0.9763735777777778,-0.8985636,-0.9346940835555556,-0.1446753577777778,1.4463517744444443
472,1778325701680,0.0152356306666666,0.9579612411111113,-0.5832958411111111,-2.1595763333333333,0.5990091888888889,0.96266344
473,1778325701690,-0.0687741191111111,0.9438330733333332,-0.3952632955555556,-2.486601055555555,0.7379726777777778,0.7062310111111111
474,1778325701700,-0.2373100244444444,0.882819,-0.0072795966666666,-2.6766357222222226,0.6088867377777778,0.2501305598888889
475,1778325701710,-0.3325467,0.8546166,0.25380763,-2.4470215,0.25805664,0.013870239
476,1778325701720,-0.3704028066666666,0.8305903555555555,0.3982896277777777,-2.073464266666667,-0.0335896822222222,-0.1327853715555555
477,1778325701730,-0.43614936,0.7811551,0.6691935,-1.3444672,-0.52545166,-0.37922668
478,1778325701740,-0.4561615600000001,0.7781049,0.78780454,-1.0139957066666667,-0.6414455622222222,-0.4696536577777778
479,1778325701750,-0.5047769200000001,0.7588722920000001,0.949565708,-0.12527466,-0.6415558,-0.65405273
480,1778325701760,-0.5445101,0.7356385,1.0438209,0.1122894299999999,-0.55633545,-0.6668396
481,1778325701770,-0.5445101,0.7356385,1.0438209,0.11228943,-0.55633545,-0.6668396
482,1778325701780,-0.5717224,0.99226457,1.0873854,0.9490509,-0.015716553,-0.5166321
483,1778325701790,-0.3650877377777777,1.1962145455555555,1.1568057333333333,1.5548943333333334,0.0941297731111111,-0.2179463788888889
484,1778325701800,0.13213862,1.62547,1.3214359,2.5400238,0.07910156,0.19070435
485,1778325701810,0.31844964,1.765179111111111,1.3731625555555556,2.7496473555555556,0.0455390076666666,0.2130754244444444
486,1778325701820,0.37168136,1.805096,1.3879416,2.8095398,0.035949707,0.21946716
487,1778325701830,1.5577589844444446,2.4948299222222223,1.2818579888888888,3.478583466666667,-0.0585072834444444,0.0284762899999999
488,1778325701840,2.876007611111111,3.2566274,0.6861963055555554,3.126458111111111,0.3036346477777777,-0.7328270933333334
489,1778325701850,3.67216574,3.4940702000000003,0.2780673859999999,2.16521461,0.77035829,-1.38530887
490,1778325701860,4.1191807,3.419779,0.13300033,0.9346771,1.3733978,-2.1997528
491,1778325701870,4.142271766666667,3.077313166666667,0.3077313444444444,-0.3637712333333333,2.2235971555555554,-3.329174488888889
492,1778325701880,3.8341212,2.5678985,0.56864107,-1.1532593,2.7513123,-4.0927277
493,1778325701890,3.540425622222222,2.2781616222222225,0.6918902133333333,-1.243923622222222,2.851152244444444,-4.257548022222222
494,1778325701900,2.7309825,1.4845277,1.0066025,-1.4083862,3.0996552,-4.640274
495,1778325701910,2.501881122222222,1.2858786,1.0212316833333333,-1.3274230666666669,3.1248728666666667,-4.616836666666667
496,1778325701920,1.86522631,0.80116683,0.967822005,-0.561596686,3.28331,-3.9919556
497,1778325701930,1.7315692,0.6792603,0.8834745,-0.27227783,3.331894,-3.699645999999999
498,1778325701940,1.7094820666666668,0.6017588111111112,0.76331758,0.1443600144444444,3.344138255555555,-3.3421986
499,1778325701950,1.6934279222222224,0.5089772611111112,0.60008447,0.565567,3.3414764,-3.0514374
500,1778325701960,1.6953666444444444,0.4623898577777777,0.5205626855555556,0.8295135222222222,3.3340199555555556,-2.9663933555555557
501,1778325701970,1.657944711111111,0.3170665333333333,0.3354040366666667,1.1744248888888889,3.297505733333333,-2.964731877777778
502,1778325701980,1.5941639,0.2260462799999999,0.23745537,1.3666382,3.2610474,-3.028534
503,1778325701990,1.4377235000000002,0.129912176,0.1160122118319999,1.5525268799999998,3.0895386,-3.1213196
504,1778325702000,1.2744495,0.037512355,-0.00037952542,1.730423,2.9015198,-3.2122955
505,1778325702010,1.0729807100000002,-0.0467958627777777,-0.0882526211577777,1.7880113222222225,2.683792122222222,-3.2437218444444444
506,1778325702020,0.8457905433333334,-0.1380193566666666,-0.1792317422222222,1.8236389,2.4471893,-3.2533112
507,1778325702030,0.68492985,-0.19409925,-0.23650344,1.7527924,2.28154,-3.1494446
508,1778325702040,0.5373832844444445,-0.2363885155555555,-0.28200691,1.5888655111111112,2.1739451333333335,-2.935089111111111
509,1778325702050,0.4567355199999999,-0.25913966,-0.3081342,1.4481354,2.0977783,-2.7552948
510,1778325702060,0.3776608044444444,-0.2711800733333333,-0.3223985466666666,1.2454952555555554,2.077596033333333,-2.5332979777777775
511,1778325702070,0.3110470077777778,-0.2795453599999999,-0.3281880344444444,0.9987674444444444,2.0537499555555554,-2.264972222222222
512,1778325702080,0.26966524,-0.28391147,-0.3202168,0.8483887,2.0338593,-2.090561
513,1778325702090,0.2325415811111111,-0.2909214533333333,-0.3115247,0.6699574866666667,1.9738515333333335,-1.8567403666666664
514,1778325702100,0.18021858,-0.29733485,-0.29995885,0.4941864,1.9086913999999997,-1.6207886
515,1778325702110,0.1627280877777777,-0.2934709755555555,-0.2896140166666666,0.3851182711111111,1.8661414333333337,-1.4765574
516,1778325702120,0.13628851,-0.28745008,-0.25590745,0.14849854,1.7973785,-1.1632538
517,1778325702130,0.138268231111111,-0.2859725855555555,-0.2330332733333333,0.04470147,1.7874297888888888,-1.0196787422222222
518,1778325702140,0.14336573,-0.28171518,-0.18744978,-0.123672485,1.7765961,-0.77923584
519,1778325702150,0.15117556,-0.27341697,-0.14669125,-0.20835876,1.789917,-0.63168335
520,1778325702160,0.1568439,-0.2755866211111111,-0.1206854551111111,-0.2513241233333333,1.8116336444444443,-0.52261522
521,1778325702170,0.1755002633333333,-0.2915049111111111,-0.0900422327777777,-0.2837541366666667,1.8389180777777776,-0.3721211777777777
522,1778325702180,0.222037765,-0.337738444,-0.061978523,-0.256402584,1.84850162,-0.272906494
523,1778325702190,0.2655169,-0.37165028,-0.04455224,-0.19503784,1.8421172999999995,-0.19918823
524,1778325702200,0.2817463,-0.37909457,-0.03820763,-0.17108154,1.8325195,-0.18693542
525,1778325702210,0.3676128866666667,-0.38397603,-0.0348717493333333,0.2912495933333333,1.5871582,-0.3050079333333333
526,1778325702220,0.3125377955555556,-0.4122596588888889,-0.0590611366666666,0.6056213333333333,1.379557288888889,-0.4289330444444444
527,1778325702230,0.1676092033333333,-0.4691514933333334,-0.1187468666666666,0.9414265666666668,1.0609181866666668,-0.4768727566666667
528,1778325702240,0.0231807722222222,-0.5114540488888889,-0.1577688588888889,1.1906975444444443,0.7493845622222222,-0.4024268255555556
529,1778325702250,-0.12155857,-0.54163563,-0.1901329,1.3858185,0.4482116699999999,-0.24127197
530,1778325702260,-0.3146621755555555,-0.5331073744444444,-0.2297789688888889,1.5456051444444443,0.08998616,0.20046658
531,1778325702270,-0.5935653,-0.50710195,-0.29532212,1.7480011,-0.4024048,0.87194824
532,1778325702280,-0.7207865244444444,-0.4173027055555555,-0.3865991733333333,1.6914299555555554,-0.701689,1.586678382222222
533,1778325702290,-0.73137644,-0.1160682451111111,-0.6235647777777777,1.1470252,-1.2411872222222222,3.498641977777778
534,1778325702300,-0.47397748,0.041295167,-0.7059484,0.60391235,-1.3526154,4.5455017
535,1778325702310,-0.156336784,0.1458005936,-0.6553063299999999,0.03995667,-1.068725612,5.12692562
536,1778325702320,1.114226,0.5638223,-0.45273805,-1.2960052,-0.22024536,6.300003
537,1778325702330,1.6951501777777775,0.8572331311111111,-0.2710653178333333,-1.9241502444444447,0.4282650511111111,6.2418806
538,1778325702340,2.541839,1.3306503,0.0154843265,-2.8139954,1.3148041,6.0571136
539,1778325702350,2.728190644444444,1.4841349222222222,0.1399009251666666,-2.9446648222222223,1.3801523666666666,5.840750755555556
540,1778325702360,2.9014032,1.7921349555555557,0.7550475444444444,-2.6227213666666667,1.0083703000000002,4.19438508888889
541,1778325702370,2.9538074,2.0475676,1.3490154,-2.2142487,0.8130646,2.9971466
542,1778325702380,2.37941842,1.91157928,1.51377762,-1.1557006600000002,1.02057798,2.4339447200000004
543,1778325702390,1.3925326999999998,1.6886817333333335,1.3785867333333333,0.7542826333333333,1.0760090999999998,2.2764943333333334
544,1778325702400,1.0461339,1.5869108,1.1851304,1.6111145,0.9371643,2.4661102
545,1778325702410,0.87208047,1.4575595666666668,0.82022392,2.6302236,0.5410105466666667,2.8201904
546,1778325702420,0.75228935,1.338947,0.4591822,3.1706696,0.31506348,3.022705
547,1778325702430,0.719463538,1.2589944000000002,0.1906947179999999,3.3340774600000005,0.307017518,3.16055142
548,1778325702440,0.65918124,1.1705482,-0.17158438,3.2984924,0.4061432,3.3609314
549,1778325702450,0.6503404888888888,1.1632808666666667,-0.3145752511111111,3.109295288888889,0.4633043066666666,3.4372796222222224
550,1778325702460,0.68431854,1.1578574,-0.5814796,2.4010162,0.67459106,3.6229858
551,1778325702470,0.8729489044444444,1.2318337555555554,-0.5954716,1.9180958666666668,0.78927612,3.4873453333333333
552,1778325702480,0.9267355733333332,1.2902718222222225,-0.5527746333333333,1.3836245666666669,0.9333241666666668,3.1730312222222223
553,1778325702490,0.933161911111111,1.3611566222222222,-0.4768864755555556,1.0091264255555554,1.0549468777777775,2.802917377777778
554,1778325702500,0.8233583,1.40762528,-0.325414424,0.7476165779999999,1.1600250600000002,2.33050536
555,1778325702510,0.7182297166666667,1.396029488888889,-0.2316499844444444,0.6939849888888889,1.1905229555555554,2.0640936666666665
556,1778325702520,0.5998757,1.3574955,-0.16511689,0.710968,1.1954956,1.8519897
557,1778325702530,0.56928709,1.3446015333333332,-0.15039265,0.7390187466666667,1.1910553000000002,1.7926889666666668
558,1778325702540,0.40255514,1.2502329,-0.08226058,0.96343994,1.1337128,1.4210815
559,1778325702550,0.3366184777777777,1.1806085333333334,-0.0627628944444444,1.1277838644444445,1.0638817866666668,1.2237141777777778
560,1778325702560,0.2747557485714286,1.1062393,-0.0311995232257142,1.3540867142857145,0.9639587371428572,0.9634007
561,1778325702570,0.24086642,1.0549873,-0.00013532258,1.540802,0.8913574,0.7771301
562,1778325702580,0.2079863199999999,1.0240731333333333,0.0197966732977777,1.6253153333333334,0.8681640488888889,0.69735038
563,1778325702590,0.0944441259999999,0.928736323,0.0505820266,2.0207062,0.81999207,0.37765503
564,1778325702600,0.0220280276666666,0.87845202,0.045586602,2.227789988888889,0.8344913022222222,0.3111334933333333
565,1778325702610,-0.0227974494444444,0.8319729555555555,0.0249225142222222,2.4636891666666667,0.8729044666666668,0.2693532333333333
566,1778325702620,-0.01832299,0.82105815,0.010482057,2.5528107,0.9041443,0.25834656
567,1778325702630,0.0023690957333333,0.8038391611111112,0.0048686753555555,2.6397518666666664,0.914384611111111,0.2331407333333333
568,1778325702640,0.013648916,0.8028767,0.026224585,2.7216492,0.9036102,0.20614624
569,1778325702650,0.0510446137777777,0.8351997655555556,0.0542501894444444,2.7777032111111115,0.8415391777777778,0.1758524548888889
570,1778325702660,0.17765678,0.96053684,0.11018059,2.8793182,0.6729889,0.071395874
571,1778325702670,0.30859306,1.105262,0.18132293,2.9160614,0.5057373,-0.15977478
572,1778325702680,0.4008198,1.2171763555555557,0.2593935344444444,2.8776007555555556,0.5003560333333333,-0.32009549
573,1778325702690,0.4871208699999999,1.332114,0.33422503,2.8042145,0.5733795,-0.4857483
574,1778325702700,0.6698385166666667,1.5603892333333331,0.44718206,2.6570332666666667,0.70761109,-0.5983174666666666
575,1778325702710,0.81074095,1.7477441,0.53642654,2.5661316,0.72998047,-0.6348877
576,1778325702720,1.0469063366666669,1.9630838333333336,0.71430263,2.5183665,0.5756988533333334,-0.6574351100000001
577,1778325702730,1.4806230222222223,2.3117871111111112,1.0333122222222224,2.458763955555556,0.3096771222222222,-0.7170884822222222
578,1778325702740,1.8970392000000005,2.500416,1.2606652,2.4606628,0.2197113,-0.8804321
579,1778325702750,2.44206813,2.5272505799999996,1.42368367,2.45523376,0.467393496,-1.30498505
580,1778325702760,2.8683877,2.4646614,1.5026485,2.4485321,0.8398217222222222,-1.766426911111111
581,1778325702770,3.0763242,2.3627682,1.4532262,2.4366913,1.0793915,-2.041031
582,1778325702780,3.298701088888889,2.020029822222222,1.1928724333333334,2.2419925333333333,1.4074317333333333,-2.9259101333333337
583,1778325702790,3.2710829,1.8292596,1.0700579,2.1085968,1.3792572,-3.4093628
584,1778325702800,3.0459394,1.4727727333333334,0.8704586333333333,1.7962900333333331,1.2249756333333337,-4.109247833333334
585,1778325702810,2.7485418666666668,1.1553892888888888,0.7140450777777778,1.4818640444444444,1.1435971111111112,-4.529010400000001
586,1778325702820,2.3688967888888888,0.8864664711111111,0.6186736088888889,0.9202931666666668,1.4321644666666669,-4.668157
587,1778325702830,2.0732493,0.72587657,0.57852584,0.5953827,1.7659454,-4.604599
588,1778325702840,1.7603664,0.5835903,0.5381344,0.16874695,2.381668,-4.3260193
589,1778325702850,1.4932061222222222,0.4534393777777777,0.4882791444444444,-0.1772308355555555,2.8965504444444448,-3.784218711111111
590,1778325702860,1.3911084,0.4016452,0.4694325,-0.29411316,3.066101,-3.4871216
591,1778325702870,1.3436402000000005,0.3604955622222222,0.4471823811111111,-0.2864803711111111,3.134455411111111,-3.140157
592,1778325702880,1.2964142333333333,0.2766740277777778,0.4008246433333333,-0.18066576,3.174402911111111,-2.778145711111111
593,1778325702890,1.2388177,0.20920561,0.35277355,-0.04005432,3.175827,-2.5731354
594,1778325702900,1.177721677777778,0.1471341922222222,0.3072702477777778,0.0638766833333333,3.189792188888889,-2.4776187666666667
595,1778325702910,1.0522358,0.01701176,0.21463718,0.3407898,3.2184296,-2.2535553
596,1778325702920,0.9900821111111112,-0.0317997688888888,0.1799268511111111,0.4496900666666666,3.2198536888888887,-2.1910553
597,1778325702930,0.8015888,-0.11148559,0.110057704,0.7498474,3.2780914,-2.0735168
598,1778325702940,0.7202358888888889,-0.1334234033333333,0.0728528077777777,0.8422885333333334,3.277972777777778,-2.0443996666666666
599,1778325702950,0.5392263,-0.18213953,-0.014655281,1.0188293,3.240265,-1.9776459
600,1778325702960,0.5151468333333333,-0.1885396277777777,-0.0249612285555555,1.0462951666666669,3.191029888888889,-1.9426116777777775
601,1778325702970,0.3447542566666667,-0.20556953,-0.0979611093333333,1.0138668444444443,2.915486633333334,-1.725301088888889
602,1778325702980,0.19775037,-0.2352632499999999,-0.1475861266666666,0.9224293911111112,2.657101022222222,-1.4397515222222224
603,1778325702990,0.15593517,-0.25608945,-0.15157218,0.8553161599999999,2.5622406,-1.2665863
604,1778325703000,0.12198389,-0.2758849211111111,-0.1351392244444444,0.7944709066666666,2.4152273111111113,-0.9479488777777778
605,1778325703010,0.11237063,-0.28037286,-0.12997346,0.7722168,2.347046,-0.7872162
606,1778325703020,0.1114218166666666,-0.2807254111111111,-0.12861747,0.7525702666666666,2.248809866666667,-0.6042887422222223
607,1778325703030,0.1159097539999999,-0.28391144,-0.1273292266666666,0.7123820000000001,2.083221466666666,-0.2909851066666666
608,1778325703040,0.1336983633333333,-0.2853756355555555,-0.1304746488888889,0.6702474,2.0142110666666664,-0.1218363386666666
609,1778325703050,0.16279292,-0.283924676,-0.143189501,0.5878235079999999,1.95769042,0.0264343259999999
610,1778325703060,0.19486298,-0.2785421,-0.16108988,0.4851379399999999,1.9321288999999997,0.110809326
611,1778325703070,0.2148751644444444,-0.2888743222222222,-0.1543652288888889,0.3631049266666666,1.950124122222222,0.1781548419999999
612,1778325703080,0.2383046299999999,-0.30429074,-0.12350597,0.19911194,1.9960480000000005,0.26792908
613,1778325703090,0.2616523533333333,-0.3083849688888889,-0.0689317377777777,0.11625502,2.076707622222222,0.3109588611111111
614,1778325703100,0.2861808466666666,-0.3275978466666667,0.06193834,0.1058366533333333,2.0369364,0.3370649544444444
615,1778325703110,0.26942262,-0.3300378,0.13019277,0.22680664,1.7904510000000002,0.3627472
616,1778325703120,0.4458748055555556,-0.2936063,0.3348620477777778,0.6298929977777777,1.2618459,0.2483469666666666
617,1778325703130,0.6492008833333333,-0.3042088155555555,0.5531845566666667,1.272599988888889,0.6981998199999999,-0.0517018622222222
618,1778325703140,0.7860358388888888,-0.532376,0.7141814333333334,2.245127366666667,0.5502980599999999,-0.5651041633333334
619,1778325703150,0.7347166155555556,-0.7631321333333333,0.6853015777777778,3.459058944444445,0.6079423888888889,-0.9873046944444444
620,1778325703160,0.55106467,-1.0309715,0.5101895,4.585861,0.7661896,-1.0519257
621,1778325703170,0.2675508966666667,-1.1110627666666666,0.3015747544444444,5.323499866666667,0.9910278222222222,-0.6298557044444445
622,1778325703180,-0.206100032,-0.99699834,-0.155988988,6.185150200000001,1.46021426,0.424313354
623,1778325703190,-0.4675504466666667,-0.502586525,-0.8525048333333333,5.694101866666667,1.0877380566666668,1.66112772
624,1778325703200,-0.7729471,0.123664625,-1.7913927000000005,4.4793396,0.08709717,3.0285797
625,1778325703210,-0.82859266,0.38858894,-1.9045146,3.9925232,-0.15472412,3.3960876
626,1778325703220,0.8432811133333333,0.4994311,-1.4598824,1.1736501133333332,0.0663146966666666,5.249827033333333
627,1778325703230,2.2957072,0.72014016,-0.9614762999999998,-0.9055786,0.49401855,6.1796265
628,1778325703240,3.0570975888888885,1.1078388622222224,-0.6696916155555556,-1.6882544555555556,1.3018476611111112,5.421863133333334
629,1778325703250,3.590999822222222,1.480799888888889,-0.3954936688888888,-2.375757855555556,2.0744018555555552,4.3312073
630,1778325703260,3.2004997600000005,1.63757588,-0.1535730920999999,-2.5490692000000004,2.2711410699999997,3.07442933
631,1778325703270,2.605266077777778,1.8213536,0.0438904893333333,-2.342795488888889,2.023145922222222,2.5381927777777777
632,1778325703280,1.9011891000000003,1.9631232,0.2418478999999999,-1.8499297999999995,1.3068237,2.4330902
633,1778325703290,1.5988557666666667,1.8928351222222224,0.4040383422222222,-1.2267506777777777,0.5136091311111112,2.8593716
634,1778325703300,1.571318233333333,1.8430880555555555,0.5425144777777778,-0.41448975,-0.17337036,3.468521
635,1778325703310,1.8676573666666667,1.9280755,0.5486964333333333,0.1818305115555555,-0.1772766144444444,3.579491466666667
636,1778325703320,2.1983278,2.01938,0.4818791,0.82229614,0.010391235,3.3992767
637,1778325703330,2.1536653,1.9776464,0.23818797,1.2489319,0.26446533,2.906067
638,1778325703340,1.8697187222222225,1.883684022222222,0.0245023731111111,1.404871633333333,0.2306671122222222,2.6190983111111112
639,1778325703350,1.4033123,1.7263895,-0.2843392,1.6127167,0.066848755,2.1779633
640,1778325703360,1.0646686955555558,1.5808345888888888,-0.49321176,1.4917483555555555,-0.1906483933333333,2.051420433333333
641,1778325703370,0.9297722755555556,1.5015843666666666,-0.6138032022222222,1.2444288188888888,-0.2928025955555556,1.965486277777778
642,1778325703380,0.8511324,1.3812921,-0.7532957,0.76956177,-0.27670288,1.7742157
643,1778325703390,0.7777518333333333,1.2992482333333333,-0.7140701777777778,0.2756279833333333,-0.22213406,1.5431738777777777
644,1778325703400,0.6578382599999999,1.19500268,-0.5732784240000001,-0.272811894,-0.111367799,1.24509884
645,1778325703410,0.4732091055555555,1.081426888888889,-0.3616512644444444,-0.6248219944444444,0.0118662516666666,0.9918992666666664
646,1778325703420,0.42586175,1.0571836,-0.30606082,-0.6946564,0.03968811,0.9268036
647,1778325703430,0.40426302,1.0459565,-0.27518705,-0.7133026,0.04714966,0.8980408
648,1778325703440,0.2027804644444444,0.9649707055555556,-0.0187234272222222,-0.5288882755555555,-0.1315884057777777,0.6376376577777777
649,1778325703450,0.14007132,0.962856,0.09944033,-0.39265442,-0.24633789,0.5422363
650,1778325703460,0.1222144433333333,0.9682248666666666,0.23733353,0.0132208922222222,-0.43318685,0.3766462511111111
651,1778325703470,0.1172788811111111,0.949676171111111,0.3507668666666667,0.3400217733333333,-0.5247989222222222,0.2417704222222222
652,1778325703480,0.11359009,0.91843754,0.4167158,0.6960602,-0.5238495,0.08364868
653,1778325703490,0.086683253175,0.8965786775,0.440832195,1.0051154875,-0.430368435,-0.0735530849999999
654,1778325703500,0.0076698354,0.853884,0.461744,1.5131073,-0.24475098,-0.33235168
655,1778325703510,-0.10241548375,0.8094192312499999,0.4257155325,1.904060375,-0.124902724375,-0.5351524375
656,1778325703520,-0.1904004442857143,0.7741125571428571,0.3728735128571429,2.2043915142857142,-0.07057408,-0.7198006771428572
657,1778325703530,-0.25160099,0.7443432,0.3011954133333333,2.3867492444444443,-0.0669013155555555,-0.920259268888889
658,1778325703540,-0.3038289411111111,0.7232722444444445,0.2886672666666666,2.4796650888888885,-0.0870259586666666,-1.1420678333333334
659,1778325703550,-0.36134553,0.7107438,0.31457835,2.5181885,-0.081222534,-1.2655182
660,1778325703560,-0.411108941,0.700908505,0.34482934,2.48442075,0.0814453121,-1.3765747
661,1778325703570,-0.43534901,0.6892812777777777,0.3454514433333333,2.3984645555555555,0.29523044,-1.4217071555555556
662,1778325703580,-0.3730594933333333,0.6912604666666666,0.31901134,2.238616922222222,0.5273352733333333,-1.422417533333333
663,1778325703590,-0.2136494733333333,0.7418612333333334,0.3399194466666666,2.0521918555555554,0.6367679244444444,-1.4431220111111112
664,1778325703600,-0.08324206,0.8233773,0.38840538,1.9013977,0.59202576,-1.4663239
665,1778325703610,0.11782087,1.0399369866666666,0.5598554600000001,1.8141682777777777,0.2305484355555555,-1.4944915888888888
666,1778325703620,0.3919104744444445,1.3663088222222222,0.8581064555555555,1.7456359555555556,-0.1387447788888888,-1.5470411444444443
667,1778325703630,0.521361392,1.58303007,1.16650833,1.82778934,-0.2252471898,-1.62292176
668,1778325703640,0.9162550655555556,1.9884923222222224,1.8163574888888891,2.149546322222222,0.2464141907777778,-1.590961022222222
669,1778325703650,1.2582201,2.1229813,1.9751437,2.3972778,1.0202637,-1.4641876
670,1778325703660,1.8483088444444449,2.288682777777778,1.7710164888888889,2.573760955555555,2.021906566666667,-1.4109852777777778
671,1778325703670,2.433965,2.4611228,1.5113122,2.671051,2.7880707,-1.4487457
672,1778325703680,2.8814440666666665,2.4359444666666668,1.2727867166666669,2.614064533333333,2.8752441,-1.8302866666666668
673,1778325703690,3.448971588888889,2.300600977777778,0.8990945166666666,2.420837422222222,2.9196302444444444,-2.5289849444444443
674,1778325703700,3.5360056999999996,2.1338413,0.7051909,2.1341553,2.938263,-2.9933777
675,1778325703710,3.2949585333333333,1.8091238666666665,0.5102981888888889,1.5162438455555556,3.1737552777777776,-3.4610934777777778
676,1778325703720,3.0667239222222222,1.5551955666666666,0.4160384733333333,0.98527527,3.4378815,-3.7342682
677,1778325703730,2.723498733333334,1.21675542,0.3540749233333333,0.4038136933333333,3.8702036666666664,-3.7672984
678,1778325703740,2.3780768,0.90867406,0.32104585,-0.04005432,4.243759,-3.7012482
679,1778325703750,2.3780768,0.90867406,0.32104585,-0.04005432,4.243759,-3.7012482
680,1778325703760,2.3099570666666667,0.8593205844444445,0.3195263388888889,-0.10450745,4.3002167,-3.6559753
681,1778325703770,1.8692028,0.6002679911111111,0.3607041688888889,-0.2531110977777777,4.3347169333333335,-2.9879947111111114
682,1778325703780,1.6716524,0.3995306888888889,0.3628060866666666,-0.0218251533333333,3.9212189333333334,-2.1787482444444444
683,1778325703790,1.6865646399999998,0.248597872,0.348624268,0.347918704,3.5270446800000004,-1.70649416
684,1778325703800,1.676412,0.16698496,0.28761026,0.7525177,3.2509308,-1.6340942
685,1778325703810,1.5893779666666663,0.0909606276666666,0.2116671622222222,0.9835018666666664,3.019648233333333,-1.6472388222222225
686,1778325703820,1.4595661,-0.011544417,0.11713492,1.3581238,2.603241,-1.6612701
687,1778325703830,1.2459216444444443,-0.0726666746666666,0.0672394268888889,1.6073862666666665,2.3249122222222223,-1.6090647111111112
688,1778325703840,1.0210779,-0.1117697166666666,0.0200002646666666,1.8772532,2.0473532,-1.4851379333333332
689,1778325703850,0.8534106333333333,-0.1155940066666666,-0.0342620193333333,1.9930064,1.8973287333333333,-1.3193206666666668
690,1778325703860,0.7420114111111111,-0.1103741466666666,-0.0966185966666666,2.0313568,1.773407,-1.1936188
691,1778325703870,0.6226939,-0.10636044,-0.18024969,1.9594574,1.4905853,-0.9981384
692,1778325703880,0.6226939,-0.10636044,-0.18024969,1.9594574,1.4905853,-0.9981384
693,1778325703890,0.41982246,-0.158820964,-0.271063425,1.69910894,1.1337646600000002,-0.538795455
694,1778325703900,0.3637490266666667,-0.1792523055555555,-0.2975181888888889,1.5358971555555554,1.0209113555555556,-0.3096737355555555
695,1778325703910,0.30358922,-0.1992648366666666,-0.32204651,1.1700948000000002,0.8313598666666666,0.1340688066666666
696,1778325703920,0.2971896555555555,-0.2069393466666666,-0.3330838466666667,0.985989017777778,0.7619374777777776,0.3233286522222222
697,1778325703930,0.3177991288888889,-0.2194678355555555,-0.3479703622222222,0.7267761244444445,0.6728023888888889,0.5204043944444445
698,1778325703940,0.3660415433333333,-0.2284701599999999,-0.3675758888888888,0.4707489,0.5845642,0.67326355
699,1778325703950,0.4575078833333332,-0.2299346777777778,-0.3960499777777777,0.1193322066666666,0.4708218022222222,0.7361738222222223
700,1778325703960,0.5503069,-0.236490992,-0.4047819139999999,-0.270684814,0.416677856,0.661874374
701,1778325703970,0.6219613,-0.2513298,-0.39794797,-0.57321167,0.4311676,0.53318787
702,1778325703980,0.6365642166666667,-0.2599531233333333,-0.39160232,-0.57321167,0.4311676,0.53318787
703,1778325703990,0.6904471111111111,-0.3217136488888889,-0.35015334,-0.8242662266666666,0.50614929,0.3844587533333333
704,1778325704000,0.7867954333333333,-0.3312721266666666,-0.3117409,-1.7852529333333331,1.1479220777777777,-0.2688429066666666
705,1778325704010,1.000156288888889,-0.2675462466666667,-0.2849219622222222,-2.2189314555555555,1.544377622222222,-0.6753540022222223
706,1778325704020,1.1429034,-0.21862686,-0.26322886,-2.3245087,1.663681,-0.85858154
707,1778325704030,1.5342072777777778,-0.2963457588888889,-0.2042346222222222,-2.3719143333333332,2.081086866666667,-2.43724906
708,1778325704040,1.6111258,-0.43449596,-0.20050608,-2.1977386,2.0796661,-3.300705
709,1778325704050,1.0604789044444445,-0.6747016688888888,-0.2218065155555555,-1.6102498333333335,1.5331827666666666,-3.668762233333333
710,1778325704060,0.1657922955555555,-0.8566598999999999,-0.2615059844444444,-0.5606079222222222,0.2926805,-3.7698449111111114
711,1778325704070,-0.4455040866666667,-0.7941544977777777,-0.2374399922222222,0.2453257222222222,-1.1332940222222223,-3.0292392555555554
712,1778325704080,-0.6157615311111111,-0.7240688422222222,-0.1332549015555555,1.2485673444444445,-3.0314805555555555,-1.4562038666666668
713,1778325704090,-0.6306624,-0.6352322,-0.015754972,1.9594574,-3.8852844,-0.18107605
714,1778325704100,-0.39632669,-0.4735041066666666,-0.3032942133333333,2.3743846333333334,-3.7846221999999994,1.47309876
715,1778325704110,-0.0052112166666666,-0.2134472777777777,-0.8903336111111112,2.125347588888889,-3.2731814666666668,3.0456661777777776
716,1778325704120,0.28113657,0.07033819,-1.3404977,1.4028625,-2.7917938,3.9873047
717,1778325704130,1.3076950711111113,0.6284431244444444,-1.5135067666666666,-0.0470835444444444,-2.881747766666667,4.871115822222222
718,1778325704140,2.0322466,0.96822536,-1.5357434,-0.9487152,-3.0565033,5.264023
719,1778325704150,2.8852268,1.3307721666666668,-1.17339978,-2.0478922333333336,-3.2487946,4.7395579
720,1778325704160,3.1820135222222223,1.5735008777777777,-0.8151103133333334,-2.7620900333333336,-3.0905982777777776,4.136323711111111
721,1778325704170,3.0786417,1.7952127,-0.4075885,-3.3141327,-2.6602325,3.5942230000000004
722,1778325704180,2.7156889,1.9840045444444443,0.1084447288888888,-3.6353166,-2.1822831666666667,3.2510901333333333
723,1778325704190,2.3165734,2.097721,0.6140364,-3.791916,-1.6823273,2.969986
724,1778325704200,1.98121412,2.08889886,0.9922640900000002,-3.343490650000001,-1.50798949,2.9419586499999997
725,1778325704210,1.8085955666666669,2.0945764222222225,1.1864042222222222,-2.647639,-1.475128166666667,2.9083710000000003
726,1778325704220,1.7923121000000002,2.1133960444444444,1.2482324333333334,-2.075241,-1.4516907,2.826706
727,1778325704230,1.7819258000000002,2.0293048,1.09669991,-0.9985487066666666,-1.4426405222222225,2.3176201555555553
728,1778325704240,1.6815372,2.0125456,0.96913993,-0.38998413,-1.3829803,1.9265593999999997
729,1778325704250,1.2817102,1.8656233,0.611717225,-0.0235977174999999,-1.3565482875,1.5792121875
730,1778325704260,1.0131864666666666,1.7395952444444442,0.4165122122222222,0.4435865644444444,-1.364995311111111,1.02729122
731,1778325704270,0.6851730133333334,1.5597789333333332,0.20585055,0.5453762555555556,-1.4657151777777775,0.7655893911111111
732,1778325704280,0.55875164,1.4852602,0.13702579,0.5543823,-1.5821838,0.630661
733,1778325704290,0.5255322844444444,1.4648536444444444,0.1244029349999999,0.5506439111111111,-1.6086968444444445,0.6053822888888889
734,1778325704300,0.4038560199999999,1.3764505,0.0698290456666666,0.5060204355555555,-1.6606581111111112,0.5531836666666667
735,1778325704310,0.07564066,1.0806131,-0.054192808,0.13093567,-1.838913,0.4000244
736,1778325704320,0.1137134888888888,1.0965040777777777,-0.0535422917777777,-0.0513492153333333,-1.7993791555555556,0.4149407222222222
737,1778325704330,0.266700443,1.19713846,-0.076256143,-0.689118951,-1.60503541,0.39960633
738,1778325704340,0.31786653,1.2580428,-0.12545803,-1.0589752,-1.457016,0.311615
739,1778325704350,0.3242391344444444,1.2684152777777775,-0.1332678544444444,-1.2026078777777778,-1.3968878933333333,0.2581142933333333
740,1778325704360,0.37521997,1.3513951,-0.19574645,-2.3516693,-0.91586304,-0.16989136
741,1778325704370,0.4468783788888889,1.3669739666666667,-0.1641952055555555,-2.818498377777778,-0.6636301751111111,-0.43940566
742,1778325704380,0.5295857,1.2640219,0.0680797,-3.9580994,0.069503784,-1.2426147
743,1778325704390,0.5369087,1.1848254,0.24990349,-4.1181200222222225,0.235221016,-1.4471503444444445
744,1778325704400,0.3885353522222222,1.01212772,0.5566696066666666,-4.1340366,0.5858120444444445,-2.0856577444444446
745,1778325704410,0.13262703,0.76004475,0.9565705,-3.9096221999999994,0.8918915000000001,-2.8447723
746,1778325704420,-0.1003623862,0.581698621,1.09877044,-3.0523010200000003,0.7683319089999999,-3.1169036599999997
747,1778325704430,-0.3066764144444444,0.3852393744444444,1.2057666555555555,-2.173010888888889,0.6806776222222222,-3.238864377777778
748,1778325704440,-0.3865915755555555,0.2567850544444444,1.1576332444444446,-1.2592468,0.5760498,-3.3704834
749,1778325704450,-0.5021530888888889,0.1895330277777777,1.0414077055555555,-0.2867211222222222,0.4660864933333333,-3.320532888888889
750,1778325704460,-0.521569,0.15221925,0.87176055,0.29231262,0.5110626,-3.155304
751,1778325704470,-0.4080007,0.1453591011111111,0.708540421111111,0.5433637800000001,0.6656409333333334,-3.0249871555555554
752,1778325704480,-0.18916231,0.15941934,0.4889562699999999,0.8009796,0.9265137,-2.8980408
753,1778325704490,-0.06518193,0.18663162,0.4074423,0.81162855,1.1143646444444446,-2.9424201333333335
754,1778325704500,0.103926505,0.260044286,0.262032436,0.7928909199999999,1.6473907099999998,-3.133841
755,1778325704510,0.110174365,0.35454363,0.19389082,0.7967224,1.7787323,-3.237854
756,1778325704520,-0.00376052,0.5565812800000001,0.11717588,0.8066643555555556,1.6300133555555556,-3.204888222222222
757,1778325704530,-0.1678482333333333,0.7957573111111111,0.0617489244444444,0.7990298777777778,1.3600819666666668,-3.068886711111111
758,1778325704540,-0.3212791566666667,1.1192552,0.0308608101,0.6782989533333333,1.03411358,-2.670242333333333
759,1778325704550,-0.38926259,1.5420714222222225,-0.0163513933222222,0.3741658533333333,0.7070770266666666,-1.9449768333333333
760,1778325704560,-0.23882881,1.8058301,-0.081649296,0.12454224,0.6111908,-1.5057373
761,1778325704570,0.3359970899999999,2.2424822428571427,-0.1377132851428571,-0.5739724199999999,0.6931435742857143,-0.8629324728571428
762,1778325704580,0.8549152,2.6007228,-0.16243221,-0.9966583,0.75553894,-0.6125183
763,1778325704590,1.2555354,2.8119552,-0.14486049,-1.38974,0.7811127,-0.6141052
764,1778325704600,1.6684939444444444,2.9687488222222225,-0.0627623744444444,-1.7841237333333335,0.8072102944444445,-0.755381261111111
765,1778325704610,2.226977655555556,3.1062879777777774,0.1988951633333333,-2.219114511111111,0.9538659111111112,-1.0923614777777777
766,1778325704620,2.6166832555555555,2.851994,0.8986342733333333,-2.348478522222222,1.945865188888889,-2.439915977777778
767,1778325704630,2.566624488888889,2.526543844444445,1.2144583333333334,-2.1630587777777777,2.4574873,-3.081673488888889
768,1778325704640,2.184322111111111,2.2334039555555556,1.3429947555555557,-1.6067030355555556,2.7081705777777776,-3.265201222222222
769,1778325704650,1.64731978,1.6400409799999998,1.25300258,0.300302116,2.90316773,-3.3483292399999995
770,1778325704660,1.4605429,1.408016,1.0906799,1.2137756,2.6820679,-3.2804718
771,1778325704670,1.2523621666666669,1.1636600333333331,0.7232111,2.0981242,2.213887533333333,-3.0874786666666667
772,1778325704680,0.99749897,0.8594700777777777,0.2212126788888889,2.828186,1.7483673,-2.899643
773,1778325704690,0.73044592,0.6243079066666666,-0.2027018266666666,2.8556976666666665,1.2716725333333332,-2.5962168
774,1778325704700,0.5095192644444445,0.439907991111111,-0.4946211577777778,2.549263888888889,1.0440589111111112,-2.252365088888889
775,1778325704710,0.3794241377777777,0.2882129288888889,-0.6413542111111111,2.065046488888889,1.0398000444444444,-1.8898739444444443
776,1778325704720,0.3276432955555555,0.1565575244444444,-0.6878201977777778,1.4441138,1.1997019555555557,-1.4899952777777776
777,1778325704730,0.30419895,0.06582277,-0.67605144,0.9005889999999999,1.3994904,-1.1808319
778,1778325704740,0.2550894688888889,-0.0442342416666666,-0.61243336,0.4149407322,1.6056230333333332,-0.8833262000000001
779,1778325704750,0.19567543,-0.1480123233333333,-0.5490192666666666,-0.0945536289333333,1.7966613666666669,-0.5358174466666666
780,1778325704760,0.1327357348888889,-0.23991347,-0.5082075111111111,-0.3853725777777778,1.8674451888888888,-0.2616848422222222
781,1778325704770,0.0852397496666666,-0.3061619133333333,-0.4776737,-0.5634511200000001,1.900344866666667,-0.0356648733333333
782,1778325704780,0.049770717,-0.3482208,-0.4594512999999999,-0.67814636,1.918808,0.14117432
783,1778325704790,0.0012702695555555,-0.3683963055555556,-0.4081311977777778,-0.7772182966666666,1.7844085777777776,0.4676767944444444
784,1778325704800,-0.0187375130499999,-0.376226978,-0.343083986,-0.8051819,1.55880888,0.776815788
785,1778325704810,0.0099893301111111,-0.3745117377777778,-0.2495746088888889,-0.6800961,1.2096455777777777,1.0340372777777778
786,1778325704820,0.0313035878888888,-0.3697928977777778,-0.2113116644444444,-0.54256015,0.9719679,1.1825205444444444
787,1778325704830,0.06660982,-0.35688454,-0.17609979,-0.3718872,0.7656555,1.3076324
788,1778325704840,0.1382953622222222,-0.3386887577777777,-0.2101456077777778,-0.2121480266666666,0.5449167811111111,1.3395351666666666
789,1778325704850,0.2865059,-0.3031926,-0.28995275,0.07447815,0.07910156,1.3433228
790,1778325704860,0.3745293733333333,-0.2916542255555556,-0.3044462599999999,0.2940317888888889,-0.3451198977777777,1.1751267911111112
791,1778325704870,0.4286693,-0.32576814,-0.35889885,0.5806461111111111,-0.9402431888888888,0.9383985755555556
792,1778325704880,0.3943931222222223,-0.3609126022222222,-0.3459908055555555,0.7823334,-1.2801819,0.8607483
793,1778325704890,0.373206948,-0.3795952569999999,-0.333883271,0.8920059349999999,-1.42995607,0.91070861
794,1778325704900,0.33580533,-0.39532393,-0.31143016,1.0694275,-1.6535492,1.0594177
795,1778325704910,0.3249584377777778,-0.3588238177777778,-0.3337882988888889,1.1184963222222222,-1.7674832222222223,1.2500474444444445
796,1778325704920,0.3201857,-0.2649974,-0.35938725,1.1658325,-2.0141602,1.6160278
797,1778325704930,0.30432183,-0.19031644,-0.3968498,1.155716,-2.1632843,1.76091
798,1778325704940,0.2599171866666667,0.0338913111111111,-0.4246583488888888,1.019894102222222,-2.7526737000000003,2.1670125
799,1778325704950,0.23659676,0.4808416,-0.37622634,0.708313,-4.161728,3.242691
800,1778325704960,0.3252434455555555,0.6349773222222223,-0.3077007422222222,0.62503561,-4.556111655555556,3.676013555555555
801,1778325704970,0.35057107,0.6790161,-0.288122,0.60124207,-4.6687927,3.79982
802,1778325704980,1.007511829,0.98495433,-0.09047216,0.450244144,-4.22857054,4.1240357
803,1778325704990,2.7090446666666668,1.8083105555555556,0.3062799644444445,-0.0292104066666666,-2.7126058000000004,4.6406759
804,1778325705000,2.9198835,1.945186,0.22574142,-0.28346252,-1.7350464,4.1609497
805,1778325705010,2.778194555555556,2.052584988888889,0.1469646577777777,-0.6522810311111111,-0.99036832,3.397328688888889
806,1778325705020,2.2497023,2.218082933333333,0.0274844843333333,-1.2178158444444445,-0.0737694638888888,2.229671888888889
807,1778325705030,1.6485899888888889,2.200781266666666,0.0351047181111111,-1.5095875666666667,-0.0632934569444444,1.7458072444444444
808,1778325705040,1.093806458888889,2.105138577777778,0.0741942766666666,-1.6810913,-0.27456665,1.650116
809,1778325705050,0.68053573,1.9291992,0.14166409,-1.8328857,-0.7006836,1.9302826
810,1778325705060,0.6202943666666667,1.7819793555555554,0.2429475933333333,-1.8609415777777776,-0.9485304166666668,2.2106238888888887
811,1778325705070,0.6542994,1.6770893111111111,0.3230523488888888,-1.8145989555555555,-1.0504964333333335,2.3266127555555554
812,1778325705080,0.7112330333333333,1.5614330444444444,0.3838635311111111,-1.6297810333333331,-1.0694376666666667,2.2432963333333333
813,1778325705090,0.6982303,1.4914836,0.40768653,-1.4609951,-1.0750630555555558,2.119959511111111
814,1778325705100,0.5481358,1.3491973,0.4054887,-1.1191711,-1.1086731,1.903122
815,1778325705110,0.3838439922222222,1.2395481444444445,0.37183674,-0.944644488888889,-1.1498006111111112,1.835357688888889
816,1778325705120,0.1811944487,1.09928353,0.3153590229999999,-0.3981994703,-1.30143276,1.68239137
817,1778325705130,-0.0681097786666666,0.9166882,0.2065421966666666,0.0698598213333333,-1.4840088,1.686340333333333
818,1778325705140,-0.1544794633333333,0.8562157622222222,0.1570248411111111,0.2577005988888889,-1.5644870666666666,1.7150980666666669
819,1778325705150,-0.24920043,0.79262483,0.09504779,0.45370483,-1.6572876,1.7747498
820,1778325705160,-0.3419964677777777,0.7369528033333334,0.0282848404444444,0.5795237222222221,-1.7066396222222222,1.8979678444444448
821,1778325705170,-0.3873506333333333,0.7025817111111112,-0.0014902766666666,0.6023102,-1.7010192555555557,2.0034366555555554
822,1778325705180,-0.3376314066666667,0.7160322133333333,0.0368004873333333,0.6055077555555556,-1.6365068333333337,2.056576222222222
823,1778325705190,-0.2497840666666666,0.7403429422222223,0.0771373366666666,0.6201900744444444,-1.472693577777778,2.060241733333333
824,1778325705200,-0.14120524,0.78383976,0.11347499,0.64811707,-1.2956238,1.9238892
825,1778325705210,-0.0923394377777777,0.8273628177777778,0.1207958855555555,0.6605478744444445,-1.0900302222222222,1.5692748666666667
826,1778325705220,-0.08678067,0.8720654,0.13763706,0.6321411,-0.9329071,1.235733
827,1778325705230,-0.1088544888888888,0.898017088888889,0.1815400044444444,0.5344916488888889,-0.7356499333333333,0.8494568022222223
828,1778325705240,-0.10240031,0.9162412,0.22757216,0.39031982,-0.4908142,0.37553406
829,1778325705250,-0.0873229908888889,0.9018137333333336,0.2540380088888889,0.30989075,-0.35394287,0.08630371
830,1778325705260,-0.085438326,0.9000103000000002,0.25734624,0.30989075,-0.35394287,0.08630371
831,1778325705270,-0.085438326,0.9000103000000002,0.25734624,0.30989075,-0.35394287,0.08630371
832,1778325705280,-0.118101364,0.8006788666666667,0.2998935266666667,0.2101084409999999,-0.0084381133333333,-0.51219686
833,1778325705290,-0.1972573022222222,0.6161984288888889,0.3930421222222222,-0.0087500687777777,0.7455427333333334,-1.7185499333333334
834,1778325705300,-0.24562138,0.7094828666666666,0.4431965,-0.0824890166666666,1.0399729333333334,-1.7294413000000002
835,1778325705310,-0.238401532,0.861718398,0.50638305,-0.0738159194,1.24556119,-1.62759704
836,1778325705320,-0.22174394,1.0132536,0.5513136,-0.024597168,1.3797913,-1.4918823
837,1778325705330,-0.0862111999999999,1.3463102666666669,0.5897932088888889,0.0444691962222222,1.4663679555555555,-1.3141038555555555
838,1778325705340,0.3297984344444444,1.9777676222222225,0.5762756377777778,0.1671498588888889,1.4452463555555557,-1.0170728777777778
839,1778325705350,0.8849072444444445,2.3693037444444447,0.4869096744444444,0.1619466144444444,1.1011064377777775,-1.1694657888888889
840,1778325705360,1.3526025333333331,2.6497118555555557,0.4741103711111111,0.0590888155555555,0.8447909955555555,-1.5008917444444445
841,1778325705370,1.6986204,2.8990843,0.5007947,-0.20037842,0.8556824,-1.8455505
842,1778325705380,1.9585552444444447,2.9774129555555557,0.5547984355555555,-0.5626237644444445,1.184195622222222,-2.0677812
843,1778325705390,2.4379919,3.03539,0.6597972,-1.2512512,1.9097595000000005,-2.4644775
844,1778325705400,2.5499336444444443,2.9162489999999996,0.7770666777777778,-1.5594753444444445,2.5035230666666664,-2.7391968
845,1778325705410,2.4859631,2.6989437777777776,0.9127887111111112,-1.6588914555555556,3.0363294444444446,-3.038659066666667
846,1778325705420,2.3796632,2.541296,0.9333852,-1.4936066,2.9973907,-3.0833893
847,1778325705430,2.380313911111111,2.4717939444444443,0.9391069477777776,-1.33103437,2.896487722222222,-3.0780046333333333
848,1778325705440,2.4421418,2.0899127,0.94766253,-0.3631744355555555,2.368477677777778,-3.1658935333333336
849,1778325705450,2.3711480666666667,1.7318536333333332,0.7015437411111112,0.3206058044444445,2.0658247444444444,-3.541575111111111
850,1778325705460,2.182870955555556,1.4448010555555555,0.4303287733333333,0.5528903333333334,1.8680979444444443,-3.777359033333334
851,1778325705470,1.9553694,1.2015432,0.19608866,0.6278839,1.6588898,-3.9617157
852,1778325705480,1.5904635,0.9277519333333332,0.0015746186666666,0.4739481466666667,1.344991066666667,-3.949813833333333
853,1778325705490,1.2269808,0.6740138,-0.15681866,0.27793884,1.0591431,-3.8610382
854,1778325705500,1.0054852044444444,0.4860083888888888,-0.1861872866666666,0.0051116933333333,0.9749891666666666,-3.5222828666666666
855,1778325705510,0.8039480644444444,0.2989929222222222,-0.2024849322222222,-0.2800903355555555,0.9198337111111112,-3.1378969666666667
856,1778325705520,0.7124262433333333,0.1496164966666666,-0.1808589066666666,-0.5735728133333332,1.0039215,-2.591954566666667
857,1778325705530,0.6649570533333332,0.0448342913333333,-0.1627573033333333,-0.6832868755555555,1.070561722222222,-2.3062252111111112
858,1778325705540,0.6277654955555555,-0.0282616819999999,-0.15070374,-0.7327660377777777,1.1188574555555555,-2.0759548333333333
859,1778325705550,0.548256824,-0.1235899579999999,-0.141371356,-0.714901724,1.12444766,-1.83607178
860,1778325705560,0.4652499433333333,-0.1934749977777777,-0.1303263666666666,-0.6769663333333333,1.0845337,-1.6637471555555556
861,1778325705570,0.3404830333333333,-0.2536080066666666,-0.1003606213333333,-0.5954149222222223,1.0118543777777778,-1.381337511111111
862,1778325705580,0.23426396,-0.2866913622222222,-0.0818395764444444,-0.5440453511111111,0.9856957111111112,-1.150238077777778
863,1778325705590,0.13726377,-0.30709672,-0.07994143,-0.50717163,0.9728546,-0.8809662
864,1778325705600,0.0405762111111111,-0.3276389844444444,-0.0991268211111111,-0.5079413577777777,0.9343906022222224,-0.4499986591111111
865,1778325705610,-0.008682421,-0.34614742,-0.13595253,-0.5311432,0.8556824,-0.052719116
866,1778325705620,0.022923958,-0.34883052,-0.16487269,-0.59239197,0.7108002,0.35049438
867,1778325705630,0.1204246599999999,-0.3485869359999999,-0.154451606,-0.661956792,0.52341921,0.7038452119999999
868,1778325705640,0.20438066,-0.3437054,-0.12789851,-0.68240356,0.41519165,0.8580932599999999
869,1778325705650,0.272960635,-0.34292785625,-0.10794717775,-0.6587028500000001,0.34262275625,0.8881836
870,1778325705660,0.3442249,-0.34285143,-0.090314604,-0.59132385,0.17285156,0.9454346
871,1778325705670,0.3976461944444444,-0.3466484244444444,-0.0752094597777777,-0.49812317,0.080703735,0.91722107
872,1778325705680,0.44381419,-0.3572784,-0.0484034904444444,-0.1856367344444444,-0.1176876472222222,0.8045366077777778
873,1778325705690,0.4562470999999999,-0.3599363,-0.031984348,0.2639058388888889,-0.3441738588888888,0.6626163033333333
874,1778325705700,0.4691421455555555,-0.3515834611111111,-0.0257472388888888,0.8046501866666667,-0.567172581111111,0.5173882355555555
875,1778325705710,0.459651241111111,-0.3599357933333333,-0.0393192477777777,1.3428497,-0.7922414111111111,0.37381829
876,1778325705720,0.42415386,-0.4000835699999999,-0.08079536,1.84526364,-1.02687072,0.255685426
877,1778325705730,0.3851054488888888,-0.46138246,-0.1557476611111111,2.335495,-1.2405904,0.2421874966666667
878,1778325705740,0.35349992,-0.4909954699999999,-0.2395552,2.5975494,-1.3552856,0.29190063
879,1778325705750,0.3595744144444445,-0.4658301222222222,-0.40510727,2.8256954444444444,-1.4029219,0.4457753511111111
880,1778325705760,0.4078159622222222,-0.4226862377777778,-0.6297754288888888,2.9141760777777774,-1.445773688888889,0.6082950177777778
881,1778325705770,0.3792065666666666,-0.36221398,-0.9454086933333332,2.6332957222222224,-1.669477688888889,0.7335188133333334
882,1778325705780,0.1495885033333333,-0.2333106633333333,-1.3918306666666669,1.5995737666666665,-2.3230794333333336,1.0755768
883,1778325705790,-0.1127734899999999,-0.13235171,-1.5406244,0.8851471,-2.6575623,1.4498444
884,1778325705800,-0.212153158,0.244228954,-1.29490776,-0.43222655,-3.43910374,2.9145386
885,1778325705810,-0.0741986055555555,0.5281224,-0.9645000666666668,-1.4403381,-4.1068726,4.2823944
886,1778325705820,0.5745060722222222,0.7704158888888889,-0.4856596657777777,-2.0857154,-4.290980055555555,5.590289555555556
887,1778325705830,1.811252755555555,1.1987907,0.1385580568888889,-2.7509629666666666,-3.8615621111111103,6.8566503333333335
888,1778325705840,2.974918,1.6805059,0.45051688,-3.1713867,-2.862091,7.061661
889,1778325705850,3.8180815333333338,2.0959455222222223,0.6156080266666666,-3.5274861777777775,-2.0711974666666664,6.517368
890,1778325705860,4.5784965,2.5596004,0.8051321,-4.286194,-0.742218,4.949768
891,1778325705870,4.288801211111111,2.7478359,1.170093988888889,-4.283645644444444,-0.2317827,3.7263794
892,1778325705880,3.3405159,2.6871192,1.6339518,-3.729598999999999,0.13502502,1.9542542
893,1778325705890,2.940370211111111,2.6006690666666668,1.7224634444444444,-3.3868119777777776,0.0767974822222222,1.6379835333333332
894,1778325705900,2.21587564,2.3770694000000003,1.6579427599999998,-2.377821345,-0.0989563,1.35610047
895,1778325705910,0.9930516,1.9625134,1.4233308,-0.87309265,-0.39868164,1.141449
896,1778325705920,0.7012677244444445,1.7938438888888888,1.1281844,-0.3967912555555555,-0.5566931833333333,1.2430674222222222
897,1778325705930,0.3913684922222222,1.5761572666666668,0.6481368000000001,-0.1315426333333333,-0.6702558711111111,1.3253292777777776
898,1778325705940,0.2755506611111111,1.4939911111111113,0.3969206733333333,-0.1717376666666666,-0.6905008855555557,1.322609811111111
899,1778325705950,0.1834730566666666,1.4047610333333334,0.2148808666666666,-0.3463151777777777,-0.7902764211111112,1.2818959888888888
900,1778325705960,0.11529951,1.3360181,0.14312774,-0.5215454,-0.9174652,1.2421265
901,1778325705970,0.0392143078,1.22991469,0.131389047,-0.7220306599999999,-1.06585084,1.20184628
902,1778325705980,-0.06465309,1.0811419,0.1602924466666666,-0.8769921444444445,-1.176493311111111,1.170978088888889
903,1778325705990,-0.10874648,1.0153285,0.1658246,-0.9391327,-1.2162628,1.1568909
904,1778325706000,-0.1555371633333333,0.9273448,0.1500696377777778,-0.9784868011111112,-1.2771572777777778,1.1498531777777776
905,1778325706010,-0.17931833,0.8842009111111112,0.1451340688888888,-0.9968380388888888,-1.3097059222222225,1.1445329777777775
906,1778325706020,-0.2053510755555555,0.8448128777777778,0.1399276933333333,-1.002224391111111,-1.322372411111111,1.1396213444444443
907,1778325706030,-0.3215364844444444,0.6853353,0.1128383033333333,-1.0503997777777778,-1.3989664888888889,1.0979563444444445
908,1778325706040,-0.3287768533333333,0.6701221444444444,0.11224067,-1.171249422222222,-1.2961052666666666,1.043509588888889
909,1778325706050,-0.292374875,0.6572954099999999,0.1292651149999999,-1.28209533,-1.1582046599999998,0.979586775
910,1778325706060,-0.25017723,0.6461918,0.14019887,-1.3503265,-1.0500793,0.90390015
911,1778325706070,-0.1833862988888889,0.6260703866666666,0.1836144388888889,-1.4411163222222223,-0.7957221222222223,0.6960550944444444
912,1778325706080,-0.1333954,0.60872924,0.22134732,-1.4936066,-0.5542145,0.4990997299999999
913,1778325706090,-0.0797705033333333,0.5914411022222222,0.2561122666666666,-1.5034264666666666,-0.2764129644444444,0.2544437011111111
914,1778325706100,-0.0214950331111111,0.5616113688888889,0.30085652,-1.452412933333333,0.2060411255555555,-0.1779988633333333
915,1778325706110,0.009256376,0.53721976,0.3194593,-1.3716278,0.4769745000000001,-0.42822266
916,1778325706120,-0.0046683698666666,0.4965438599999999,0.3337632233333333,-1.14224242,0.8143717555555555,-0.7859734577777778
917,1778325706130,-0.026009934,0.4644909,0.32641363,-0.93273926,1.0154724,-1.0817566
918,1778325706140,-0.0527211973333333,0.3961006222222222,0.3490303055555555,-0.5164625399999999,0.9541625977777776,-1.4946119777777778
919,1778325706150,-0.07555356,0.3580807,0.3849881,-0.2147522,0.8530121000000002,-1.7028198
920,1778325706160,-0.07555356,0.3580807,0.3849881,-0.2147522,0.8530121,-1.7028198
921,1778325706170,-0.0838519622222222,0.4523149577777778,0.4513722111111111,0.5265570666666667,0.6346350777777778,-1.7567884222222223
922,1778325706180,-0.07787271,0.5435659,0.4761442,1.1674347,0.4711151,-1.7443542
923,1778325706190,-0.0323970576666666,0.8175594866666667,0.4242005333333333,1.425048833333333,0.4185689333333333,-1.6175893
924,1778325706200,-0.0175098441111111,1.1982891777777778,0.3786426333333333,1.4665900555555558,0.3732367733333334,-1.4626583888888889
925,1778325706210,-0.047975745,1.6174176,0.32055745,1.3261566,0.35499573,-1.2857666
926,1778325706220,0.0630846913777777,2.098426511111111,0.1700280788888889,0.7025604297777778,0.3782653844444444,-0.9626278622222224
927,1778325706230,0.2967562,2.4178026,0.10017294,-0.020339966,0.40187073,-0.62210083
928,1778325706240,0.99244139,2.76574268,0.4556672439999999,-0.9129272298,0.652107259,-0.29948883
929,1778325706250,2.1674012333333335,3.1592346888888887,1.1409695533333333,-1.9884761777777775,1.1105177333333334,-0.15995789
930,1778325706260,3.0742226666666665,3.2165480444444445,1.7046742222222222,-2.412448433333333,1.4413383888888889,-0.5938720888888889
931,1778325706270,3.5377152,3.166326,2.0830176,-2.4470215,1.7547607,-1.0924072
932,1778325706280,3.624368044444444,3.147629,2.1696704444444443,-2.392334,1.8579169,-1.2237379333333331
933,1778325706290,3.7577588,2.6367086000000004,2.4813859555555555,-0.8925543944444444,2.5008070222222223,-2.5946790666666666
934,1778325706300,3.3387261,1.8000538666666668,2.3120242666666666,1.0527394666666667,3.007517433333333,-3.6913096
935,1778325706310,3.02830509,1.51280249,1.9636605600000003,1.87717287,3.20064693,-3.95606078
936,1778325706320,2.3876359000000003,1.0254963133333332,1.2115695333333334,2.5957743333333334,3.3950958,-4.104990666666668
937,1778325706330,2.0562873,0.81373674,0.8454022,2.8010254,3.4330902,-4.130554
938,1778325706340,1.4978699666666668,0.5719838622222222,0.3716599422222222,2.7423146555555555,3.2265472444444447,-3.9848428
939,1778325706350,1.1603523,0.44496557,0.10273629,2.6417694,3.0618439,-3.8482512999999994
940,1778325706360,0.8592134055555556,0.3536610066666666,-0.1065840788888888,2.1842905333333333,2.870040888888889,-3.4396108111111108
941,1778325706370,0.57537205,0.261995418,-0.303791432,1.49415584,2.7227752799999996,-2.87908324
942,1778325706380,0.4588104499999999,0.21250157,-0.37476268,0.9197539999999998,2.7236176,-2.4751282
943,1778325706390,0.3748005222222222,0.1356236511111111,-0.3617596244444445,0.1596323555555555,2.9009280888888886,-2.0062934222222224
944,1778325706400,0.3279955,0.090961665,-0.33827537,-0.42993164,3.0559845,-1.6484833
945,1778325706410,0.28833666,0.06838612,-0.288122,-0.8009473888888888,3.2038845333333335,-1.432584977777778
946,1778325706420,0.18546505,0.0281159899999999,-0.21710254,-1.2805481,3.36438,-1.1328888
947,1778325706430,0.0569816973,-0.0317768533,-0.146276097,-1.54164584,3.32677006,-0.85443879
948,1778325706440,-0.04602368,-0.0848431133333333,-0.0855140273333333,-1.6657087444444445,3.257965066666667,-0.5820380555555555
949,1778325706450,-0.08702487,-0.10867959,-0.061515782,-1.7050629,3.1726227,-0.3765564
950,1778325706460,-0.1193355122222222,-0.1601199788888889,-0.0144791719422222,-1.6660003666666667,2.959338744444445,-0.0534227155555555
951,1778325706470,-0.1272535266666666,-0.2006476266666667,0.0158923675866666,-1.599248233333333,2.7095998333333338,0.23864746
952,1778325706480,-0.10740362,-0.2305445766666666,0.062304386,-1.4811757666666665,2.441686,0.5086873333333334
953,1778325706490,-0.074727104,-0.2518588344444444,0.1022482277777777,-1.327655388888889,2.2173817555555555,0.7442220088888889
954,1778325706500,-0.044070058,-0.2754919,0.13641606,-1.1569824,2.0375824,0.9534302
955,1778325706510,-0.044070058,-0.2754919,0.13641606,-1.1569824,2.0375824,0.9534302
956,1778325706520,0.030245687,-0.3171893,0.1762951549999999,-0.76618804,1.77052763,1.32084349
957,1778325706530,0.1307968033333333,-0.3314216033333333,0.2110980533333333,-0.4310065333333333,1.5615319333333335,1.5146467666666663
958,1778325706540,0.2407039744444444,-0.3375503588888888,0.2582549488888889,0.0570678666666666,1.2878214666666667,1.6018168333333334
959,1778325706550,0.29309472,-0.33906862,0.31055135,0.2949829,1.2093506,1.6021729
960,1778325706560,0.29309472,-0.33906862,0.31055135,0.2949829,1.2093506,1.6021729
961,1778325706570,0.29309472,-0.33906862,0.31055135,0.2949829,1.2093506,1.6021729
962,1778325706580,0.416099852,-0.297920914,0.31953272,0.83927917,1.18042603,1.364143397
963,1778325706590,0.6444155,-0.23180604,0.26259425,2.1331024,1.2860413,0.63119507
964,1778325706600,0.6444155,-0.23180604,0.26259425,2.1331024,1.2860413,0.63119507
965,1778325706610,0.6249860922222222,-0.2286870488888889,0.0860718999999999,2.3360849999999997,1.3722771333333332,0.3657633488888889
966,1778325706620,0.5796854977777778,-0.1972581636666666,-0.0745579075555555,2.1719156666666666,1.538155488888889,-0.0453219954444444
967,1778325706630,0.36232648,0.0390164613333333,-0.4952459333333333,1.6212361666666666,1.3858286666666666,-0.0196940107
968,1778325706640,0.2047866223333333,0.26603073,-0.6437544333333334,0.9557953,1.0120951,0.0511474606
969,1778325706650,0.034028187,0.48316073,-0.7697693,0.2747345,0.5387573,0.15661621
970,1778325706660,-0.1539367873333333,0.7665521622222222,-0.8061064688888888,-0.7762705444444444,-0.3843570222222222,0.5110490466666666
971,1778325706670,-0.32034433,1.082688,-0.74536306,-2.1524658,-1.5433044,1.076477
972,1778325706680,0.1362734711111111,1.2201047666666665,-0.3098695488888889,-3.811852266666667,-2.1850636444444445,1.7322658777777775
973,1778325706690,1.1298903375,1.3147092875,0.604334925,-6.36718925,-2.2351894249999997,2.263381925
974,1778325706700,1.5936755,1.3312601,1.1519374,-7.411148,-1.6306458,2.1012573
975,1778325706710,1.8501804333333336,1.133898888888889,1.948622088888889,-8.339584555555556,-0.5448506777777777,1.474522873333333
976,1778325706720,1.9550039,0.78017825,2.8934085,-9.186417,1.374466,0.29029846
977,1778325706730,1.3569278444444446,0.5705464555555556,3.310814222222222,-8.430901711111112,2.9935505555555557,-0.6846567555555556
978,1778325706740,0.5227527,0.3813888,3.525883,-7.1735992,3.969986000000001,-1.1403503
979,1778325706750,0.0073043089999999,0.3495398,3.4540079,-6.223851466666667,4.209067422222223,-1.0589159
980,1778325706760,-0.7965121868888888,0.5775839222222222,2.978828811111111,-3.294552255555556,3.795745888888889,-0.1552107133333333
981,1778325706770,-1.1514801,0.727096,2.6771739,-1.7599182,3.3723602,0.40802002
982,1778325706780,-1.0956728333333334,0.873246,2.1775073000000003,-0.1137288333333333,1.9516601333333332,1.21140544
983,1778325706790,-0.8956675777777777,0.9694994444444444,1.8232309111111111,0.8683997222222222,0.7730577233333333,1.6603546222222223
984,1778325706800,-0.646354816,1.07888038,1.53666976,1.4626221,-0.178692632,1.81204224
985,1778325706810,-0.4117295877777777,1.160338,1.2521775666666666,2.0285848333333334,-1.271302977777778,1.9040103444444445
986,1778325706820,-0.37940565,1.1684732,1.2145389,2.0702515,-1.3877716,1.9068450999999995
987,1778325706830,-0.1306841174,1.1808122888888888,0.9397842866666666,1.8860151777777776,-1.5973290444444446,1.8607398222222225
988,1778325706840,0.0047409567,1.1727444,0.76632714,1.3405304,-1.17099,1.7417297
989,1778325706850,0.0047409567,1.1727444,0.76632714,1.3405304,-1.17099,1.7417297
990,1778325706860,0.0731721892777777,1.1291397888888888,0.6915647777777778,0.6668107777777778,-0.5041334399999999,1.602298277777778
991,1778325706870,0.21060394,1.0149614,0.6264829,-0.8991852,0.98350525,1.2011108
992,1778325706880,0.2424128733333333,0.9275354222222224,0.6797958777777777,-1.2827386,1.3558163444444444,0.9708353711111112
993,1778325706890,0.2612457,0.7818877,0.7477802,-1.7210388,1.8383942,0.56674194
994,1778325706900,0.2121761333333333,0.6545294388888889,0.7861103444444445,-1.7818738777777778,1.9790022444444448,0.3414340422222222
995,1778325706910,0.1152995066666666,0.4963945122222222,0.8489410111111111,-1.6204257888888889,2.072623311111111,0.02316284
996,1778325706920,0.1246958749999999,0.44020748,0.8668796,-1.3950653,2.0722198,-0.10650635
997,1778325706930,0.1360038661111111,0.4075306177777777,0.8439922955555555,-1.1346655888888888,2.0182444222222222,-0.24179755
998,1778325706940,0.14788115,0.3461225,0.77962923,-0.611557,1.8921814,-0.5198364
999,1778325706950,0.1196243022222222,0.3176627755555555,0.6978969288888889,-0.4058532755555555,1.7965461,-0.6631706888888889
1000,1778325706960,0.06282701,0.26717034,0.5741317,-0.17054749,1.6588898,-0.8532562
