id,timestamp,acc_x,acc_y,acc_z,gyro_x,gyro_y,gyro_z
0,1778426754990,0.174851674,0.58282667,0.77794782,0.28725937,-0.9085093,0.16279559
1,1778426755000,0.1843051842857142,0.5802690428571429,0.7721443571428572,0.30061115,-0.8796241085714286,0.2287254042857142
2,1778426755010,0.2089146199999999,0.57338715,0.761081,0.32788193,-0.85902923,0.3313944
3,1778426755020,0.20891462,0.57338715,0.761081,0.3374376014285714,-0.9027933642857144,0.3286891428571428
4,1778426755030,0.2089146199999999,0.57338715,0.761081,0.36132678,-1.0122037,0.321926
5,1778426755040,0.2089146199999999,0.57338715,0.761081,0.3480913733333333,-0.9968302666666666,0.2779436933333333
6,1778426755050,0.2295517128571428,0.5756956428571429,0.7687382428571429,0.3233004285714286,-0.9382672057142856,0.2331105428571428
7,1778426755060,0.35337427,0.5895466,0.8146817,0.21426098,-0.63300914,0.09605856
8,1778426755070,0.3414310685714286,0.5859139857142858,0.8264158314285713,0.2215695457142857,-0.6200500671428572,0.0993310522857142
9,1778426755080,0.3059063528571428,0.5788055571428572,0.8266074714285715,0.4433354399999999,-0.5983425,0.20830505
10,1778426755090,0.3023346933333333,0.5712731866666666,0.7679919666666667,0.53786683,-0.68019843,0.25366178
11,1778426755100,0.2900778933333333,0.5667403933333333,0.6940242200000001,0.738561555,-0.9423614883333332,0.3185662133333333
12,1778426755110,0.2612957385714285,0.5270690742857143,0.6021082985714286,0.84681195,-1.3267993,0.3483459
13,1778426755120,0.2539782285714286,0.4916924342857142,0.534456257142857,0.7296349214285714,-1.6829337285714283,0.5258895171428571
14,1778426755130,0.2799960066666667,0.4627810499999999,0.4966651499999999,0.63407815,-1.7366899,0.63087106
15,1778426755140,0.3382862942857143,0.41995482,0.5057350728571429,0.29622601,-1.7277451285714285,0.7672249142857144
16,1778426755150,0.393254665,0.393986405,0.540915685,0.084070333,-1.76944755,0.8671232
17,1778426755160,0.4138656299999999,0.3845346299999999,0.5578374,0.029168816,-1.809841,0.8978192000000002
18,1778426755170,0.4784599657142858,0.3830014514285714,0.6030491028571429,0.0544542728571428,-2.0389591428571427,0.9554368857142858
19,1778426755180,0.5231504333333333,0.3742901333333333,0.6220586416666666,0.10262536,-2.2456934,1.0091494
20,1778426755190,0.6113858314285715,0.3369534571428571,0.6453686714285715,0.19730948,-2.3889413,1.0315987
21,1778426755200,0.7072799371428571,0.2984233428571428,0.6705530857142856,0.3900374671428571,-2.525862385714286,0.9848675142857144
22,1778426755210,0.749373,0.2787358,0.6774176,0.74637552,-2.7682376333333334,0.8253807666666667
23,1778426755220,0.7753849457142857,0.2525147371428571,0.7157473171428572,0.9631163285714284,-2.9190195285714284,0.7169812428571429
24,1778426755230,0.7782771,0.2497097,0.7249813,1.0571023,-2.9799533,0.6783658
25,1778426755240,0.7910217571428572,0.2141936842857143,0.7513678857142857,1.3240503999999995,-3.0441378571428572,0.7343909542857142
26,1778426755250,0.8111448785714286,0.1901156257142857,0.7733813428571429,1.5436128285714286,-3.0378548000000003,0.8856455342857144
27,1778426755260,0.8935480833333335,0.1895639133333333,0.7840498,1.833817466666667,-3.0066277333333336,1.1326968333333334
28,1778426755270,0.9551167,0.1915878371428571,0.7863002285714286,2.0089830714285712,-2.9853855714285715,1.2568770142857144
29,1778426755280,1.0237182,0.19263318,0.7894363,2.254289085714286,-2.9423415142857143,1.3875149714285715
30,1778426755290,1.1604742,0.1901533766666666,0.7694148266666666,2.6563475000000003,-2.75591865,1.4541647
31,1778426755300,1.2093185333333334,0.2000116666666666,0.7387829666666667,2.8965448833333336,-2.5944465833333337,1.4596370499999998
32,1778426755310,1.2278156,0.22647662,0.7151637,3.1468723000000005,-2.360536,1.4404203
33,1778426755320,1.2558049999999998,0.2591817766666667,0.5830421333333333,3.4096970666666664,-1.9538015,1.3661492
34,1778426755330,1.2650738,0.24531919,0.5262502,3.4793358,-1.7823521,1.3345878
35,1778426755340,1.3481274999999997,0.2229398299999999,0.47966215,3.536299,-1.5642731,1.2924381
36,1778426755350,1.489590457142857,0.1763517557142857,0.4039434257142857,3.622278214285714,-1.0779371585714286,1.07957344
37,1778426755360,1.5206985333333332,0.14610609,0.36494,3.658624666666667,-0.8246171800000001,0.92093029
38,1778426755370,1.5142652,0.0957372925,0.3073655,3.66068635,-0.6055202000000001,0.725326125
39,1778426755380,1.4974654,0.075126335,0.2833702,3.6560285,-0.5364924,0.6377433
40,1778426755390,1.4498305333333334,0.0941416711666666,0.2647918683333333,3.659159116666667,-0.4529565666666666,0.4027892783333333
41,1778426755400,1.4354234571428572,0.1587026414285714,0.2211191728571428,3.6445312428571426,-0.3379611971428571,0.1932297657142857
42,1778426755410,1.4499626,0.18251065,0.1288184925,3.5371389499999997,-0.250760185,0.05749769
43,1778426755420,1.4637439,0.19568215,0.050185855,3.4455855,-0.1965458999999999,-0.04046982
44,1778426755430,1.4629075857142857,0.1922324757142857,-0.0179191661428571,3.174230357142857,-0.1477203085714285,-0.2300125714285714
45,1778426755440,1.412625942857143,0.1927377271428571,-0.043399745,3.0200523,-0.1089958145714285,-0.3164936357142857
46,1778426755450,1.3830075,0.20909756,-0.03286777,2.694577433333333,-0.0404189183333333,-0.48950668
47,1778426755460,1.3113265,0.253083875,0.0053255149999999,2.5659394499999997,-0.1788308015,-0.6046802400000001
48,1778426755470,1.2547683,0.28617525,0.036160648,2.5578964,-0.3770056666666666,-0.6533712733333333
49,1778426755480,1.2098267,0.32038453,0.08122425,2.5867088,-0.528093,-0.66355234
50,1778426755490,1.1754242666666668,0.3476828866666666,0.1043556809999999,2.6808840666666662,-0.647313505,-0.6620252
51,1778426755500,1.1476889,0.3789651999999999,0.102404349,2.8016826,-0.6464481333333333,-0.6689992466666667
52,1778426755510,1.10780855,0.4299336199999999,0.0320445535,2.8415924333333336,-0.6323728166666666,-0.691474
53,1778426755520,1.0729894333333334,0.4686452366666667,-0.036424892,2.837469,-0.8210792499999999,-0.763734275
54,1778426755530,1.0431604333333333,0.4799670083333333,-0.0766914716666666,2.8211284000000005,-0.9289733,-0.7933612499999999
55,1778426755540,0.9841166885714284,0.4510019142857143,-0.1260352271428571,2.769728457142857,-1.1405508857142856,-0.8166831928571429
56,1778426755550,0.95383614,0.4314886,-0.14317909,2.6728408,-1.3738359000000002,-0.8016079
57,1778426755560,0.93965844,0.4340801833333333,-0.1436364316666666,2.6088272166666666,-1.4423037333333333,-0.7647014583333333
58,1778426755570,0.9267918333333331,0.4534106,-0.1570416866666666,2.4718153166666665,-1.4772757666666667,-0.6956991733333333
59,1778426755580,0.9223709,0.45179462,-0.17458336,2.363896,-1.4851661,-0.6409504
60,1778426755590,0.8869158928571429,0.4081858400000001,-0.2325222814285714,2.1346249428571427,-1.4389585571428571,-0.5896376714285714
61,1778426755600,0.8464823633333333,0.3949925633333333,-0.2460407833333333,1.9837593999999996,-1.420261716666667,-0.5690718333333333
62,1778426755610,0.7889223614285715,0.3976364314285714,-0.2558947271428571,1.8453148285714285,-1.4246467571428572,-0.5361433057142857
63,1778426755620,0.75251341,0.405633435,-0.2438252049999999,1.6012560166666665,-1.5379550666666668,-0.4338161233333333
64,1778426755630,0.70748028,0.43148859,-0.22553145,1.4947108666666669,-1.6196583166666667,-0.3819943999999999
65,1778426755640,0.66089222,0.449050575,-0.225683895,1.4347696999999997,-1.6858354,-0.3379612
66,1778426755650,0.63625664,0.44734317,-0.23080614,1.3691018,-1.8070921,-0.28496864
67,1778426755660,0.63625664,0.44734317,-0.2308061399999999,1.3691018,-1.8070921,-0.28496864
68,1778426755670,0.5599107200000001,0.481796415,-0.253581875,1.2860241,-1.8646661,-0.26267207
69,1778426755680,0.4977932766666667,0.5120420733333334,-0.2658895066666666,1.09691035,-1.82406905,-0.3140610949999999
70,1778426755690,0.4040174916666666,0.50932852,-0.2781767833333333,0.8674032,-1.5620842333333331,-0.41314852
71,1778426755700,0.35156524,0.4841949066666666,-0.3062373666666667,0.7740680566666667,-1.4035646666666668,-0.4561636133333333
72,1778426755710,0.3021111266666667,0.4781579766666666,-0.3343487566666667,0.7266751133333335,-1.3555863333333331,-0.4552727766666666
73,1778426755720,0.2522809916666667,0.480922385,-0.3564841966666667,0.6435465416666667,-1.3082442,-0.4435645266666667
74,1778426755730,0.21532615,0.4662641571428571,-0.3485482128571428,0.6164503028571428,-1.3447762,-0.4186826828571428
75,1778426755740,0.1700709,0.4656979,-0.34928867,0.6263914066666666,-1.2866349666666668,-0.3569998266666667
76,1778426755750,0.10573788,0.4648441699999999,-0.37563166,0.6443101,-1.2072225,-0.29123
77,1778426755760,0.064341735,0.4618736414285714,-0.4196760585714286,0.6559602142857143,-1.115156357142857,-0.1287834842857143
78,1778426755770,0.0281723744285714,0.4519601642857142,-0.4887393271428571,0.6579455142857144,-1.010371142857143,0.05582872
79,1778426755780,0.0567004665,0.4455036166666666,-0.541535675,0.659429,-0.9401216,0.15409076
80,1778426755790,0.0897003551428571,0.4510541914285714,-0.5786574714285714,0.6888596257142857,-0.7711083142857144,0.3509420857142857
81,1778426755800,0.110006414,0.4552095,-0.6018644,0.6986770999999999,-0.7496844,0.3735441
82,1778426755810,0.123132183,0.4733050649999999,-0.6445650625,0.7225008500000001,-0.7248298125,0.388739375
83,1778426755820,0.16250949,0.52759176,-0.77266705,0.7939721,-0.65026605,0.4343252
84,1778426755830,0.1597654233333333,0.5393302516666666,-0.8321216750000001,0.7939721,-0.6441574250000001,0.4129449083333333
85,1778426755840,0.1422556942857142,0.5616529857142857,-1.0280913714285715,0.6969318057142857,-0.6375688085714286,0.3447897928571428
86,1778426755850,0.13128816,0.570826,-1.121346,0.54993147,-0.61529404,0.25961772
87,1778426755860,0.0719554239999999,0.5810704999999999,-1.2119305,0.2969568835,-0.5579490699999999,0.218613395
88,1778426755870,0.012622688,0.591315,-1.302515,0.043982297,-0.5006041,0.17760907
89,1778426755880,-0.039880378,0.62284124,-1.2798612,-0.4008803033333333,-0.4137593933333334,0.2219986066666666
90,1778426755890,-0.0535397121428571,0.6491406857142857,-1.2095565857142856,-0.5840308,-0.3336851428571429,0.2272636857142857
91,1778426755900,-0.05719846,0.6650388,-1.1187848,-0.7338019,-0.21303925,0.20173825
92,1778426755910,-0.097485365,0.6922355333333333,-1.0466667333333337,-0.7211009866666666,-0.1253037308333333,0.1612684226666666
93,1778426755920,-0.1585981071428571,0.7275773285714286,-0.96464685,-0.6233661857142857,0.0157079632857142,0.0636172527142857
94,1778426755930,-0.1848075266666666,0.74079522,-0.9464373566666668,-0.4198171466666667,0.0403680106666666,0.0507527203333333
95,1778426755940,-0.1694349799999999,0.7231432342857144,-0.9364396828571429,-0.0656680117142857,0.0299978471571428,0.0210312182857142
96,1778426755950,-0.159135315,0.7111492416666666,-0.95238281,0.118202426,0.0062613687,-0.009773844
97,1778426755960,-0.1464109842857142,0.6760412285714287,-0.9840556514285714,0.53265266,0.0037306414285714,-0.0885536422857142
98,1778426755970,-0.12189735,0.6297319,-1.0292674,0.62598413,0.01740966,-0.105374254
99,1778426755980,-0.0897206833333333,0.5620856133333333,-1.0860999333333334,0.7763588,0.080328782,-0.1133664113333333
100,1778426755990,-0.0738893271428571,0.5026512742857142,-1.1414341714285714,0.8230318314285715,0.1434660685714285,-0.1043052385714285
101,1778426756000,-0.07378479,0.4938703,-1.1505549,0.83001316,0.1768454899999999,-0.0852157
102,1778426756010,-0.0595679365714285,0.4784251214285714,-1.1585781,0.8558004,0.17078047,0.0098174768571428
103,1778426756020,-0.044331856,0.4730154,-1.1625679,0.86834496,0.1563815,0.040775254
104,1778426756030,-0.00652477,0.472619055,-1.17281225,0.93729635,-0.004810565,0.052763485
105,1778426756040,0.0179540088571428,0.4788345771428571,-1.182664814285714,0.9770353314285716,-0.1270817871428571,0.0210966665714285
106,1778426756050,0.028268199,0.4862566028571428,-1.1916287857142858,0.9835584985714286,-0.1941678742857142,-0.0212930168571428
107,1778426756060,0.0375326785,0.49188848,-1.19513075,0.935234675,-0.2618066583333333,-0.0968221416666666
108,1778426756070,0.0266885491666666,0.4938906233333333,-1.1853842166666666,0.8433249333333332,-0.2655227683333333,-0.1646281916666666
109,1778426756080,-0.000406528,0.5028138733333334,-1.1566121333333337,0.72387532,-0.2130901666666667,-0.1793398633333333
110,1778426756090,-0.0180091811666666,0.512153855,-1.1244457499999998,0.6028730933333333,-0.1181769666666666,-0.1695151116666666
111,1778426756100,-0.025123417,0.52856743,-1.0932955,0.52931476,-0.0355829,-0.15653422
112,1778426756110,-0.0232417741428571,0.5465476042857143,-1.0687296142857143,0.4861178457142857,0.0195258717142857,-0.1587595171428571
113,1778426756120,-0.038904708,0.5614962,-1.0491467,0.3263547533333333,0.1864666133333333,-0.1758782833333333
114,1778426756130,-0.0467013325714285,0.5784570857142857,-1.013273342857143,0.25977044,0.2086759285714285,-0.1683151928571428
115,1778426756140,-0.0467100435,0.5817107666666667,-0.9949360416666666,0.1641954833333333,0.22118412,-0.1420516306666666
116,1778426756150,-0.0504907508571428,0.5831089285714286,-0.9606223142857144,0.0533416271428571,0.2378665685714285,-0.10271263
117,1778426756160,-0.0768134246666666,0.596234,-0.9021258333333332,-0.13902275,0.28837929,0.0030543259999999
118,1778426756170,-0.098725274,0.61195642,-0.83056675,-0.20906863,0.31138855,0.06169739
119,1778426756180,-0.060094971,0.58018627,-0.76178225,-0.28277971,0.2271909766666666,0.2282090666666666
120,1778426756190,-0.021464668,0.5476539,-0.7227251,-0.28145617,0.1098030299999999,0.34345898
121,1778426756200,-0.021464668,0.5476539,-0.7227251,-0.28145617,0.10980303,0.34345898
122,1778426756210,0.004146583,0.4456357566666666,-0.6622134333333333,-0.1735620916666666,-0.0907643911666666,0.6233116366666667
123,1778426756220,0.0279720155714285,0.3689500885714286,-0.6110287,-0.0844521148571428,-0.2741912228571428,0.8832020857142856
124,1778426756230,0.0441590816666666,0.3340133883333333,-0.58322505,-0.031306844,-0.410196,1.05023
125,1778426756240,0.0768511707142857,0.2943987042857143,-0.5458419485714285,0.0188277394285714,-0.4933827671428571,1.171617671428571
126,1778426756250,0.102566965,0.27532095,-0.53314084,0.1366811,-0.67271537,1.4225525
127,1778426756260,0.3002178742857143,0.2707997857142857,-0.49006344,0.5107924185714285,-1.1931506857142855,1.656295657142857
128,1778426756270,0.4095360833333334,0.2705747333333333,-0.47373701,0.752764125,-1.4548773833333335,1.6766723499999998
129,1778426756280,0.4726495,0.2520269,-0.48984566,0.93233305,-1.5477798,1.6362026
130,1778426756290,0.5508683857142856,0.2131047785714285,-0.5536385742857143,1.0157815857142858,-1.4345515285714288,1.5299774428571429
131,1778426756300,0.5419828333333333,0.1532813033333333,-0.64528158,1.010167466666667,-0.9784533666666668,1.2693270333333333
132,1778426756310,0.5341165,0.1349469,-0.67424667,0.9517280500000002,-0.8258898,1.2098186
133,1778426756320,0.5157705057142856,0.1024362891428571,-0.7187266328571429,0.7145378071428572,-0.42716934,1.1175343999999998
134,1778426756330,0.5549104,0.076528855,-0.7474217,0.3749185433333333,-0.0102828986666666,0.9970338666666666
135,1778426756340,0.6348192642857143,0.1411057942857143,-0.7450173142857143,0.2076287371428571,0.0483238059714285,0.8374308142857142
136,1778426756350,0.74942524,0.1424473285714285,-0.7576574571428571,0.1857684799999999,-0.1884082882285714,0.6185883414285714
137,1778426756360,0.87584376,0.1419595,-0.7569954,0.19501872,-0.4373795,0.45234573
138,1778426756370,0.7765087,0.06390616,-0.78961927,0.0842994,-0.5325218,0.12629639
139,1778426756380,0.7106309233333334,0.0717724766666666,-0.7754111233333334,-0.142077072,-0.3324125076666667,0.16096299
140,1778426756390,0.6546724,0.06768687,-0.7560807,-0.42562035,-0.062002823,0.23777929
141,1778426756400,0.7652536971428571,0.0236424921428571,-0.6710409057142857,-0.6489134142857143,0.098131136,0.4949971814285714
142,1778426756410,0.9217204733333334,0.006951625,-0.5835503000000001,-0.8413650666666666,0.22398392,0.8923213666666667
143,1778426756420,1.0389631,0.005488125,-0.5265551,-0.8222245999999999,0.22021692,1.0340421
144,1778426756430,1.2097482428571429,0.06412395,-0.4935740671428572,-0.4992514357142857,0.0292124485714285,0.9303913714285714
145,1778426756440,1.2859286,0.11909231,-0.48978466,-0.1192714453333333,-0.2281072633333333,0.74291391
146,1778426756450,1.2991611571428572,0.1436320828571428,-0.5356758742857143,0.3650137902857143,-0.6488479557142857,0.4403901928571428
147,1778426756460,1.29099,0.17543708,-0.6165604,0.63270366,-0.8859073000000001,0.27382034
148,1778426756470,1.1693365,0.1516958433333333,-0.8134824033333333,0.8846855699999999,-1.1235339000000002,0.00542143
149,1778426756480,1.0208087285714285,0.0940734307142857,-0.9381296857142856,0.8124943971428572,-1.0119855214285711,-0.0477129385714285
150,1778426756490,0.9724754666666668,0.0829316641666666,-0.96655035,0.70157874,-0.8475755499999998,-0.05513059
151,1778426756500,0.89422895,0.1092136899999999,-0.98963092,0.3623958086666667,-0.54575718,0.0271835023333333
152,1778426756510,0.8907227066666666,0.12327955,-0.9787969466666668,-0.0255799819999999,-0.39057197,0.1046106705
153,1778426756520,0.90090626,0.11945819,-0.9724348,-0.11789699,-0.40775254,0.1139263659999999
154,1778426756530,0.9634709,0.13586158,-0.9734714,-0.27687466,-0.5795584,0.0105374249999999
155,1778426756540,0.9308469,0.13616648,-0.9988997,-0.3659083,-0.871552,-0.11804971
156,1778426756550,0.90801025,0.0590786516666666,-0.96658075,-0.40215296,-0.9679414666666668,-0.1165225421666666
157,1778426756560,0.8616279975000001,-0.01618234685,-0.911364185,-0.4729433187499999,-0.70982543125,-0.019795851875
158,1778426756570,0.82037308,0.0234566548,-0.8696035866666666,-0.5257259,-0.3430771999999999,0.09071349
159,1778426756580,0.8105147916666667,0.0417097525,-0.8626722583333333,-0.52839845,-0.21303925,0.13927728
160,1778426756590,0.8322785357142858,0.0775306571428571,-0.8913673214285714,-0.5390013,-0.0310886797142857,0.2123193128571428
161,1778426756600,0.9214867,0.12973318,-0.97420315,-0.5794820500000001,-0.125609167,0.08452848
162,1778426756610,0.94316477,0.158655594,-1.0275355000000002,-0.62885523,-0.246392498,-0.0623998859999999
163,1778426756620,0.90389425,0.16763173,-1.0440243,-0.70631295,-0.3339905699999999,-0.18432859
164,1778426756630,0.7767119733333333,0.1744410733333333,-0.9942144666666666,-1.0163016583333333,-0.30466905,-0.2734385566666666
165,1778426756640,0.68668642,0.1578445799999999,-0.938713315,-1.2722795833333334,-0.1388445853333333,-0.2401209466666666
166,1778426756650,0.6630265,0.15567982,-0.91822433,-1.3692545,-0.030543262,-0.1884519299999999
167,1778426756660,0.6568066,0.16464376,-0.8490129999999999,-1.4371114333333337,0.084757552,-0.1174388446666666
168,1778426756670,0.68538555,0.1777949266666666,-0.7471574266666666,-1.5540920666666669,0.3623958066666666,0.039909862
169,1778426756680,0.70827305,0.18873052,-0.6779664,-1.5166256,0.45646906,0.070554934
170,1778426756690,0.70827305,0.18873052,-0.6779664,-1.3967434,0.505491,0.082619525
171,1778426756700,0.7515769357142857,0.2308584142857142,-0.6182764971428572,-1.2363912571428572,0.5346380000000001,0.0632027375714285
172,1778426756710,0.7537533333333334,0.2467013816666666,-0.6184710383333333,-1.0262536,0.5717699,0.01740966
173,1778426756720,0.73175,0.2408067399999999,-0.62375593,-0.93828905,0.59620446,-0.0291688159999999
174,1778426756730,0.65936775,0.2380931666666666,-0.5983174183333333,-0.6811656616666667,0.6104579766666667,-0.0043778673333333
175,1778426756740,0.624325045,0.24093886,-0.5771576433333333,-0.4475606,0.5799147333333333,0.061391956
176,1778426756750,0.61101127,0.24800226,-0.56094736,-0.25961772,0.5296202,0.13316862
177,1778426756760,0.8993106166666666,0.2340278766666666,-0.682468725,0.092469725,0.37644571,0.0545960785
178,1778426756770,0.97847175,0.31254873,-0.862458855,0.060857447375,0.44104471,-0.3165809165
179,1778426756780,0.660611704,0.37365596,-0.908040736,-0.0588874101,0.4923268399999999,-0.4085772239999999
180,1778426756790,0.43453756,0.3684971000000001,-0.8229748,-0.09773844,0.4784602,-0.27259862
181,1778426756800,0.6007261233333333,0.3133516066666666,-0.77591925,-0.104788839,0.281837945,0.1578577666666666
182,1778426756810,0.6927721360000001,0.289651042,-0.73973828,-0.055283304,0.21273382,0.2782491
183,1778426756820,0.6884548,0.28794363,-0.7329086,-0.025503624,0.11499538,0.37018433
184,1778426756830,0.781458175,0.22331586,-0.6161640166666666,0.11988231,-0.0448985959999999,0.63224554
185,1778426756840,0.9723738,0.22915971,-0.5425316,0.36713,-0.03604105,0.63697976
186,1778426756850,1.19667545,0.2703511416666667,-0.6098831383333333,0.6001241916666666,0.0035888336666666,0.2648355416666667
187,1778426756860,1.26526884,0.2882973199999999,-0.667136484,0.77320268,0.047342058,-0.111727252
188,1778426756870,1.1583602333333334,0.28214045,-0.7390877916666666,0.8294531900000001,0.14172074,-0.5545129166666666
189,1778426756880,0.8826937999999999,0.2296882133333333,-0.8096000833333333,0.7627416349999999,0.304439965,-0.7267005750000001
190,1778426756890,0.81949905,0.2022678999999999,-0.8107180499999999,0.7020369166666667,0.3974187416666666,-0.6746243233333334
191,1778426756900,0.80130692,0.17474597,-0.7916315799999999,0.6262896000000001,0.5395467233333333,-0.4838561733333333
192,1778426756910,0.81504756,0.15385045,-0.76248354,0.5847508,0.63545257,-0.33826664
193,1778426756920,0.9015566533333332,0.1325483833333333,-0.7014637133333333,0.4902957,0.99334325,-0.0807105695
194,1778426756930,0.9634505,0.1178117486666666,-0.6570912133333334,0.43010005,1.2061279666666669,0.0232383318333333
195,1778426756940,1.0007291,0.109640546,-0.62936604,0.3623958,1.4266758,0.077579886
196,1778426756950,1.0470646428571428,0.1139962,-0.5743018285714286,0.2961169314285714,1.6588046,0.0811141762857142
197,1778426756960,1.0588423,0.1228120399999999,-0.544544,0.2733622,1.7806722,0.054519724
198,1778426756970,1.06783675,0.1334325733333333,-0.5111578566666667,0.2800562666666666,1.7851518833333333,0.0418697228333333
199,1778426756980,1.075225433333333,0.1456792266666666,-0.4891138933333334,0.5366960266666667,1.6049211666666665,-0.2359976155
200,1778426756990,1.009693075,0.127568417,-0.5009743400000001,0.7742208066666668,1.3594806000000002,-0.4346815366666667
201,1778426757000,0.96761745,0.113116354,-0.5069808,0.8706357,1.273654,-0.49312097
202,1778426757010,0.96761745,0.113116354,-0.5069808,0.8706357,1.273654,-0.49312097
203,1778426757020,0.8229443666666666,0.0690589073333333,-0.5250204666666667,0.8706356999999999,1.273654,-0.4931209699999999
204,1778426757030,0.8195397166666667,0.0489052926666666,-0.5298073066666666,0.9868019,1.4820609333333332,-0.1539889473333333
205,1778426757040,0.9587145,0.1023840159999999,-0.57668,1.0009027,1.7496707,0.21319197
206,1778426757050,1.0262387666666666,0.1532813053333333,-0.6488793066666667,1.03577295,1.6413695333333334,0.1849394533333333
207,1778426757060,1.0600009,0.17872995,-0.68497896,1.042747,1.6197092999999998,0.17928895
208,1778426757070,1.0189313999999998,0.1946658383333333,-0.7056306,1.15025925,1.0826568583333334,-0.1013781816666666
209,1778426757080,0.8878160566666665,0.2217405866666666,-0.7391081866666666,1.2045244333333334,0.4273256833333334,-0.3801872583333334
210,1778426757090,0.8651622416666666,0.2067803516666666,-0.7333761066666667,1.1681271,0.3098614,-0.37675115
211,1778426757100,0.8867591,0.137569005,-0.70821207,0.9257153866666666,0.2615521266666666,-0.1906663116666666
212,1778426757110,0.9029186,0.1232389,-0.7017482999999999,0.8126035000000001,0.2857322,-0.10995574
213,1778426757120,0.9029186,0.1232389,-0.7017483,0.8010843285714285,0.29170996,-0.1029744228571428
214,1778426757130,0.9260297,0.161838715,-0.6844606999999999,0.6591745133333333,0.3384702566666666,-0.0823140866666666
215,1778426757140,0.93362768,0.223744762,-0.6548065000000001,0.417465316,0.32018501,-0.176142984
216,1778426757150,0.9078172233333334,0.2358470966666666,-0.6480052866666667,0.4133012499999999,0.22057325,-0.2733621866666667
217,1778426757160,0.87688047,0.22897679,-0.65089166,0.42562035,0.13057245,-0.33414328
218,1778426757170,0.8345434557142858,0.2416081685714285,-0.6576429028571429,0.41078505,0.0675224285714285,-0.3698134371428571
219,1778426757180,0.7895176066666667,0.2473111766666666,-0.6551195,0.3506111833333333,-0.0987056416666666,-0.39192097
220,1778426757190,0.7732159,0.24227023,-0.6436961,0.28621581,-0.1952987083333333,-0.3677663283333333
221,1778426757200,0.7600849900000001,0.216770775,-0.611570225,0.1549816023333333,-0.27870727,-0.31301752
222,1778426757210,0.74443364,0.19781642,-0.57655805,0.093767814,-0.27259862,-0.30589077
223,1778426757220,0.7142489900000001,0.1945641966666666,-0.553619725,0.092011576,-0.2215150083333333,-0.29018644
224,1778426757230,0.6899183,0.2037923799999999,-0.54003155,0.0983493,-0.14630222,-0.2660318
225,1778426757240,0.66325008,0.2154394066666666,-0.5505606,0.1879428733333333,-0.2213877466666666,-0.2515746733333333
226,1778426757250,0.64322856,0.22487084,-0.5839771666666667,0.3056616933333333,-0.4063017433333333,-0.2459750666666667
227,1778426757260,0.6398544,0.2154394,-0.6147919,0.40301836,-0.61666846,-0.2648101
228,1778426757270,0.6398282628571429,0.1944015871428571,-0.6455777285714286,0.4602651485714286,-0.8600110000000001,-0.2773328314285714
229,1778426757280,0.640891036,0.16182652,-0.67691756,0.450299316,-0.951697518,-0.271621252
230,1778426757290,0.6348236333333334,0.1531085283333333,-0.6994310833333333,0.39894592,-0.8768461666666667,-0.2609667333333333
231,1778426757300,0.5892417,0.16448114,-0.7537635000000001,0.230703434,-0.5992842266666667,-0.2341650033333333
232,1778426757310,0.5465562999999999,0.21176033,-0.7603289000000001,0.0514653985,-0.3905719650000001,-0.16676621
233,1778426757320,0.5185059,0.25696623,-0.7561417,-0.018325957,-0.32375857,-0.12965615
234,1778426757330,0.5027558257142857,0.2907660842857143,-0.7348512257142857,-0.0943568634285714,-0.3053235342857143,-0.0930042328571428
235,1778426757340,0.49923645,0.29529162,-0.71357822,-0.1717294876666666,-0.29082277,-0.072234816
236,1778426757350,0.4963094399999999,0.295596525,-0.7077241999999999,-0.22668191,-0.1829032366666666,-0.1149444766666666
237,1778426757360,0.4914006166666667,0.3007797533333333,-0.7118199416666666,-0.2364557583333333,-0.1431206326666666,-0.1513418683333333
238,1778426757370,0.4709218,0.3258523566666667,-0.7343111433333332,-0.2706133,-0.0803796823333333,-0.2688316233333333
239,1778426757380,0.4619782,0.34154433,-0.74321413,-0.2910773,-0.082924955,-0.30375275
240,1778426757390,0.4497823642857143,0.3412829871428571,-0.7519253942857143,-0.3121085171428571,-0.085106615,-0.3288854928571428
241,1778426757400,0.4400764983333333,0.358222125,-0.7705327333333334,-0.3875176283333333,-0.073100207,-0.3628539516666667
242,1778426757410,0.4370376857142857,0.3710234,-0.7754720628571429,-0.4205807142857142,-0.0467530088571428,-0.3791727771428571
243,1778426757420,0.415585218,0.400084326,-0.784862862,-0.496694528,0.0798095444,-0.452590056
244,1778426757430,0.40880433,0.42203683,-0.7916925499999999,-0.527024,0.12965615,-0.49006665
245,1778426757440,0.4004153357142857,0.43075684,-0.8055696714285715,-0.5757841285714286,0.2410517914285714,-0.5871505857142857
246,1778426757450,0.38291868,0.4373730899999999,-0.8291642650000001,-0.6439028933333333,0.4234568783333333,-0.7207192166666667
247,1778426757460,0.3457112333333333,0.4438673566666666,-0.8790756766666666,-0.7538077200000001,0.6199773066666666,-0.8740972533333333
248,1778426757470,0.3156804514285714,0.44835367,-0.9093126257142856,-0.8156141885714286,0.6953828142857142,-0.9488700642857144
249,1778426757480,0.27952853,0.45392892,-0.92956644,-0.86742866,0.72494435,-0.9978484
250,1778426757490,0.20375172,0.48602432,-0.9593242866666666,-0.9008735116666666,0.6070473383333334,-1.0031425166666663
251,1778426757500,0.184035125,0.487924845,-0.9654526583333332,-0.9133453366666666,0.4741841466666667,-0.9754499766666666
252,1778426757510,0.1293629557142857,0.4645044614285714,-0.9774350857142858,-0.9459248071428572,0.3422372571428571,-0.8640688900000001
253,1778426757520,0.0888466499999999,0.4474244633333333,-0.9808601116666668,-0.980235075,0.3320561766666667,-0.7979427266666667
254,1778426757530,0.07390675,0.4520995300000001,-0.96383667,-1.0372492,0.3750712600000001,-0.72158456
255,1778426757540,0.0907718485714285,0.4424561228571428,-0.8912889428571429,-1.0344348857142858,0.5170101628571429,-0.6795875857142857
256,1778426757550,0.0961234966666666,0.4369462,-0.8645321566666667,-1.0193814,0.5664248,-0.6818783
257,1778426757560,0.0970381833333333,0.4744788666666666,-0.8415531733333333,-0.949259125,0.6581818833333334,-0.7086036333333333
258,1778426757570,0.0974272842857142,0.5429149428571429,-0.8510252285714286,-0.4952808114285714,0.8200211285714286,-0.8669486857142857
259,1778426757580,0.09433477,0.5774118,-0.8760267,-0.18952094,0.7866417,-0.99097615
260,1778426757590,0.0951274986666666,0.5890384666666667,-0.9379002533333334,0.1836159136666666,0.6162612333333333,-1.1777991083333332
261,1778426757600,0.0953017277142857,0.5776208171428572,-1.0162962285714283,0.5662066571428571,0.4039128314285714,-1.4007358857142855
262,1778426757610,0.0722399899999999,0.4933824533333333,-1.0895351333333334,0.6391178,0.36071593,-1.4498887
263,1778426757620,0.0617719,0.45880726,-1.1156139,0.7755443,0.3166827216666666,-1.5761341166666665
264,1778426757630,0.0073959034285714,0.3826355571428572,-1.1579681857142856,0.7546149071428572,0.3892520657142856,-1.5920021285714283
265,1778426757640,-0.0522155891428571,0.35570018,-1.124333871428571,0.4791801542857143,0.667872057142857,-1.3299845285714285
266,1778426757650,-0.0536616666666666,0.36691163,-1.0538216666666669,0.4147775,0.72265357,-1.2368494
267,1778426757660,-0.0446672396666666,0.3727249816666667,-1.022234476666667,0.4268420883333333,0.7120397916666666,-1.1545353100000002
268,1778426757670,-0.0148440718428571,0.3900576,-0.96650237,0.5682573742857143,0.5804310800000001,-0.6636396485714285
269,1778426757680,0.0029168366166666,0.4182154549999999,-0.9538665916666668,0.6763805,0.47571132,-0.5578727
270,1778426757690,0.004817354,0.4211221299999999,-0.9543849,0.8415686833333335,0.2853758833333333,-0.44206282
271,1778426757700,0.0116121757142857,0.43101817,-0.9951364714285714,1.0393654285714289,0.0171260414285714,-0.2891574242857143
272,1778426757710,0.0007927291333333,0.4414891766666666,-1.0550209333333334,1.0920744,-0.09056077,-0.22876903
273,1778426757720,-0.0022562293,0.44539183,-1.0701844,1.0743593,-0.18829921,-0.12461651
274,1778426757730,-0.001936088725,0.4413672025,-1.0767244,0.9948704225,-0.231365215,-0.03733913825
275,1778426757740,0.0004355654514285,0.4411407314285714,-1.059966085714286,0.8156578185714286,-0.2230312671428571,0.1039343569999999
276,1778426757750,0.0041465834,0.44685537,-1.0389631,0.6658431062500001,-0.18033887875,0.20754146625
277,1778426757760,0.00105697215,0.4474041516666666,-1.0142461833333334,0.538019555,-0.1385136975,0.31994067
278,1778426757770,-0.0029182888142857,0.4441199685714285,-0.9978195142857142,0.4478514914285714,-0.1402153914285714,0.4372049742857143
279,1778426757780,-0.0059759586,0.44246481,-0.9912773,0.3811290133333333,-0.1939497099999999,0.5554292066666667
280,1778426757790,-0.0053661669371428,0.4418724814285714,-0.9759977285714286,0.31869713,-0.3243476242857143,0.7348927142857143
281,1778426757800,-0.00079272914,0.44014767,-0.9701176,0.29260445,-0.41798455,0.8434522000000001
282,1778426757810,0.03467682081,0.43298259,-0.9537141833333332,0.279878075,-0.5279403166666666,0.94666295
283,1778426757820,0.0608920557142857,0.4237529599999999,-0.9400722428571427,0.2843577728571428,-0.9184140571428572,1.3081024428571428
284,1778426757830,0.08296216,0.41349974,-0.92840785,0.29046643,-1.0218248,1.4173601
285,1778426757840,0.10278039,0.3997895866666667,-0.9217002,0.300163915,-1.125061,1.5362497
286,1778426757850,0.1206167899999999,0.36142352,-0.9128582,0.3116430666666667,-1.3890312,1.8898134666666664
287,1778426757860,0.1455311399999999,0.3221355057142857,-0.9037984142857144,0.3109085714285714,-1.4317808857142855,1.9643899285714288
288,1778426757870,0.1979891966666666,0.2642532166666667,-0.8791773333333334,0.292299025,-1.52981025,2.3395119833333333
289,1778426757880,0.26938564,0.2522301466666666,-0.85513121,0.3013092799999999,-1.561066066666667,2.515034033333333
290,1778426757890,0.36203334,0.25653934,-0.82553595,0.3275765,-1.5787812,2.5925121
291,1778426757900,0.51125802,0.2633864628571428,-0.8091761357142858,0.38713586,-1.6022123142857143,2.4783675
292,1778426757910,0.6566541683333333,0.2506243749999999,-0.8124051433333334,0.3989968166666666,-1.46149515,2.209881316666667
293,1778426757920,0.7664645685714285,0.2370870142857142,-0.8507813485714285,0.2699151714285714,-0.9255699142857142,1.5286684428571429
294,1778426757930,0.7531130200000001,0.2473315099999999,-0.8800310666666666,0.033368515,-0.50930889,1.09085262
295,1778426757940,0.710224356,0.26516181,-0.9163096,-0.2390621,-0.149234384,0.699990482
296,1778426757950,0.68339354,0.27404037,-0.9347496,-0.6866779485714286,0.1776745228571428,0.2235766805714286
297,1778426757960,0.6398456657142857,0.2808439028571428,-0.9129539314285714,-1.1361220971428572,0.2588759614285714,-0.1899790945714286
298,1778426757970,0.61088926,0.28019926,-0.88901526,-1.3518448,0.21777347,-0.3616322299999999
299,1778426757980,0.5842065671428571,0.2615831985714286,-0.8340294742857142,-1.6823447285714288,0.1021017635714285,-0.4822562828571429
300,1778426757990,0.5877172249999999,0.17528462,-0.7184260349999999,-2.055052533333334,-0.0403680133333333,-0.5176574
301,1778426758000,0.6020473,0.1083599799999999,-0.67205137,-2.2204952,-0.0795652,-0.4604396800000001
302,1778426758010,0.5999130428571429,0.0430251585714285,-0.5690837485714286,-2.5510605142857146,0.2890483371428571,-0.1340631057142857
303,1778426758020,0.59905934,0.01689123,-0.5278967,-2.78310215,0.760069075,0.263511995
304,1778426758030,0.7412220999999999,0.0796997708333333,-0.2708999316666666,-2.75372975,0.8289186983333333,0.43015094
305,1778426758040,0.8736486,0.119946025,-0.18659624,-2.480025642857143,0.5891577314285714,0.6598871628571429
306,1778426758050,0.9256841,0.1581088208333333,-0.1564115566666666,-2.2504275,0.21884248,0.7341073000000001
307,1778426758060,1.0923198714285711,0.2547361214285714,-0.1110953325714285,-1.4211125142857142,-0.6229734771428571,0.7030622714285714
308,1778426758070,1.1155529,0.2591005,-0.11049425,-0.8700248,-1.1983649,0.6618725
309,1778426758080,1.1223825333333333,0.24588833,-0.15950117,0.0171805949999999,-1.75745925,0.53649241
310,1778426758090,1.1052822714285715,0.2266072928571428,-0.2041146942857143,0.4438808714285714,-1.8002198000000005,0.5318890928571428
311,1778426758100,1.0353131,0.20133578,-0.3135461714285714,0.69182672,-1.5134840714285716,0.6040802999999999
312,1778426758110,0.95011637,0.1994323649999999,-0.51231647,0.7459428199999999,-0.9472229,0.7476227349999999
313,1778426758120,0.92005364,0.21249207,-0.63511836,0.7156286,-0.7498371,0.79901177
314,1778426758130,0.90261364,0.22037871,-0.705407,0.59666264,-0.63346726,0.8390234
315,1778426758140,0.9987168,0.2319241,-0.7799438666666667,0.4551455233333333,-0.7673485766666667,0.8232427333333333
316,1778426758150,1.0514028,0.23623328,-0.78157,0.4016439,-1.1939361,0.63789606
317,1778426758160,1.094759,0.19190145,-0.78022844,0.441961,-1.4051428,0.42821655
318,1778426758170,1.1267121,0.13201989,-0.7973026,0.49220467,-1.5404494,0.25992316
319,1778426758180,1.0789305285714286,0.0934723471428571,-0.7942101,0.4803582371428571,-1.31781085,0.2293799
320,1778426758190,1.0598179,0.07805333,-0.7929730999999999,0.35308012,-0.66798115,0.29779682
321,1778426758200,0.9429556857142856,0.1196498299999999,-0.8351793642857144,0.2173807628571428,-0.416282852,0.3892738728571429
322,1778426758210,0.90729885,0.1532304766666666,-0.8626011033333333,-0.13932818,-0.0848593626666666,0.5285002333333334
323,1778426758220,0.9627391,0.23794071,-0.91529727,-0.2780964,-0.13240504,0.5018258
324,1778426758230,1.0139616,0.2428190449999999,-0.887246885,-0.3227913833333333,-0.2737439833333333,0.3391065733333333
325,1778426758240,1.0584851,0.2463819742857143,-0.8558426385714286,-0.3697262042857143,-0.4883867628571429,0.0548906085714285
326,1778426758250,0.9621089666666666,0.2390180133333333,-0.8516960233333334,-0.3666718766666666,-0.4040873666666666,-0.1735875399999999
327,1778426758260,0.8907749285714285,0.2338812442857143,-0.8744587,-0.4156065428571428,-0.2793399542857143,-0.2231621628571428
328,1778426758270,0.8502223233333334,0.2296678783333333,-0.8868403833333334,-0.49480085,-0.1353066526666666,-0.2232966983333333
329,1778426758280,0.8016234557142857,0.2301266699999999,-0.8898777000000001,-0.6093380999999999,0.049480084,-0.17684549
330,1778426758290,0.7461323928571428,0.23841983,-0.8575064914285714,-0.8450884428571429,0.4137303142857143,-0.0604538437142857
331,1778426758300,0.7273595,0.24007498,-0.82858497,-0.9786061,0.6942483999999999,0.0267253539999999
332,1778426758310,0.7176028314285714,0.25129514,-0.7574832242857142,-1.0879945999999998,0.8901833728571429,0.0952513462857143
333,1778426758320,0.7234771999999999,0.2610213266666666,-0.7096653599999999,-1.09535775,0.9394343833333334,0.138564605
334,1778426758330,0.7578897666666666,0.2647308933333334,-0.65511952,-1.0155635,0.8588765,0.15103643
335,1778426758340,0.7656544657142856,0.26252403,-0.6448546999999999,-0.9435250214285714,0.7878197914285714,0.14750214
336,1778426758350,0.77308375,0.2657370533333333,-0.6319474399999999,-0.6388123050000001,0.5164356766666667,0.12563462
337,1778426758360,0.8895336166666666,0.2694262916666666,-0.6165501833333333,-0.4234823299999999,0.40317106,0.09941832
338,1778426758370,1.4324007,0.2271474,-0.6427204,-0.18417588,0.3817908,-0.22220223
339,1778426758380,1.228974168,0.33390972,-0.7498242559999999,-0.149570358,0.61492752,-0.768773886
340,1778426758390,0.70644367,0.4911262,-0.7984003,-0.17470746,1.0334313,-1.2667818
341,1778426758400,0.46730367,0.4635839666666667,-0.7719251333333332,-0.21891883,0.927522575,-0.89318681
342,1778426758410,0.6892823857142858,0.2866456571428571,-0.6971748,-0.2677553214285714,0.4404338499999999,-0.0197222192857142
343,1778426758420,0.7479095,0.286907,-0.6719294000000001,-0.26435193,0.40561453,0.054061573
344,1778426758430,0.7461410916666668,0.3164209033333333,-0.6405861333333333,-0.1583159111666666,0.2162462981666666,0.2342922821666666
345,1778426758440,0.75742227,0.30977416,-0.6452206,-0.037415497,-0.002443461,0.4390594
346,1778426758450,0.8017846283333334,0.28375641,-0.6263170166666667,0.03894266,-0.07086037,0.5467244
347,1778426758460,1.0126984428571428,0.2641356314285714,-0.5940590371428571,0.2477713071428571,-0.0687877901428571,0.4800964428571428
348,1778426758470,1.1305624428571428,0.2620710442857142,-0.5959929428571428,0.4698426457142857,-0.0272925851428571,0.2149591057142857
349,1778426758480,1.1146382,0.2648122,-0.6170278666666666,0.6047565933333333,0.0357865226666666,-0.07605272
350,1778426758490,1.0648792,0.26269826,-0.6300368,0.6939429,0.08445212,-0.25961772
351,1778426758500,0.9431299571428572,0.2531245385714286,-0.6629306714285714,0.7792676942857143,0.2020000428571428,-0.2969241314285714
352,1778426758510,0.8990159,0.24873403,-0.6773566000000001,0.8268061,0.27672195,-0.30558532
353,1778426758520,0.8870436666666667,0.2109675933333333,-0.6769094133333334,0.7642688,0.5762750433333333,-0.1010472995
354,1778426758530,0.9115166,0.18958424,-0.66369724,0.6984480333333333,0.8367581,0.0418697241666666
355,1778426758540,0.96682465,0.17196125,-0.6259512,0.6461426999999998,1.0606148,0.14813483
356,1778426758550,0.96682465,0.1719612499999999,-0.6259512,0.6461427,1.0606148,0.14813483
357,1778426758560,1.0368389666666669,0.1639221666666666,-0.5873412,0.6717990533333333,1.3634512,0.2479094666666666
358,1778426758570,1.1594927428571429,0.1856902885714285,-0.5714271000000001,0.7616834928571429,1.317789014285714,0.1386009571428571
359,1778426758580,1.16220195,0.1885780849999999,-0.5806436650000001,0.9221011,1.0587822,-0.15515977
360,1778426758590,1.0871977,0.17122951,-0.6034498,1.0137309,0.9100365,-0.364992
361,1778426758600,1.0324732,0.1703409528571428,-0.6128841571428572,0.9620909271428572,0.96867957,-0.42114795
362,1778426758610,0.954405275,0.1706705283333333,-0.6232883833333334,0.8671995583333333,1.08255505,-0.4175263866666667
363,1778426758620,0.92889565,0.17824212,-0.6124138,0.66793025,1.3721560333333331,-0.3523165366666667
364,1778426758630,0.9542630028571428,0.1786166957142857,-0.5143941242857143,0.5067345342857144,1.6441219857142857,-0.2487094257142857
365,1778426758640,0.983878575,0.1816874283333333,-0.4798450683333333,0.45769078,1.7408133,-0.1826487
366,1778426758650,1.0514638,0.19769447,-0.45880726,0.45769078,1.7408133,-0.1826486999999999
367,1778426758660,1.0735469714285717,0.21146705,-0.4645567171428571,0.6024222257142858,1.470636242857143,-0.2118829685714285
368,1778426758670,1.1360767428571428,0.2344823328571428,-0.4893665457142857,0.76750855,1.1270245428571428,-0.3131557071428572
369,1778426758680,1.1192726,0.2168825733333333,-0.5486905533333334,0.9446521666666668,0.6192137333333333,-0.5263113
370,1778426758690,1.03878012,0.217604155,-0.633634535,0.9800569,0.291611795,-0.71211615
371,1778426758700,0.9075325866666668,0.2274319666666666,-0.7241886066666666,0.8115853999999999,0.2223040466666666,-0.7889833666666667
372,1778426758710,0.8419698833333333,0.2337128133333333,-0.7327155333333334,0.5889504900000001,0.2764165366666666,-0.7440084333333333
373,1778426758720,0.7790872557142857,0.2513735528571428,-0.6757014071428572,0.2151991,0.3841687814285714,-0.5840525985714285
374,1778426758730,0.8055754199999999,0.2582874233333333,-0.6075760666666666,0.02082032,0.3908519433333333,-0.4691954066666667
375,1778426758740,0.8534644,0.26702777,-0.5370435,-0.064599,0.35918877,-0.4030183600000001
376,1778426758750,0.8951436683333333,0.2678814733333333,-0.485790515,-0.0279725379833333,0.2770528383333333,-0.4077270983333333
377,1778426758760,0.923883148,0.270710904,-0.45096532,0.02373211456,0.205983754,-0.422963088
378,1778426758770,0.89407654,0.2982491066666666,-0.4650880933333334,0.2066251633333333,0.09896017,-0.4924592266666667
379,1778426758780,0.82077958,0.3231896,-0.5080784066666667,0.3422372666666667,0.0176132806666666,-0.5257004666666666
380,1778426758790,0.79132664,0.3325804,-0.52490866,0.3827071,-0.009773844,-0.5317582
381,1778426758800,0.73146544,0.3514331166666666,-0.5649516600000001,0.48235448,-0.1790089723333333,-0.4588107133333333
382,1778426758810,0.6958942600000001,0.3528153066666666,-0.5971689800000001,0.5369505666666666,-0.3792455066666667,-0.3506875599999999
383,1778426758820,0.66577053,0.34837398,-0.6246096,0.5421429,-0.4550946,-0.29336804
384,1778426758830,0.6851619266666665,0.3261775666666667,-0.6329027666666667,0.4967352499999999,-0.6037893866666667,-0.144164198
385,1778426758840,0.7187411300000001,0.303046145,-0.6378420833333334,0.4383976216666667,-0.7682903166666666,-0.0228310886
386,1778426758850,0.7674925471428572,0.2471747085714285,-0.6406122657142858,0.3325070385714285,-0.9533861285714286,-0.0171260424
387,1778426758860,0.77126455,0.24184339,-0.64076906,0.29794952,-0.9949468,-0.033750303
388,1778426758870,0.7530578714285714,0.23191249,-0.6456038528571428,0.2446078985714286,-1.0055278714285714,-0.0826195222857142
389,1778426758880,0.63655139,0.2527180016666666,-0.6552516833333333,0.0672969868333333,-0.8765407000000001,-0.1629737566666666
390,1778426758890,0.5444307371428571,0.2946164928571428,-0.6351938571428571,-0.030695979,-0.7968737,-0.14172074
391,1778426758900,0.5046026,0.31538427,-0.6200362,-0.1083195004285714,-0.7484408085714286,-0.0820304771428571
392,1778426758910,0.4647425633333333,0.3456502616666666,-0.5798610333333333,-0.15727235,-0.7141269600000001,-0.0041996988333333
393,1778426758920,0.4552181942857142,0.3743772542857143,-0.5527499857142858,-0.1101520914285714,-0.7530441371428571,0.0147262154285714
394,1778426758930,0.45051408,0.3995355,-0.5392997,-0.05971208,-0.79152864,0.00992656
395,1778426758940,0.45144908,0.3988444066666667,-0.5474302999999999,0.0087048293333333,-0.8333729466666666,-0.0536034266666666
396,1778426758950,0.45191658,0.3984988599999999,-0.5514956,0.042913284,-0.8542951,-0.08536842
397,1778426758960,0.4328562457142857,0.3573466257142857,-0.6161857528571428,0.1162607445714285,-0.6873761071428571,-0.3654283
398,1778426758970,0.3936002033333333,0.33928808,-0.64908258,0.096516706,-0.559858,-0.4260785
399,1778426758980,0.3669116657142857,0.3482781485714286,-0.6690372714285714,0.0305868945714285,-0.2910991011428571,-0.4696244628571429
400,1778426758990,0.3564232599999999,0.35782576,-0.6799787,-0.0219402433333333,-0.0560468852666666,-0.4947499433333333
401,1778426759000,0.3523812014285714,0.3707097928571428,-0.6909723571428571,-0.0182823255714285,0.0096647604571428,-0.4976152028571428
402,1778426759010,0.3448677033333333,0.3913541266666667,-0.71585476,0.0211766625,0.0884991,-0.5205081333333333
403,1778426759020,0.34623972,0.40227956,-0.73303056,0.05681047,0.07819075,-0.5551238
404,1778426759030,0.314034,0.4132993685714285,-0.76813716,0.1225875671428571,0.0843212242857142,-0.6665194428571429
405,1778426759040,0.2977206166666666,0.4243336933333333,-0.7945585733333335,0.11056661,0.1170825066666666,-0.7174103333333334
406,1778426759050,0.2901824357142857,0.4341890942857143,-0.8143680857142856,0.0608901727142857,0.1973312928571428,-0.7889106285714286
407,1778426759060,0.2733696,0.42630538,-0.8303533,0.026419923,0.25885415,-0.8232936000000001
408,1778426759070,0.26160933,0.4203468314285714,-0.8397092714285714,-0.0162533768571428,0.3197225,-0.84338673
409,1778426759080,0.2175823828571428,0.4162786428571428,-0.8715316714285715,-0.1599594285714285,0.42426772,-0.8731664442857142
410,1778426759090,0.2015463199999999,0.4153291083333333,-0.8802749083333333,-0.1967495183333333,0.402891075,-0.8534042283333333
411,1778426759100,0.17448173,0.4010599866666666,-0.8950522,-0.17933986,0.2332996166666666,-0.72657333
412,1778426759110,0.1690255471428571,0.4028893628571429,-0.9035718714285714,-0.15644696,0.1111774778571428,-0.6370888342857143
413,1778426759120,0.1649994616666666,0.415969395,-0.93429236,-0.1652899533333333,-0.1078177183333333,-0.4427754866666666
414,1778426759130,0.1688919666666666,0.4239271899999999,-0.97038182,-0.1841249666666666,-0.18280143,-0.3667736633333333
415,1778426759140,0.1709420257142857,0.4291278257142857,-0.9891866342857142,-0.2697624571428571,-0.3027491814285714,-0.2261292128571428
416,1778426759150,0.1518178066666666,0.4495384,-1.0312390666666669,-0.35521815,-0.3853032566666667,-0.1190678123333333
417,1778426759160,0.13238578,0.4542948,-1.042378,-0.42913285,-0.44150287,-0.037415497
418,1778426759170,0.1225594085714285,0.4533104314285714,-1.0167666285714283,-0.5707008714285714,-0.54168477,0.1271254235714286
419,1778426759180,0.1200984683333333,0.4505852266666666,-0.9983306166666668,-0.61254515,-0.5677228833333333,0.1818851316666666
420,1778426759190,0.1172019599999999,0.44819686,-0.9784107,-0.6339254,-0.5696318,0.22464569
421,1778426759200,0.1042947025,0.4622220966666666,-0.9304099166666666,-0.58246001,-0.5359833333333334,0.26328292
422,1778426759210,0.08878566,0.47746688,-0.8698678,-0.4992296,-0.5056437,0.28191432
423,1778426759220,0.0923631066666666,0.4780766733333333,-0.8568589333333333,-0.4430300133333333,-0.47703486,0.2743803066666666
424,1778426759230,0.0923485942857142,0.4713254085714286,-0.8343692571428571,-0.2419680942857142,-0.3115849085714285,0.2070833157142857
425,1778426759240,0.073571366,0.46764925,-0.83907335,-0.0569631839999999,-0.028557945,0.1304960849999999
426,1778426759250,0.0530518726666666,0.4646612666666667,-0.8551718666666667,0.0714712346666666,0.2133955966666666,0.07406741
427,1778426759260,0.0344654242,0.458660904,-0.8796245199999999,0.17617354,0.420611276,0.0259312303999999
428,1778426759270,0.0166734464285714,0.4384402085714285,-0.9163601428571428,0.2443461,0.5539021,0.001985312
429,1778426759280,0.003956023425,0.4163657524999999,-0.951328425,0.3407101,0.7058548,0.003970624
430,1778426759290,0.0070430937,0.40368209,-0.9878625,0.43890666,0.6778313633333334,0.1088867296666666
431,1778426759300,0.0256809407142857,0.3903189428571428,-1.0053809428571427,0.5727952285714285,0.54984418,0.2679298628571428
432,1778426759310,0.0844967966666666,0.3616064766666667,-1.0283120666666667,0.6994407066666666,0.3395392633333333,0.4057163466666666
433,1778426759320,0.1196585485714285,0.3557786014285714,-1.0445121857142856,0.8167923114285713,0.1604175742857143,0.5109887671428571
434,1778426759330,0.14391084,0.35605735,-1.0581715,0.8721628999999999,0.08017606,0.55680364
435,1778426759340,0.1780417514285714,0.3450636785714285,-1.0948287571428572,0.9136144428571428,0.0179550731428571,0.5835072171428572
436,1778426759350,0.1964748683333333,0.33646273,-1.137779833333333,0.9400707,-0.0409025188333333,0.6121124433333334
437,1778426759360,0.18179922,0.3455994333333334,-1.1670395999999998,0.8848382999999999,-0.0310014109999999,0.6267477
438,1778426759370,0.1762385,0.3566148914285714,-1.1684654428571428,0.7969609799999999,0.0157734127142857,0.6137886685714286
439,1778426759380,0.17427845,0.36776537,-1.1626288,0.71685034,0.05207626,0.59605175
440,1778426759390,0.1844707,0.3770864628571428,-1.1543095142857145,0.6881396885714286,0.0436114142857142,0.5717044071428571
441,1778426759400,0.20934148,0.3980313466666667,-1.1438065999999998,0.6417139366666667,-0.0496328033333333,0.44084108
442,1778426759410,0.19854817,0.4053081999999999,-1.1451684,0.6081163666666667,-0.1090903533333333,0.3481422866666666
443,1778426759420,0.1558220966666666,0.4164877199999999,-1.1397616666666668,0.51536664,-0.1649845266666666,0.2256637966666666
444,1778426759430,0.1424212,0.41911854,-1.1319041,0.44104472,-0.17333302,0.17272215
445,1778426759440,0.1166124946666666,0.4260817666666667,-1.0993527333333333,0.3662646233333333,-0.1663335233333333,0.1330159066666666
446,1778426759450,0.0993176377142857,0.4307568242857143,-1.0730678714285715,0.2531163685714285,-0.1539380528571428,0.0727147814285714
447,1778426759460,0.0745775266666666,0.4295575733333334,-1.0205676666666663,0.1875865333333333,-0.1412116866666666,0.0342593613333333
448,1778426759470,0.0563752433333333,0.4150852133333333,-0.9703005166666666,0.145462285,-0.10590876,0.0052687126
449,1778426759480,0.05292992,0.41179234,-0.96401966,0.12705997,-0.0795652,-0.0033597588
450,1778426759490,0.05292992,0.41179234,-0.96401966,0.089033609,-0.0358883346666666,0.0014253521333333
451,1778426759500,0.05292992,0.41179234,-0.96401966,0.012980887,0.051465396,0.010995574
452,1778426759510,0.025987289,0.39123218,-0.9195658533333332,-0.0771471899999999,0.1229366316666666,0.0521526208333333
453,1778426759520,0.0117689788333333,0.342204935,-0.83469303,-0.2554943883333334,0.1370883411666666,0.2901864308333333
454,1778426759530,0.013537374,0.33239743,-0.79949784,-0.28344148,0.022907447,0.4537201499999999
455,1778426759540,0.0662233768571428,0.3268744785714285,-0.7868838914285714,-0.2159844914285714,-0.2832451271428571,0.6218826428571429
456,1778426759550,0.1012660733333333,0.3077821999999999,-0.7826675999999999,-0.1314378416666666,-0.61178156,0.7526369
457,1778426759560,0.1531796733333333,0.24513626,-0.7743338,-0.0784198275,-0.81634507,0.90721125
458,1778426759570,0.1810878033333333,0.2149312433333333,-0.7672399,-0.0893390433333333,-0.8873836,1.067130666666667
459,1778426759580,0.20104831,0.19976775,-0.7612639,-0.1636028028571428,-0.8642434285714286,1.2245229857142856
460,1778426759590,0.2444654899999999,0.18820204,-0.6905890499999999,-0.3946698533333333,-0.7112507333333333,1.5174911
461,1778426759600,0.27698772,0.182734245,-0.6428728916666666,-0.4764748933333333,-0.6632469466666667,1.6286686
462,1778426759610,0.34985491,0.1928422614285714,-0.5819241857142856,-0.4735514685714285,-0.7159122685714286,1.6828465285714285
463,1778426759620,0.414648175,0.2078678149999999,-0.5336693666666666,-0.4155156383333333,-0.8435031000000001,1.7156405166666666
464,1778426759630,0.4831988999999999,0.23525764,-0.4985047,-0.25579983,-1.0865766,1.6867516
465,1778426759640,0.54801975,0.2373004349999999,-0.48335138,-0.25579983,-1.0865766,1.6867516
466,1778426759650,0.6293833885714285,0.2243162214285714,-0.4758030342857143,0.015118915,-1.4236214,1.5690074
467,1778426759660,0.65144044,0.20428021,-0.485943,0.015118915,-1.4236214,1.5690074
468,1778426759670,0.65144044,0.20428021,-0.485943,0.095810396875,-1.4572953875,1.5003423125
469,1778426759680,0.6557496333333334,0.1978773983333333,-0.4932909833333334,0.2302962,-1.5134187,1.3859005
470,1778426759690,0.6772956,0.16586334,-0.5300309,0.2302962,-1.5134187,1.3859005
471,1778426759700,0.6772956,0.16586334,-0.5300309,0.2302962,-1.5134187,1.3859005
472,1778426759710,0.6772956,0.16586334,-0.5300309,0.27275133,-1.4230106,1.2889256
473,1778426759720,0.6772956,0.16586334,-0.5300309,0.27275133,-1.4230106000000002,1.2889256
474,1778426759730,0.6772956,0.16586334,-0.5300309,0.27275133,-1.4230106000000002,1.2889256
475,1778426759740,0.7237617428571429,0.1381613657142857,-0.5736745828571428,0.27275133,-1.4230106,1.2889256
476,1778426759750,0.7315061000000002,0.13354437,-0.58094853,0.27275133,-1.4230106000000002,1.2889256
477,1778426759760,0.7315061000000002,0.13354437,-0.58094853,0.14278975,-0.9761627,1.1301007
478,1778426759770,0.7315061000000002,0.13354437,-0.58094853,0.14278975,-0.9761627,1.1301007
479,1778426759780,0.7315061,0.13354437,-0.58094853,0.14278975,-0.9761627,1.1301007
480,1778426759790,0.7921803500000001,0.1458926533333333,-0.6009192133333333,0.1069014173333333,-0.9182577566666668,1.1046734333333337
481,1778426759800,0.8043152,0.14836231,-0.60491335,-0.072540246,-0.62873304,0.9775371
482,1778426759810,0.8043152000000001,0.14836231,-0.60491335,-0.1188787385714285,-0.5970116857142856,0.9275334142857145
483,1778426759820,0.8043152,0.14836231,-0.60491335,-0.23472497,-0.5177083,0.8025242
484,1778426759830,0.814580025,0.1515840416666666,-0.6032262583333333,-0.23472497,-0.5177083,0.8025242
485,1778426759840,0.8659041499999999,0.1676927,-0.5947908,-0.23472497,-0.5177083,0.8025242
486,1778426759850,0.86590415,0.1676927,-0.5947908,-0.23472497,-0.5177083,0.8025242
487,1778426759860,0.86590415,0.1676927,-0.5947908,-0.27969992,-0.4915937999999999,0.7205919000000001
488,1778426759870,0.8748245357142856,0.1672048714285714,-0.5844591914285714,-0.32467487,-0.4654793,0.6386595999999999
489,1778426759880,0.8971255,0.1659853,-0.55863017,-0.32467487,-0.4654793,0.6386596
490,1778426759890,0.9023697171428572,0.1624485057142857,-0.5544313214285715,-0.32467487,-0.4654793,0.6386595999999999
491,1778426759900,0.9154802600000002,0.15360652,-0.5439342,-0.3555236,-0.42531493,0.5652031
492,1778426759910,0.9354814,0.135099348,-0.54375125,-0.34615698,-0.3503821099999999,0.44761152
493,1778426759920,0.968364405,0.07660507825,-0.5703381375000001,-0.3123048625,-0.2342286475,0.2813034325
494,1778426759930,0.9942565928571429,0.0755793228571428,-0.7524393485714286,-0.4925537242857142,0.0293869815714285,-0.0118464235142857
495,1778426759940,0.9337536666666668,0.1421017866666666,-0.8219280000000001,-0.75238235,0.04365141177,-0.1287143975
496,1778426759950,0.8583776,0.2019281514285714,-0.8020415714285714,-0.5660975557142857,0.1731148471428571,-0.1300270357142857
497,1778426759960,0.8090890257142858,0.2686916314285714,-0.8352055171428573,-0.4790492428571428,0.3033818628571428,-0.0602356785714285
498,1778426759970,0.7995995266666666,0.2762153133333333,-0.8294996600000001,-0.4603887533333333,0.1771509266666666,-0.0791579566666666
499,1778426759980,0.79602206,0.27885774,-0.8230359,-0.4636467,0.1600466999999999,-0.09056077
500,1778426759990,0.8184319033333333,0.2674749566666666,-0.7896802433333333,-0.4784601983333333,0.2344195416666666,-0.1174642913333333
501,1778426760000,0.80803496,0.2622714,-0.75998336,-0.48380527,0.3080288,-0.13622294
502,1778426760010,0.80803496,0.2622714,-0.75998336,-0.48380527,0.3080288,-0.13622294
503,1778426760020,0.80803496,0.2622714,-0.75998336,-0.494629045,0.422451485,-0.14068989875
504,1778426760030,0.7196964533333333,0.2632470666666666,-0.71481812,-0.4969388766666667,0.77467892,-0.0756963865633333
505,1778426760040,0.7022709485714286,0.2457460471428571,-0.6854058114285715,-0.4293728185714286,0.8654215142857142,0.0452476610342857
506,1778426760050,0.7166272000000001,0.23501371,-0.68613756,-0.2844232214285714,0.7508842714285714,0.1485711562857143
507,1778426760060,0.7166272,0.2350137099999999,-0.68613756,-0.0795906533333333,0.5559637083333333,0.181732415
508,1778426760070,0.7788781800000001,0.2502584942857143,-0.6841862714285715,0.09819659,0.3680463,0.16035213
509,1778426760080,0.8041017899999999,0.2523216199999999,-0.6796331333333333,0.2285908666666666,0.2780454933333333,0.159868525
510,1778426760090,0.8419698700000001,0.22540949,-0.6791554999999999,0.37751472,0.3211624,0.21036672
511,1778426760100,0.857733,0.21989086,-0.6801007,0.4092797,0.39538252,0.23823744
512,1778426760110,0.8763519999999999,0.22781816,-0.6902232333333332,0.4270966066666666,0.4640030666666666,0.25513804
513,1778426760120,0.9185902166666668,0.23300141,-0.7375633333333335,0.4409683433333333,0.52172984,0.2483167233333333
514,1778426760130,0.9245487257142856,0.2279139985714285,-0.7660203,0.4388194128571429,0.4432918228571428,0.1705841225714285
515,1778426760140,0.8866980666666667,0.1935682066666666,-0.7829522233333334,0.480063735,0.27794368,0.0632245545
516,1778426760150,0.8612088,0.18019344,-0.76559347,0.52549684,0.22342396,0.055436023
517,1778426760160,0.8536066999999999,0.1708839466666666,-0.7336810233333333,0.7094690766666667,0.0974330044999999,0.1136718433333333
518,1778426760170,0.8669306083333334,0.17176815,-0.6957723000000001,0.84436846,0.024129177,0.15363261
519,1778426760180,0.8834399957142857,0.1723881057142857,-0.6945091571428572,0.9396634542857144,-0.0086830132857142,0.16550085
520,1778426760190,0.96194637,0.1694611,-0.7132733,1.1089749666666666,-0.031663182,0.1556688233333333
521,1778426760200,0.96194637,0.1694611,-0.7132733,1.1828642,-0.0027488935,0.125990955
522,1778426760210,0.9589061285714288,0.1657849314285714,-0.7234219714285715,1.2112803142857145,0.0414515711428571,0.0984802062857142
523,1778426760220,0.90397548,0.1605581433333333,-0.7624936616666668,1.2485321333333337,0.123165709,0.0606029223333333
524,1778426760230,0.8899560757142858,0.1532580628571428,-0.7339626457142857,1.3438380857142858,0.0357792505714285,0.0944004977142857
525,1778426760240,0.9413659366666668,0.14548613,-0.6874791216666667,1.4430673333333333,-0.028710667,0.14284066
526,1778426760250,1.0150417785714283,0.1454963,-0.6552821471428573,1.5127859714285716,0.0668024794285714,0.1357866197142857
527,1778426760260,1.0570738,0.1387886,-0.66320944,1.5404494,0.1591304,0.112399206
528,1778426760270,1.0946544571428571,0.1374818857142857,-0.6920612628571429,1.5431983428571427,0.2514146857142857,0.0262672054285714
529,1778426760280,1.1044241666666668,0.1500697283333333,-0.7237718833333333,1.521538066666667,0.31171945,-0.1450550396666666
530,1778426760290,1.091840757142857,0.1576921285714285,-0.7459232771428572,1.4610369571428572,0.3167772771428571,-0.3393792714285714
531,1778426760300,1.07375165,0.166503615,-0.7768441199999999,1.3910929333333335,0.2957606,-0.4436918
532,1778426760310,1.0706112,0.17019285,-0.7863874,1.3355042,0.28496864,-0.5015204
533,1778426760320,1.0719832333333337,0.169440775,-0.7871902833333332,1.3355042,0.28496864,-0.5015204
534,1778426760330,1.0788434,0.1656804,-0.7912047000000001,1.2522738,0.2724459,-0.56245416
535,1778426760340,1.0802285,0.1647744228571428,-0.7841659571428572,1.0693414457142858,0.3230386285714285,-0.67201722
536,1778426760350,1.0839656333333334,0.1587694233333333,-0.7080900966666667,0.6904049733333334,0.4975242666666666,-0.86722505
537,1778426760360,1.0804288666666666,0.1624485033333333,-0.65493661,0.4190026533333333,0.7398087333333333,-0.9953031333333334
538,1778426760370,1.0759164,0.16354613,-0.63119537,0.3247766866666666,0.8093455333333334,-1.1075496
539,1778426760380,1.0707158142857145,0.1705325957142857,-0.5921948471428572,0.28784842,0.8060585142857143,-1.2363694285714286
540,1778426760390,1.0683550333333331,0.1693798,-0.5730618866666667,0.2894992133333333,0.786183575,-1.2834278666666668
541,1778426760400,1.0627144666666666,0.1729775633333333,-0.5631934333333334,0.3140865533333333,0.7130324333333333,-1.3888021000000002
542,1778426760410,1.0246853,0.1836953914285714,-0.5518440285714286,0.3443970942857143,0.62096634,-1.5007213571428573
543,1778426760420,0.9989404333333332,0.1998287333333333,-0.5445744833333334,0.35323283,0.57711494,-1.5285375
544,1778426760430,0.9509788285714286,0.20671939,-0.5378536714285714,0.3584688071428571,0.5371905628571428,-1.5493506428571429
545,1778426760440,0.936579,0.20708527,-0.5370435,0.3461060616666667,0.5283730000000001,-1.575217833333333
546,1778426760450,0.9108051566666666,0.214118185,-0.5354783933333334,0.2833396666666667,0.5511531866666667,-1.6079500333333332
547,1778426760460,0.8877085971428571,0.2278181657142857,-0.5390384357142858,0.1906772271428571,0.5621923857142858,-1.6538522285714288
548,1778426760470,0.87834394,0.22964753,-0.5411291,0.15210545,0.5508477,-1.6824756
549,1778426760480,0.8519196133333334,0.2208258833333333,-0.5365353666666667,0.15210545,0.5508477,-1.6824756
550,1778426760490,0.8327402142857142,0.2122336457142857,-0.5208143571428571,0.0865465171428571,0.5305582714285715,-1.7303630285714284
551,1778426760500,0.8147426,0.21031716,-0.5107615,0.060322944,0.5224425,-1.749518
552,1778426760510,0.72985965,0.180528825,-0.47960114,-0.120340451,0.6365215733333333,-1.9224947
553,1778426760520,0.6592864333333334,0.19393408,-0.4995209666666667,-0.16699529,0.6885978600000001,-1.9399553
554,1778426760530,0.608297675,0.202237405,-0.5210669499999999,-0.1736893566666666,0.6093890066666666,-1.9151134333333333
555,1778426760540,0.574413575,0.2022272383333333,-0.530904945,-0.1859575583333333,0.4651993333333333,-1.8926387333333337
556,1778426760550,0.5514259142857143,0.2074598371428571,-0.4966143485714286,-0.204029,0.3652973999999999,-1.8637499
557,1778426760560,0.5479994666666667,0.2205616499999999,-0.44270876,-0.178550825,0.2108757683333333,-1.7797813833333331
558,1778426760570,0.5484030714285714,0.2231053599999999,-0.4119142914285714,-0.1132936872857142,0.0962330942857142,-1.7253889142857144
559,1778426760580,0.5297768566666666,0.2264766416666666,-0.3986208216666667,-0.0438041274999999,0.0704276723333333,-1.7172694333333334
560,1778426760590,0.49283364,0.22556195,-0.40715793,0.04795292,0.070554934,-1.6980525999999998
561,1778426760600,0.48424428,0.2300918242857143,-0.4189181899999999,0.0900153542857142,0.062875486,-1.6757123714285715
562,1778426760610,0.4333281033333333,0.2229500083333333,-0.5178249266666667,0.16569719,0.0706058416666666,-1.6125314833333333
563,1778426760620,0.3624340442857142,0.25253216,-0.5728383028571429,0.1877537942857143,0.06233007,-1.5475397714285717
564,1778426760630,0.3025873528571429,0.2900691842857142,-0.5926739685714286,0.2142828,-0.0656898299999999,-1.4067354
565,1778426760640,0.27977243,0.3026396,-0.594242,0.2452624,-0.14782938,-1.3332134
566,1778426760650,0.2594750657142857,0.3241129857142857,-0.6066120357142858,0.2452623999999999,-0.1478293799999999,-1.3332134
567,1778426760660,0.2498403571428571,0.3400024114285714,-0.6371800042857142,0.3143774385714285,-0.2693043057142857,-1.210494937142857
568,1778426760670,0.2633893433333333,0.34691048,-0.6833731866666666,0.4871650199999999,-0.5885177666666667,-0.8997026866666666
569,1778426760680,0.2856699942857142,0.3544544685714285,-0.7231693628571428,0.5693700142857142,-0.7710646428571428,-0.7550730942857143
570,1778426760690,0.28227258,0.3506912,-0.75071454,0.5884159,-0.8187121,-0.72509706
571,1778426760700,0.2187322683333333,0.3495630666666667,-0.7664166666666666,0.62010458,-0.92848972,-0.5081635333333333
572,1778426760710,0.3246879142857142,0.3819473657142857,-0.8051428071428571,0.5609052114285714,-0.8656396714285713,-0.4079489
573,1778426760720,0.3160550133333333,0.32384004,-0.8566760433333332,0.4619668399999999,-0.788627,-0.37675115
574,1778426760730,0.32526287,0.32081142,-0.86852634,0.4027129042857143,-0.6214026814285715,-0.3525346871428571
575,1778426760740,0.319043,0.32764107,-0.89102757,0.29825497,-0.4198171499999999,-0.37400225
576,1778426760750,0.2751205842857143,0.3306813185714286,-0.8916809571428572,0.1490293057142857,-0.1432915357142857,-0.3485858928571428
577,1778426760760,0.2436727557142857,0.3377026314285714,-0.8915328728571429,0.0641408494285714,0.0130027014285714,-0.32546028
578,1778426760770,0.25074633,0.3499391,-0.92180175,0.011199196,0.1245146966666666,-0.31770084
579,1778426760780,0.25558401,0.3485569,-0.9525149333333336,-0.0324267633333333,0.2346740683333333,-0.3491858583333333
580,1778426760790,0.25574663,0.3374587,-0.9823134,-0.0571159,0.27947086,-0.41141775
581,1778426760800,0.2120347266666666,0.3272243666666667,-1.0356803166666666,-0.1690569566666666,0.4049527566666667,-0.52417331
582,1778426760810,0.1701057442857143,0.3175620857142857,-1.0712123,-0.2775727985714286,0.44333545,-0.5084798671428572
583,1778426760820,0.1601008049999999,0.305353185,-1.08286805,-0.3448843333333333,0.4433863533333333,-0.4597779033333333
584,1778426760830,0.1502221749999999,0.294224485,-1.0725321,-0.397826,0.45081854,-0.4117231699999999
585,1778426760840,0.15092343,0.2915414,-1.0546957,-0.47861293,0.5036584,-0.3384193499999999
586,1778426760850,0.1569690814285714,0.2902434142857143,-1.0473694857142857,-0.52015173,0.58352906,-0.24816401
587,1778426760860,0.1791568,0.28641915,-1.0292674,-0.4906775,0.6068946,-0.20311269
588,1778426760870,0.2024159999999999,0.2805825571428571,-1.0375866857142857,-0.4515821299999999,0.59712076,-0.21533
589,1778426760880,0.2042192416666667,0.2620782866666666,-1.0911917333333332,-0.3899865549999999,0.5837835466666667,-0.2503274866666666
590,1778426760890,0.1423950717142857,0.2436379085714285,-1.210270971428571,-0.3142247285714285,0.4596979285714285,-0.2608612757142857
591,1778426760900,0.104152426,0.24781933,-1.2441579,-0.31902438,0.4317290199999999,-0.24785857
592,1778426760910,0.0751364963333333,0.23480029,-1.2733262666666667,-0.39390627,0.2494366449999999,-0.0784452773333333
593,1778426760920,0.057625312,0.23263553,-1.2752573,-0.43279803,0.1638646,0.012064588
594,1778426760930,0.0270137713333333,0.2391704516666666,-1.22222575,-0.452651155,-0.0686459833333333,0.2004910613333333
595,1778426760940,-0.006280854,0.2580289885714286,-1.1099950857142855,-0.3609777228571428,-0.41316306,0.4397793285714285
596,1778426760950,-0.013598354,0.26343,-1.0877464,-0.3213151,-0.49281552,0.4908302
597,1778426760960,-0.0597334484285714,0.2791539071428571,-1.0221154142857145,-0.1194677857142857,-0.7581928457142857,0.6651668028571428
598,1778426760970,-0.0918956025,0.281022505,-0.97792292,-0.02855795,-0.8584184,0.7422012700000001
599,1778426760980,-0.10457927,0.27971146,-0.95767784,0.078954335,-0.94080885,0.834136485
600,1778426760990,-0.1137174277142857,0.2755735671428571,-0.9223360771428571,0.3387466014285714,-1.1059497142857142,1.0579967714285714
601,1778426761000,-0.110006414,0.27013773,-0.89175934,0.50335294,-1.1756102,1.1890492
602,1778426761010,-0.10183521,0.26324704,-0.8829173999999999,0.7988589999999999,-1.2680036,1.3701707
603,1778426761020,-0.0843167657142857,0.2464777985714285,-0.9094781714285716,1.099579257142857,-1.3794427571428571,1.4974270714285711
604,1778426761030,-0.0726058666666666,0.21873228,-0.95119375,1.3445653666666668,-1.4501431333333334,1.5818355333333336
605,1778426761040,-0.0628172542857142,0.1864133142857142,-1.0243018714285714,1.4824608857142856,-1.4519830428571427,1.6503614857142856
606,1778426761050,-0.048752843,0.1747967799999999,-1.0719223,1.6153313,-1.4304427666666666,1.7229453999999995
607,1778426761060,-0.039026666,0.17244908,-1.0967714,1.6569719,-1.3976597,1.7440202000000002
608,1778426761070,0.0142778364857142,0.1878855185714285,-1.135859014285714,1.6455618714285714,-1.2962560142857142,1.718298442857143
609,1778426761080,0.0785106795,0.20303014,-1.20186895,1.4929546,-1.06435635,1.58603525
610,1778426761090,0.0955543583333333,0.209758175,-1.2175202833333334,1.3896929333333332,-0.94635755,1.5128332
611,1778426761100,0.1034032491428571,0.2230095285714285,-1.2240173571428572,1.2299771,-0.7874053,1.4075861999999997
612,1778426761110,0.0994570259999999,0.2245253,-1.2215346,0.9094256,-0.5123632,1.2211196
613,1778426761120,0.0890905673333333,0.2267612,-1.21066,0.8118399,-0.46105053,1.16904335
614,1778426761130,0.0167605604285714,0.2354057214285714,-1.1272957571428572,0.5841398914285715,-0.4504913085714285,1.0490738
615,1778426761140,-0.010488417,0.23757485,-1.0841485,0.5585853466666667,-0.5837326666666667,1.0267626666666667
616,1778426761150,-0.022797498,0.2405279771428571,-1.0224987142857145,0.6412557828571428,-0.8286168857142856,1.0199704285714286
617,1778426761160,-0.009451771,0.24550213,-1.0090833,0.6724099,-0.9100365,1.0134255
618,1778426761170,-0.0051658067142857,0.2427406442857143,-1.0083602571428572,0.7069238,-1.0239629,0.9966267
619,1778426761180,0.0750653548333333,0.1701013916666666,-1.0060749666666666,0.6735552716666667,-0.9535352133333332,1.013145416666667
620,1778426761190,0.10279055,0.15988738,-0.99499708,0.5578217766666667,-0.7569129266666667,1.017905133333333
621,1778426761200,0.1214966357142857,0.18509791,-0.98157294,0.39712786,-0.53402712,0.9995500514285716
622,1778426761210,0.14250831,0.19659685,-0.97786194,0.2930626,-0.44593164,0.95111716
623,1778426761220,0.1461147985714285,0.1823799785714285,-0.9710671114285716,0.2299689442857142,-0.4255767257142858,0.9233009928571428
624,1778426761230,0.1416546083333333,0.1914644233333333,-0.9544967433333332,0.1209004070333333,-0.3960442833333333,0.8739954666666666
625,1778426761240,0.1374876916666666,0.2239155033333333,-0.9058963433333332,-0.0837648946333333,-0.4107305066666666,0.782951075
626,1778426761250,0.1862042428571428,0.2029735128571428,-0.8871684685714286,-0.2452405814285714,-0.5018912557142857,0.7472845585714286
627,1778426761260,0.1935377133333333,0.188008945,-0.8810168083333334,-0.29978213,-0.51175237,0.74388117
628,1778426761270,0.20263378,0.16885132,-0.86541635,-0.3277946642857143,-0.4942554414285714,0.7508188357142858
629,1778426761280,0.2139236314285714,0.1692694542857143,-0.8357282071428571,-0.5821982014285715,-0.2738203571428571,0.8344637285714286
630,1778426761290,0.274070865,0.170924605,-0.7748927450000002,-0.6877578849999999,-0.1974621899999999,0.833602
631,1778426761300,0.320699595,0.1699489433333333,-0.7222575733333333,-0.7413358666666666,-0.1830814033333333,0.8054513083333333
632,1778426761310,0.34544697,0.1681195599999999,-0.67266124,-0.7115562166666667,-0.28173615,0.7183011583333333
633,1778426761320,0.3912423499999999,0.1651011,-0.5806436150000001,-0.5474689,-0.46137505,0.5845026
634,1778426761330,0.4033772,0.16037522,-0.5642402,-0.4288274,-0.5357288,0.5288566
635,1778426761340,0.3891777485714285,0.1397468285714285,-0.5773420285714286,-0.3402301285714286,-0.5181664328571428,0.52946746
636,1778426761350,0.37270468,0.12500729,-0.6152188,-0.16462818,-0.38347065,0.5991061
637,1778426761360,0.4357164766666666,0.1357396233333333,-0.6998579333333333,-0.2236784833333333,-0.1794925666666666,0.81733768
638,1778426761370,0.53652956,0.1669696714285714,-0.7280912871428572,-0.2566943014285714,-0.1658717285714285,0.8960738428571428
639,1778426761380,0.6240608,0.1998287399999999,-0.72687167,-0.25977045,-0.19898935,0.89934635
640,1778426761390,0.6958943,0.2166589799999999,-0.7177248,-0.2254601833333333,-0.2963205433333333,0.8392779433333333
641,1778426761400,0.6958943,0.2166589799999999,-0.7177248,-0.20830505,-0.34498614,0.80924374
642,1778426761410,0.7666126785714286,0.2213979285714285,-0.7266277571428572,-0.0745910107142857,-0.4809254971428571,0.5496260057142857
643,1778426761420,0.7438950166666666,0.1863421716666666,-0.7980343683333334,-0.0586939668333333,-0.34277176,0.38975748
644,1778426761430,0.7134475614285715,0.1694785285714286,-0.82898566,-0.08093964,-0.25518894,0.37384954
645,1778426761440,0.7937556383333333,0.178516515,-0.829458975,-0.32986723,0.07987063,0.5113960133333333
646,1778426761450,0.8235323485714287,0.1871189328571428,-0.82638097,-0.37888917,0.14202617,0.5328272
647,1778426761460,0.9079188,0.2202567566666666,-0.8466957133333334,-0.42821655,0.24602598,0.48731774
648,1778426761470,0.9490274571428572,0.2409548314285714,-0.9071609428571428,-0.4877104628571428,0.105177909,0.2803653328571429
649,1778426761480,0.97141845,0.2544050833333333,-0.9377071733333334,-0.5475898166666666,-0.0617737491666666,0.131845085
650,1778426761490,0.9781929857142858,0.2633429,-0.9396628285714286,-0.6286894428571428,-0.2484039942857143,-0.0006108654285714
651,1778426761500,0.9902610533333333,0.25861265,-0.94078662,-0.7228572166666667,-0.3159700533333333,-0.0795651993333333
652,1778426761510,0.96485304,0.2386724566666666,-0.9497505233333332,-0.8794932333333333,-0.198123963,-0.106748702
653,1778426761520,0.9094839533333332,0.23972942,-0.9644059,-1.1166107666666667,0.0383317939999999,-0.0803796849999999
654,1778426761530,0.88785666,0.25135612,-0.9612756,-1.2359331,0.12415836,-0.049632803
655,1778426761540,0.88813108,0.25452703,-0.956671665,-1.3760248666666666,0.1293507116666666,-0.0373645921666666
656,1778426761550,0.8961295333333332,0.2587041016666667,-0.93531877,-1.5834645333333333,0.1025744533333333,-0.0604247566666666
657,1778426761560,0.8949683625,0.25826963875,-0.858037815,-1.64731265,0.07059311825,-0.1525635925
658,1778426761570,0.8143869666666665,0.24133522,-0.79111319,-1.680643033333333,0.0693332053333333,-0.2798780666666666
659,1778426761580,0.8038884,0.2388554,-0.78565556,-1.6733127,0.0913243499999999,-0.3036
660,1778426761590,0.8038884,0.2388553999999999,-0.78565556,-1.6733127,0.09132435,-0.3036
661,1778426761600,0.679186,0.2217202571428571,-0.7462630542857143,-1.5126769285714283,0.2008873957142856,-0.2858413085714285
662,1778426761610,0.5963153133333333,0.2012515799999999,-0.7082120499999999,-1.3704762,0.2562579733333333,-0.2459750866666666
663,1778426761620,0.6108544557142856,0.1827632757142857,-0.6819997428571428,-1.1890709857142858,0.2564979614285714,-0.1551597728571428
664,1778426761630,0.61942637,0.17793721,-0.67497844,-1.0636691,0.25885415,-0.09162979
665,1778426761640,0.61942637,0.17793721,-0.67497844,-1.0636691,0.25885415,-0.09162979
666,1778426761650,0.7151637000000001,0.2394651799999999,-0.67253923,-0.5162575,0.2614248683333333,-0.0160097595666666
667,1778426761660,0.6823569116666667,0.25859233,-0.7264753166666668,-0.2868775966666666,0.2018655116666666,-0.0393753546666666
668,1778426761670,0.6001482585714285,0.2459551242857142,-0.8076603714285715,-0.1076868171428571,0.0903862382857142,-0.0089666287142857
669,1778426761680,0.5748506,0.24409962,-0.8277312499999999,-0.06291912,0.052687127,0.018325957
670,1778426761690,0.5869767542857142,0.2496661428571428,-0.8228180742857143,-0.0013089959999999,-0.0082684981428571,0.1368774558571428
671,1778426761700,0.60668176,0.2549539,-0.81657207,0.08124508,-0.069027774,0.3022256
672,1778426761710,0.7477614285714286,0.2744498114285714,-0.8420352171428572,0.1359611471428571,0.0221438642857142,0.38624137
673,1778426761720,0.8049163071428572,0.2812969,-0.8610868500000001,0.1584758928571428,0.1349793985714285,0.4012948357142857
674,1778426761730,0.8444801666666667,0.2815408166666667,-0.8820433800000002,0.1578068566666667,0.25544348,0.3851505333333334
675,1778426761740,0.8560952914285714,0.2819066928571428,-0.8959407857142858,0.1558142671428571,0.3273801314285714,0.36774088
676,1778426761750,0.8476278928571429,0.2836054,-0.8995298714285714,0.1623374357142857,0.3730423171428571,0.3467532942857143
677,1778426761760,0.8397746150000001,0.28708992,-0.8925825500000001,0.19461149,0.3574579733333333,0.3444770966666666
678,1778426761770,0.84437853,0.28556544,-0.8845028,0.23472497,0.3036,0.36086863
679,1778426761780,0.9318430333333332,0.2772112866666666,-0.8749697566666667,0.3879757799999999,0.221056865,0.36651915
680,1778426761790,0.9998754571428572,0.2719409457142857,-0.8781871142857144,0.48101276,0.2169880642857143,0.3007420514285714
681,1778426761800,1.0381602166666666,0.27203823,-0.8803257416666667,0.54181205,0.2342413633333333,0.2262492099999999
682,1778426761810,1.0511240000000002,0.2680470057142857,-0.8801994771428572,0.5965971628571428,0.2720750085714286,0.1362229446142857
683,1778426761820,1.0291454,0.24952675,-0.8811794700000001,0.6914231200000001,0.37522398,-0.0245873258499999
684,1778426761830,0.9933332285714284,0.2308671228571428,-0.8789537342857143,0.7327110428571428,0.4792456057142857,-0.0681114731428571
685,1778426761840,0.9670889666666668,0.2069429666666666,-0.8636479533333333,0.7525096166666666,0.5462408000000001,-0.075340045
686,1778426761850,0.9628001,0.20001167,-0.8564524,0.7788532,0.6423248,-0.06337727
687,1778426761860,0.9692130766666668,0.1859762999999999,-0.8310444233333333,0.83775079,0.6821582933333333,-0.0555632846666666
688,1778426761870,0.97859369,0.1607207633333333,-0.7858791799999999,0.9692395133333336,0.7261151333333333,-0.0461712303333333
689,1778426761880,0.98645125,0.1511673585714285,-0.7650359257142857,1.0320568,0.7171557999999999,-0.045356743
690,1778426761890,1.0054855,0.14263028,-0.73986024,1.0320568,0.7171558,-0.045356743
691,1778426761900,1.0390748333333333,0.1406179616666666,-0.7632559166666666,1.4683928166666669,0.4174500583333334,-0.1189405509999999
692,1778426761910,1.0404875,0.13586158,-0.78955823,1.5549829666666666,0.3242676466666667,-0.1625156033333333
693,1778426761920,0.9437135642857142,0.0957460042857143,-0.862680992857143,2.021113114285714,-0.3205951571428572,-0.5894631257142857
694,1778426761930,0.8421019533333333,0.0640077989999999,-0.9147891266666668,2.0412570999999997,-0.3382666233333333,-0.66258516
695,1778426761940,0.7880163657142857,0.0500987445714285,-0.9377202285714288,1.9289379,-0.2035708428571428,-0.6184138
696,1778426761950,0.7469338,0.04006331,-0.9489578,1.8490891,-0.10338894,-0.569021
697,1778426761960,0.7336926428571429,0.0448632448571428,-0.95430655,1.6715454857142855,0.1212131157142857,-0.4623813628571428
698,1778426761970,0.7528691666666667,0.0747604633333333,-0.98646,1.2412273333333332,0.5350161466666666,-0.2764165133333333
699,1778426761980,0.7704369571428572,0.1073233414285714,-1.0358356857142856,1.0844386,0.58062744,-0.2724459
700,1778426761990,0.758184485,0.1242145699999999,-1.0510979,0.6414084999999999,0.37293324,-0.4499785999999999
701,1778426762000,0.73749076,0.1284221314285714,-1.0362973714285717,0.5081744128571428,0.3177372028571428,-0.5006695
702,1778426762010,0.6672950666666666,0.1043556866666666,-0.9181023666666668,0.127899915,0.3202461,-0.54237195
703,1778426762020,0.6613103785714286,0.09896919,-0.8790582785714286,0.0029234257142857,0.3876376228571428,-0.49536808
704,1778426762030,0.6623557,0.09866429,-0.8470006,-0.0862338133333333,0.5201008533333333,-0.40026946
705,1778426762040,0.7151230566666666,0.082708082,-0.73614048,-0.14070263,0.7176139533333333,-0.26475918
706,1778426762050,0.73723817,0.084456146,-0.71174884,-0.1064868994285714,0.7867071942857143,-0.1940806214285714
707,1778426762060,0.7995893216666666,0.136125826,-0.7470761,0.0110464806666666,0.6426811333333333,-0.2039271766666666
708,1778426762070,0.8161626,0.1578489271428571,-0.7766655285714286,0.1083413137142857,0.3691589542857142,-0.2926698942857143
709,1778426762080,0.7736020666666666,0.1766159933333333,-0.8327721833333334,0.13260866,0.0655662066666666,-0.4198171533333333
710,1778426762090,0.64496795,0.1878855257142857,-0.8636218,0.0407534385714285,-0.2806489285714286,-0.5760677857142857
711,1778426762100,0.6151404285714286,0.1857773885714286,-0.8498143657142857,-0.1098684814285714,-0.2922117371428571,-0.5511095714285714
712,1778426762110,0.5792207933333334,0.16931882,-0.7471370533333334,-0.4103996366666666,-0.0632754553333333,-0.36086865
713,1778426762120,0.57887524,0.16610725,-0.7217493999999999,-0.527023975,0.104381596,-0.2541199449999999
714,1778426762130,0.6275192085714286,0.1249811571428571,-0.5802255142857142,-0.5725116142857143,0.2616248557142857,-0.1611157128571428
715,1778426762140,0.64003736,0.10671354,-0.5363728,-0.5682574,0.43081272,-0.06566802
716,1778426762150,0.6767293914285715,0.1174284514285714,-0.5278792557142856,-0.5217007414285714,0.4043927971428571,-0.0715366885714285
717,1778426762160,0.6721646714285715,0.14269125,-0.5549713871428571,-0.0524471449999999,0.0400334885714285,-0.1970694928571428
718,1778426762170,0.6507697,0.14708175,-0.57033813,0.0436986825714285,-0.0757472885714285,-0.2413135914285714
719,1778426762180,0.5718423166666667,0.16356645,-0.6288984966666666,0.1772018266666667,-0.3449861333333333,-0.2845104966666666
720,1778426762190,0.4582322985714285,0.1880945942857142,-0.7142751428571428,0.1804015967142857,-0.4852451714285714,-0.2569124828571428
721,1778426762200,0.4063346833333333,0.1873889816666666,-0.7462630666666666,0.050549097,-0.5039638,-0.1572978
722,1778426762210,0.4025235,0.17275399,-0.7526659,-0.07788532,-0.45372015,-0.07544186
723,1778426762220,0.4055550285714285,0.1646524714285714,-0.7429092285714286,-0.07788532,-0.45372015,-0.07544186
724,1778426762230,0.4362042833333333,0.12488534,-0.6680267799999999,-0.5910121,-0.10781772,0.14996742
725,1778426762240,0.46112445,0.1425693,-0.63534194,-0.721610025,0.0042506034999999,0.1711186283333333
726,1778426762250,0.4270719614285714,0.2454063014285714,-0.6009758071428573,-0.7978554400000001,0.0666497627142857,0.0416479215714285
727,1778426762260,0.3897614171428571,0.2854086328571428,-0.5948081928571429,-0.7517787428571429,0.0037306415714285,-0.0672169935714285
728,1778426762270,0.33788556,0.31276214,-0.5982056,-0.6863325333333333,-0.0719548341666666,-0.1592067583333333
729,1778426762280,0.3123788485714285,0.3117690628571429,-0.6094954571428571,-0.6383542,-0.12095132,-0.20082195
730,1778426762290,0.2738371083333333,0.3031985933333334,-0.6399458683333333,-0.6179410833333333,-0.0740928633333333,-0.2174680333333333
731,1778426762300,0.26653996,0.29873693,-0.67180747,-0.6374379,-0.01572978,-0.23167065
732,1778426762310,0.2410593585714286,0.2738313085714286,-0.6999537714285714,-0.8377144285714285,0.2422517057142857,-0.2158099685714285
733,1778426762320,0.23598938,0.2678205,-0.6988822999999998,-0.8903361,0.3089451,-0.2081523399999999
734,1778426762330,0.2257245533333333,0.29235446,-0.67518172,-0.9285151666666668,0.4417064866666666,-0.1926261799999999
735,1778426762340,0.2037488214285714,0.3452030857142857,-0.6277369942857144,-1.0048733,0.70722926,-0.16157386
736,1778426762350,0.1974098866666666,0.3831524366666667,-0.63605335,-0.88201305,0.7401650766666666,-0.1643736616666666
737,1778426762360,0.2020065571428571,0.4249202542857143,-0.6769384557142857,-0.6375251142857142,0.6859580514285714,-0.1937751828571428
738,1778426762370,0.20190202,0.4399037,-0.70857793,-0.5360342,0.63132924,-0.21533
739,1778426762380,0.19236894,0.4366921583333333,-0.8073845250000001,-0.3782528416666667,0.5232315233333333,-0.2793435883333333
740,1778426762390,0.1803966933333333,0.4218132233333334,-0.8863119133333334,-0.3426954066666667,0.5335907866666667,-0.3109813133333333
741,1778426762400,0.1615425242857142,0.4152942571428571,-0.9296187428571429,-0.4042618999999999,0.6656249628571429,-0.3124793857142857
742,1778426762410,0.1394390233333333,0.4195569933333333,-0.9482667666666668,-0.49021935,0.82848597,-0.29535335
743,1778426762420,0.1317251566666666,0.4251365883333333,-0.9544256666666668,-0.5737552,0.9682214,-0.2640465
744,1778426762430,0.1383094614285714,0.4435102085714285,-0.9849006428571428,-0.6398813328571428,1.0276935571428572,-0.2475967742857143
745,1778426762440,0.1399065316666666,0.4448532066666666,-0.994123,-0.6243042766666667,0.9738210333333334,-0.2838996133333333
746,1778426762450,0.13697953,0.4436234616666667,-1.0121729,-0.5981389,0.92357735,-0.2943861333333333
747,1778426762460,0.1075498271428571,0.4437279814285714,-1.0627710428571429,-0.5510877314285715,0.8146106271428571,-0.2846850285714286
748,1778426762470,0.09866429,0.44630653,-1.0803679,-0.53786683,0.77579886,-0.27565295
749,1778426762480,0.0834717685714285,0.4345288185714285,-1.1181924428571428,-0.5124286585714286,0.6370888171428571,-0.1757328437142857
750,1778426762490,0.0623613633333333,0.42833799,-1.1475264,-0.5078835266666667,0.5532911933333334,-0.0761545326666666
751,1778426762500,0.064394,0.43386677,-1.1495184,-0.51083606,0.5019785,0.01863139
752,1778426762510,0.09939604,0.4451479371428571,-1.1314859142857143,-0.46338492,0.3713842428571428,0.1171988614285714
753,1778426762520,0.12598296,0.4498433499999999,-1.1184189,-0.3918700566666666,0.2454151183333333,0.16668985
754,1778426762530,0.1306260828571428,0.46056694,-1.0943408571428572,-0.2681480342857142,0.1441860157142857,0.1318596311428571
755,1778426762540,0.13537375,0.461002525,-1.08558165,-0.15829046,0.100563695,0.094684113
756,1778426762550,0.1436669216666666,0.447454945,-1.0738227833333334,-0.10445796,0.0870483,0.07696902
757,1778426762560,0.1485017028571428,0.4451566128571428,-1.0734772428571429,0.1214749139999999,0.1055051545714285,0.0359319670714285
758,1778426762570,0.15616766,0.44472107,-1.0783556,0.25152376,0.09941832,0.0143553335
759,1778426762580,0.18671821,0.43313503,-1.100674,0.46211955,-0.0010690142,-0.038026363
760,1778426762590,0.1936524214285714,0.4073321357142857,-1.145781057142857,0.6909540471428571,-0.1428988342857143,-0.1442514635714285
761,1778426762600,0.1866470716666667,0.3868823333333333,-1.17690805,0.70789101,-0.2166535366666666,-0.1944078566666666
762,1778426762610,0.1575788714285714,0.3366137142857143,-1.190034657142857,0.6575527971428572,-0.2198896742857143,-0.2009310242857143
763,1778426762620,0.1456995533333333,0.3155265333333333,-1.1664502,0.56744289,-0.1749619966666666,-0.1748601766666666
764,1778426762630,0.1355973466666666,0.2973140933333333,-1.1099022,0.4846706566666666,-0.12130766,-0.1122464943333333
765,1778426762640,0.12799528,0.28544348,-1.0581106,0.44150287,-0.08445212,-0.043829583
766,1778426762650,0.12799528,0.28544348,-1.0581106,0.5109633116666666,-0.1194750566666666,0.0578540301666666
767,1778426762660,0.12799528,0.28544348,-1.0581106,0.5705481,-0.15378532,0.121256754
768,1778426762670,0.118909381,0.267170055,-0.96112317,0.6457863666666667,-0.1846340199999999,0.1685988046666666
769,1778426762680,0.1085225933333333,0.2616006233333333,-0.9556451866666666,0.8267552,-0.31418835,0.29031371
770,1778426762690,0.1061385914285714,0.2623585114285714,-0.9663455957142856,0.9325512357142856,-0.4096069571428571,0.3782128557142857
771,1778426762700,0.11695804,0.25885656,-0.98761857,1.0178542,-0.505491,0.47540587
772,1778426762710,0.1705848571428571,0.2716621971428571,-0.9948315385714286,1.0877982857142856,-0.6164284571428571,0.5896813057142857
773,1778426762720,0.2298101516666666,0.270401955,-1.0098557,1.09299065,-0.5958226750000001,0.61246875
774,1778426762730,0.28114445,0.27806501,-1.02792585,1.05168085,-0.5015967250000001,0.581696415
775,1778426762740,0.2985539999999999,0.28617525,-1.0355482,1.0027352285714286,-0.4187699314285714,0.5413356814285714
776,1778426762750,0.298554,0.28617525,-1.0355482,0.9193522,-0.29611692,0.4686863700000001
777,1778426762760,0.3233115466666666,0.2663366766666666,-1.064167766666667,0.6572146799999999,0.0700967835,0.23121249
778,1778426762770,0.3444452028571428,0.2693972514285714,-1.0660465,0.58459806,0.15867224,0.1594358199999999
779,1778426762780,0.3594925133333334,0.2547811233333333,-1.0520939833333334,0.3337360466666667,0.3747149133333333,-0.1258382433333333
780,1778426762790,0.3583034166666667,0.2507361733333333,-1.0449899166666663,0.1753437716666666,0.5034802333333334,-0.3090723666666666
781,1778426762800,0.3220484114285714,0.2468698057142857,-0.9943089,-0.0460985099999999,0.6873979285714286,-0.5187773
782,1778426762810,0.2950375466666666,0.2480835733333333,-0.9649953666666664,-0.1227330099999999,0.7613926166666666,-0.5688173333333334
783,1778426762820,0.2589262714285714,0.2494483457142857,-0.9345057571428572,-0.20871957,0.8151342357142857,-0.5852088857142856
784,1778426762830,0.2126445283333333,0.253693675,-0.8922776166666667,-0.30558535,0.8058585216666666,-0.5590944166666667
785,1778426762840,0.18464492,0.25684425,-0.8671237,-0.3399465,0.72021013,-0.4896084999999999
786,1778426762850,0.1755503085714285,0.2458941385714285,-0.8442565428571429,-0.3481931871428571,0.5908812314285715,-0.3456188328571428
787,1778426762860,0.16342416,0.23129399,-0.813767,-0.35918877,0.4184427,-0.15363261
788,1778426762870,0.2101516271428571,0.2612521871428571,-0.7718655571428571,-0.3110831342857142,0.1797689228571428,0.0785398157142857
789,1778426762880,0.23263552,0.2604013733333333,-0.7602882666666666,-0.2770782999999999,0.0280997999999999,0.2051489066666666
790,1778426762890,0.2402680783333333,0.2405831383333333,-0.7532147333333333,-0.2614757666666666,-0.0821359283333333,0.3224095766666666
791,1778426762900,0.2346216885714285,0.2159098142857143,-0.73107925,-0.2691297628571428,-0.1752528771428571,0.5156357228571429
792,1778426762910,0.2455224533333333,0.2220251466666666,-0.6767264666666666,-0.2766710433333333,-0.2716314066666667,0.7651087433333332
793,1778426762920,0.2693101342857143,0.2247517899999999,-0.6436699671428572,-0.1971567471428571,-0.4704971342857143,1.001469955714286
794,1778426762930,0.3429265233333333,0.2289666133333333,-0.5981040316666667,-0.0982983941999999,-0.63361998,1.1344786
795,1778426762940,0.4452088933333333,0.2401156433333333,-0.5863147133333334,0.0745764657999999,-0.8390743333333334,1.2449434
796,1778426762950,0.4751801499999999,0.24076609,-0.5954006166666667,0.132888645,-0.8953757466666666,1.2536227666666666
797,1778426762960,0.5085256066666667,0.2294951116666666,-0.6384721783333334,0.2313906683333333,-0.973235615,1.2219850166666666
798,1778426762970,0.52356714,0.23208672,-0.68766207,0.23839016,-0.98456204,1.1751521
799,1778426762980,0.5261485816666667,0.20957524,-0.7387118149999999,0.1536835133333333,-0.98244946,1.0729848666666666
800,1778426762990,0.4955167066666666,0.1820634733333333,-0.7616094933333333,-0.0155007058333333,-0.9071094066666668,1.03086065
801,1778426763000,0.4778937366666667,0.171879945,-0.7139745666666667,-0.178270841,-0.8502735,1.0927362
802,1778426763010,0.5057873514285715,0.1739038785714285,-0.6832628571428572,-0.2904882514285714,-0.807171142857143,1.1393946142857143
803,1778426763020,0.5660086333333333,0.1650909433333333,-0.6442042566666667,-0.3956879749999999,-0.71608678,1.148503
804,1778426763030,0.6490622666666667,0.14228473,-0.6207069366666667,-0.46227228,-0.6342817566666666,1.113403733333333
805,1778426763040,0.738189404,0.149411156,-0.603791328,-0.5354234,-0.53899692,0.987524784
806,1778426763050,0.7689269599999999,0.16807891,-0.5989170533333333,-0.5733479466666666,-0.4887430666666667,0.8844819933333333
807,1778426763060,0.7915706,0.18507177,-0.60424256,-0.6018040833333332,-0.4844161416666666,0.7473936616666667
808,1778426763070,0.7793645916666666,0.185325855,-0.6820723033333334,-0.61888285,-0.7038694949999998,0.465326595
809,1778426763080,0.749848614,0.1549602584,-0.7317378,-0.651915404,-0.905119056,0.323483692
810,1778426763090,0.7210176599999999,0.114823766,-0.7510194,-0.71906477,-0.9210321,0.3351359499999999
811,1778426763100,0.70885232,0.072229825,-0.7606846150000001,-0.7867944383333333,-0.8500699166666666,0.3993277
812,1778426763110,0.73607951,0.0791712853333333,-0.7551253533333333,-0.9352346533333332,-0.6130541733333333,0.5721261866666667
813,1778426763120,0.8101936240000001,0.1122138587999999,-0.744421508,-1.09693066,-0.476627604,0.6867652399999999
814,1778426763130,0.9065162833333332,0.1552936133333333,-0.7187106583333334,-1.1675671,-0.4623995533333334,0.6784422283333332
815,1778426763140,0.9453803666666666,0.19840589,-0.7143506166666667,-1.1544844666666665,-0.56993728,0.5721771233333334
816,1778426763150,0.9573729,0.21729926,-0.7251337750000001,-1.0566696166666667,-0.8910232916666666,0.3517565633333332
817,1778426763160,0.9654831,0.22403745,-0.73370135,-1.0439687,-0.93233305,0.32620203
818,1778426763170,0.9630265142857144,0.2217637971428571,-0.7334748571428572,-1.0303769471428572,-0.9367400142857144,0.3090978057142857
819,1778426763180,0.9309689333333332,0.1747662933333333,-0.7476249433333333,-0.9526443533333334,-0.8937467766666667,0.2131919733333333
820,1778426763190,0.9093823,0.165399892,-0.7365673779999999,-0.97078706,-0.64406577,0.241475032
821,1778426763200,0.8377724333333333,0.1903972833333333,-0.74536868,-0.9947431333333334,-0.4443535533333334,0.27463484
822,1778426763210,0.7895176333333334,0.2180615033333333,-0.7420554933333333,-1.0111347,-0.377362,0.29642236
823,1778426763220,0.7924243,0.2317005,-0.73760402,-0.9532806683333334,-0.4148029499999999,0.302836445
824,1778426763230,0.8219469428571429,0.2290116114285714,-0.7494339657142858,-0.8872599314285713,-0.4966116357142857,0.2848813785714286
825,1778426763240,0.8365122766666667,0.2250131233333333,-0.7565685666666666,-0.7806094199999999,-0.6942483500000001,0.171958568
826,1778426763250,0.8312923879999999,0.219561594,-0.746543604,-0.6511823600000001,-0.884227422,0.0635910722
827,1778426763260,0.82090154,0.1957634566666667,-0.7394334266666666,-0.53305629,-0.949895435,0.0320704255
828,1778426763270,0.7755330666666667,0.1490940633333333,-0.7377666399999999,-0.4317290199999999,-0.8021424,0.0590248539999999
829,1778426763280,0.7494746233333333,0.1562083,-0.7393114399999999,-0.40276383,-0.5998696499999999,0.10074186
830,1778426763290,0.72662777,0.17336378,-0.7388236,-0.39690968,-0.4005748999999999,0.14095716
831,1778426763300,0.6402711183333333,0.2294849416666666,-0.7855844666666667,-0.36873354,-0.1554143016666666,0.2532545433333333
832,1778426763310,0.6217232916666666,0.2537241683333333,-0.8060836166666666,-0.3311144283333333,-0.1618283875,0.3044145166666667
833,1778426763320,0.68906459,0.25577712,-0.82093205,-0.2030363349999999,-0.49502993,0.30001119
834,1778426763330,0.7306218649999999,0.242605615,-0.837152515,-0.1296815999999999,-0.6575709833333333,0.2727513166666666
835,1778426763340,0.7483363,0.23342825,-0.8470616300000001,-0.0538325,-0.7291440250000001,0.228463595
836,1778426763350,0.7625851566666667,0.21003258,-0.85145211,-0.0494291809999999,-0.60236405,0.2317215466666666
837,1778426763360,0.75575548,0.2216389433333333,-0.8567573199999999,-0.0704531286666666,-0.33602679,0.2537636066666667
838,1778426763370,0.6936380333333334,0.2469656233333333,-0.8817181000000001,-0.1196786833333333,-0.0257326993749999,0.2834160166666666
839,1778426763380,0.6724173,0.2531855,-0.8921862,-0.1400713999999999,0.019975293,0.2952006219999999
840,1778426763390,0.642781425,0.2476059125,-0.912629475,-0.19700404,0.102319926,0.33124167
841,1778426763400,0.6126272,0.2275234483333333,-0.91223825,-0.3708461166666667,0.2908991116666666,0.4692463333333332
842,1778426763410,0.6896337333333333,0.2216389533333333,-0.8827954533333333,-0.5022839566666667,0.3800599866666667,0.5575672333333334
843,1778426763420,0.7874152742857142,0.214124,-0.8393956971428571,-0.5398957842857143,0.4101960028571428,0.5569563685714286
844,1778426763430,0.81529146,0.2128173,-0.81077904,-0.52778757,0.42852196,0.52106804
845,1778426763440,0.8259830866666666,0.2124107666666666,-0.78248468,-0.477085755,0.446847915,0.4886158249999999
846,1778426763450,0.8242554000000001,0.2165166933333333,-0.7599223866666667,-0.27107146,0.5180137,0.4448626
847,1778426763460,0.826592965,0.2214560066666666,-0.7592312916666666,-0.2576324233333333,0.52353695,0.446466125
848,1778426763470,0.8770807814285714,0.2361897399999999,-0.7790872571428571,-0.11106839,0.6633996642857143,0.46685376
849,1778426763480,0.9114149833333332,0.2378594066666667,-0.7801776333333333,-0.0616464821666666,0.7989099250000001,0.4543055833333334
850,1778426763490,0.96711739,0.24546554,-0.7552514,-0.0231212484,0.82430156,0.404942594
851,1778426763500,1.041219257142857,0.25241019,-0.7177857999999999,0.1985530157142857,0.7420267142857142,0.2168135357142857
852,1778426763510,1.0559762,0.25239277,-0.7119318,0.29810223,0.6988297999999998,0.14095716
853,1778426763520,1.0559762,0.25239277,-0.7119318,0.29810223,0.6988298,0.14095716
854,1778426763530,1.0366719628571428,0.2320605728571428,-0.7390936571428571,0.53577245,0.6195045914285714,-0.0007635828571428
855,1778426763540,0.9650563,0.16363759,-0.82273092,1.2118803,0.440204755,-0.371024285
856,1778426763550,0.93430242,0.1399268566666666,-0.84297601,1.3056481166666667,0.4627049666666666,-0.385786855
857,1778426763560,0.9057322542857144,0.1092398214285714,-0.8552153857142857,1.4130622714285714,0.5127341142857144,-0.3584688242857142
858,1778426763570,0.8895989571428571,0.0631395757142857,-0.8551456657142857,1.4983216428571429,0.5877832657142859,-0.3112576585714285
859,1778426763580,0.89127153,0.04701494,-0.8518789400000001,1.5506815000000005,0.66675943,-0.26435193
860,1778426763590,0.91271332625,0.024986214125,-0.8570317175,1.654738525,0.75069613125,-0.22968532875
861,1778426763600,0.9070041866666668,0.0154277295333333,-0.8626520166666666,1.7354172666666667,0.7191411,-0.2475022233333333
862,1778426763610,0.8669844,-0.0006533484285714,-0.8651550357142856,1.794264,0.6791294,-0.25717425
863,1778426763620,0.8377927700000001,-0.0061588963,-0.87050815,1.836006383333333,0.7037167833333333,-0.1682679216666666
864,1778426763630,0.83273154,-0.0031709166,-0.8759048000000001,1.8483255000000005,0.7298313,-0.10705414
865,1778426763640,0.84477054,0.0093907918857142,-0.8783526557142858,1.8365445285714288,0.7250316142857143,-0.0573995188571428
866,1778426763650,0.8762401299999999,0.0317701465,-0.8573365700000001,1.78166485,0.592921065,0.043218717
867,1778426763660,0.90478859,0.035144328,-0.8341949933333334,1.7732909,0.50391292,0.055894171
868,1778426763670,0.9518645033333334,0.0324409196666666,-0.8115514333333333,1.8023579,0.34842228,0.0286343085
869,1778426763680,0.9781319457142856,0.0259858375714285,-0.8061881714285715,1.8247853857142855,0.2508256485714285,-0.0026834437142857
870,1778426763690,0.99119896,0.0161856137142857,-0.8193074071428572,1.7925185857142856,0.1552034042857142,-0.0818341242857142
871,1778426763700,0.98411229,0.024330686,-0.831389925,1.700267,0.161802935,-0.1223257649999999
872,1778426763710,0.96819672,0.0396364565,-0.82590183,1.6230689,0.17088956,-0.15409076
873,1778426763720,0.9627477857142858,0.0502294115714285,-0.8086273342857143,1.407717142857143,0.2376265828571428,-0.1868156828571428
874,1778426763730,0.9732885,0.057503358,-0.78358227,1.2308935,0.31016684,-0.21059579
875,1778426763740,0.9802401,0.06524771,-0.74754363,1.1131492,0.36025777,-0.24724771
876,1778426763750,0.97926444,0.0687845,-0.7051631,0.9188940714285714,0.4360050614285714,-0.3434153442857143
877,1778426763760,0.9588102857142856,0.0682269782857143,-0.6468321714285714,0.7112871400000002,0.5303837271428572,-0.5010621928571428
878,1778426763770,0.9431648,0.063418336,-0.6217436,0.65179324,0.5564982,-0.5555819
879,1778426763780,0.9007581257142856,0.0570590788571428,-0.5979965314285715,0.5906630628571429,0.5804528571428571,-0.6269222428571428
880,1778426763790,0.8567166666666667,0.0528791,-0.5931341833333333,0.4774420883333333,0.5216025833333333,-0.7440847333333332
881,1778426763800,0.7952293,0.04256346,-0.5918638,0.42256603,0.4810564,-0.7851145
882,1778426763810,0.7548349685714285,0.0329723077142857,-0.5743279457142858,0.3558508171428571,0.4523238942857143,-0.7781550285714286
883,1778426763820,0.7117488399999999,0.024452647,-0.550337,0.2733622,0.43203443,-0.7554876
884,1778426763830,0.6968292799999999,0.0275422576666666,-0.5389948666666666,0.2081523366666666,0.41895175,-0.7387397
885,1778426763840,0.68332239,0.0333454395,-0.5179570716666667,0.13820827,0.40500367,-0.7325292166666667
886,1778426763850,0.6689414857142858,0.0345316305714285,-0.4941141885714285,0.0825758928571428,0.4088215771428571,-0.7516697142857142
887,1778426763860,0.6368257533333334,0.0372379433333333,-0.4769586999999999,0.02367103,0.4317290199999999,-0.7809912
888,1778426763870,0.6105669742857142,0.0356815234285714,-0.4612551128571428,-0.0242382585714285,0.46105054,-0.8146324285714286
889,1778426763880,0.5865586333333334,0.0313534561666666,-0.4416720999999999,-0.0844521183333333,0.5091307166666666,-0.8584947500000001
890,1778426763890,0.5635694833333332,0.0308249696666666,-0.4253398583333334,-0.050243664,0.5624542,-0.8498917583333334
891,1778426763900,0.5393694285714286,0.0429816005714285,-0.4435276057142857,0.0637917834285714,0.6118470142857142,-0.8212865128571429
892,1778426763910,0.5223272,0.0531738326666666,-0.49553704,0.10995574,0.6217081,-0.8074111299999999
893,1778426763920,0.5049481666666668,0.05618214,-0.5703584733333333,0.17623462,0.5714644,-0.79381937
894,1778426763930,0.4968234000000001,0.0525466221428571,-0.6012371571428572,0.1580613807142857,0.5592471285714286,-0.792292222857143
895,1778426763940,0.43136662,0.072361945,-0.7014230333333334,0.063682705,0.5885687,-0.7767151599999998
896,1778426763950,0.4061110983333333,0.0868343333333333,-0.7167592833333334,-0.0318158983333333,0.6122906333333333,-0.75390952
897,1778426763960,0.3550642785714286,0.1216011714285714,-0.7112261585714286,-0.1853757814285714,0.5976007685714286,-0.64158305
898,1778426763970,0.343780215,0.1490737416666666,-0.6887698683333333,-0.2954296983333333,0.55443659,-0.5013167683333333
899,1778426763980,0.3779663,0.1676752957142857,-0.6541670914285714,-0.3057380657142857,0.4934918542857143,-0.3184353185714285
900,1778426763990,0.4277485133333333,0.16837364,-0.6469889833333333,-0.2554944,0.50656,-0.21762075
901,1778426764000,0.4506970066666667,0.1654364766666666,-0.65581062,-0.2554944,0.50656,-0.21762075
902,1778426764010,0.4891835857142857,0.1601922728571428,-0.6869215857142857,-0.1971131271428571,0.6830782428571428,-0.1998183771428571
903,1778426764020,0.479692615,0.169796495,-0.7362624700000001,-0.1858048433333333,0.8926268433333333,-0.20010927
904,1778426764030,0.4536138883333334,0.197287935,-0.7732260066666666,-0.171500415,0.9906707,-0.1708131899999999
905,1778426764040,0.4509061142857143,0.1998635785714285,-0.7837042714285715,-0.1313796585714285,1.0558805857142857,-0.1242674385714285
906,1778426764050,0.4691737,0.19279581,-0.8366545333333333,-0.0602211336666666,1.0681997,-0.0653625786
907,1778426764060,0.4805361616666666,0.1912510066666666,-0.8635463416666668,0.0543161013333333,1.0362819333333333,0.0307977894666666
908,1778426764070,0.48460147,0.19074284,-0.90297955,0.1325577606666666,1.016886966666667,0.1119410566666666
909,1778426764080,0.5133633283333333,0.1850514483333333,-0.9586230083333334,0.1283326138333333,1.02065395,0.1475748633333333
910,1778426764090,0.5621364833333333,0.2066685649999999,-1.1106339500000002,-0.0535525213333333,1.0421871,0.1510364333333333
911,1778426764100,0.5571463333333334,0.2311923633333333,-1.1725481333333334,-0.3098614033333333,1.0603094,0.1148935713333333
912,1778426764110,0.5379582,0.25513685,-1.182508,-0.49098295,1.0511464,0.106137834
913,1778426764120,0.52311413,0.2477148128571428,-1.0836085428571427,-0.9481719714285716,1.1367984,0.1506655542857142
914,1778426764130,0.5460562619999999,0.214451542,-0.98741124,-1.05456726,1.22160832,0.174615838
915,1778426764140,0.5614962,0.18305947,-0.907248,-1.2417363,1.3255776,0.22922719
916,1778426764150,0.5764726419999999,0.145715826,-0.854208424,-1.39683496,1.59603814,0.345932988
917,1778426764160,0.6711773433333333,0.1984262099999999,-0.7715694000000001,-1.2608258666666667,1.5635095666666663,0.3103704466666666
918,1778426764170,0.7202554083333332,0.2346783216666666,-0.7706140549999999,-1.1759156,1.521818,0.27870727
919,1778426764180,0.7634388599999999,0.2808192133333333,-0.8506289083333334,-0.8549059,1.1452196,0.0253509079999999
920,1778426764190,0.72705466,0.29885888,-1.0032293,-0.4734460283333333,0.4418337266666667,-0.4608723833333334
921,1778426764200,0.6487573616666666,0.2931674966666667,-1.1498739999999998,-0.5578217799999999,0.15062919,-0.7016296333333333
922,1778426764210,0.535153185,0.24775835,-1.2358342999999998,-0.9744828,0.107665,-0.7911468500000001
923,1778426764220,0.49563867,0.2237935499999999,-1.2320231,-1.205848,0.14187345,-0.7806858
924,1778426764230,0.47405205,0.2091178966666667,-1.1866952333333334,-1.3330607,0.164551825,-0.7379252
925,1778426764240,0.390022755,0.168607395,-0.858708615,-1.7498235,0.20738874,-0.4431827399999999
926,1778426764250,0.3626431133333334,0.19635291,-0.7203265533333333,-1.5276721,0.1217658023333333,-0.2507601966666666
927,1778426764260,0.3571346666666666,0.2810326533333333,-0.5779402,-1.2654073,0.0577267669999999,-0.14966199
928,1778426764270,0.3639643166666667,0.3376111766666667,-0.5387306166666667,-0.455400015,-0.16055575,-0.077503525
929,1778426764280,0.38481919,0.35619964,-0.58826602,0.0353283733333333,-0.2113593766666666,-0.0742710353333333
930,1778426764290,0.4245021271428571,0.3508741314285714,-0.7112697,0.8031569000000001,-0.2189515585714285,-0.1466731082857142
931,1778426764300,0.4417086859999999,0.315811108,-0.8435980000000001,1.03645508,-0.193094506,-0.2010357519999999
932,1778426764310,0.4252687,0.2173094333333333,-1.0454877666666669,1.2047281666666667,-0.1220457916666666,-0.23772839
933,1778426764320,0.4139570966666666,0.156025365,-1.14543265,1.185384,-0.0954476999999999,-0.1847867399999999
934,1778426764330,0.3801847933333333,0.1010831333333333,-1.2086884333333334,0.9536624,-0.0921897493333333,0.0080430566666666
935,1778426764340,0.3375400066666666,0.0651054246666666,-1.1999481,0.7572183666666666,-0.0992656033333333,0.1772018266666666
936,1778426764350,0.3302021766666667,0.0623003846666666,-1.1615515333333333,0.59261565,-0.29077186,0.4700608099999999
937,1778426764360,0.32556777,0.0686218933333333,-1.0848803666666669,0.5855652333333333,-0.5690719,0.6783149399999999
938,1778426764370,0.3282000366666667,0.0793745525,-1.0507524,0.6629415,-0.7991645000000002,0.7661777
939,1778426764380,0.3603259133333333,0.0972820933333333,-1.0584154,1.01266187,-1.5387695499999998,0.8818603499999998
940,1778426764390,0.3976625971428572,0.1013473671428571,-1.0981912285714286,1.2047571857142858,-1.954310657142857,0.9019861785714286
941,1778426764400,0.41123336,0.0826877466666666,-1.1528314,1.2574661,-2.088701,0.89675015
942,1778426764410,0.4198154428571428,0.0728439757142857,-1.2037025714285714,1.1650072857142857,-2.130326971428571,0.8765916285714285
943,1778426764420,0.4101459,0.08024859,-1.2162905,1.052979,-2.0717494,0.8712466
944,1778426764430,0.39079517,0.0980240133333333,-1.20513125,0.903826,-2.0013727333333335,0.86399255
945,1778426764440,0.3714851,0.106469631,-1.1876128285714285,0.7539168142857143,-1.9489436857142857,0.8225955142857143
946,1778426764450,0.3245616149999999,0.114396923,-1.1734525999999998,0.72944945,-2.024331,0.77831867
947,1778426764460,0.28175424,0.140983835,-1.16150065,0.7341073000000001,-2.115477233333334,0.7476481399999999
948,1778426764470,0.2791277885714285,0.1733986185714285,-1.1557294142857142,0.7468045857142858,-2.221040614285714,0.7159994885714286
949,1778426764480,0.2884924433333333,0.1912509999999999,-1.1551283666666663,0.6979899,-2.3108268,0.63003113
950,1778426764490,0.2837259166666666,0.1857527016666666,-1.1515001,0.61824654,-2.2636120500000003,0.5853107066666667
951,1778426764500,0.2657297928571429,0.1876851671428571,-1.0990972,0.38669952,-2.0023072571428573,0.5388485942857143
952,1778426764510,0.2440081499999999,0.204554625,-1.00591235,0.141033515,-1.66453145,0.49151746
953,1778426764520,0.2161304966666666,0.2258668466666666,-0.9160900533333334,0.0164933622666666,-1.424028766666667,0.4281147333333333
954,1778426764530,0.19525529,0.24699612,-0.8652943949999999,-0.0036651916,-1.3726142999999995,0.40759984
955,1778426764540,0.18129106,0.26038104,-0.83687806,-0.0036651916,-1.3726142999999995,0.40759984
956,1778426764550,0.2161711457142857,0.3131193114285714,-0.8297696800000001,0.2007783171428571,-1.5450091142857143,0.1567742018571429
957,1778426764560,0.24820553,0.32908424,-0.8546433666666667,0.3523165266666666,-1.8295922666666664,-0.145742263
958,1778426764570,0.2622815516666666,0.2968262633333333,-0.9012009566666668,0.37064248,-1.9020816,-0.22540927
959,1778426764580,0.2306232233333333,0.2141385166666667,-0.9242815933333332,0.1325832099999999,-1.7595464166666666,-0.341651845
960,1778426764590,0.20623155,0.18677919,-0.9065163000000002,-0.09315695,-1.5436565,-0.3631594
961,1778426764600,0.1812300816666666,0.1790551633333333,-0.8260847833333332,-0.3661373666666667,-1.20971675,-0.3028364333333333
962,1778426764610,0.1834253371428571,0.1610721142857142,-0.6919480257142857,-0.7687302785714286,-0.6843217785714285,-0.1337576745714285
963,1778426764620,0.21659801,0.1512893099999999,-0.589699035,-0.9051496,-0.47235155,-0.033444874
964,1778426764630,0.2479616233333333,0.15425697,-0.5030374933333334,-0.7634797533333334,-0.451327595,0.046934811
965,1778426764640,0.257616655,0.1609341916666666,-0.4838087283333332,-0.6335690716666668,-0.503862,0.0853429623333333
966,1778426764650,0.2865817683333333,0.1785978233333333,-0.4599150633333333,-0.261297608,-0.8606327500000001,0.127518117
967,1778426764660,0.32433948,0.1677711128571428,-0.4671004471428571,-0.0335321397142857,-1.094016,0.1463894885714285
968,1778426764670,0.3396742933333334,0.13250773,-0.5000291933333333,0.192218934,-1.2639820000000002,0.17124589
969,1778426764680,0.3839335628571428,0.0635925571428571,-0.5732041714285714,0.45631635,-1.425454,0.20830505
970,1778426764690,0.39679146,0.05549104,-0.582473,0.6012695583333334,-1.4477251666666666,0.2643010416666667
971,1778426764700,0.45547373,0.0458868225,-0.6071390866666667,0.6907358800000001,-1.2170726,0.45868344
972,1778426764710,0.50094384,0.043600105,-0.6218046,0.6936375,-1.0839803,0.538325
973,1778426764720,0.6244266857142857,0.0520936331428571,-0.7033249971428572,0.6402522399999999,-0.7467609428571429,0.5880014371428571
974,1778426764730,0.6735149000000001,0.051832296,-0.76321524,0.5737806733333333,-0.6900232000000001,0.486783245
975,1778426764740,0.6884548,0.034941066,-0.8494398,0.50518554,-0.7414377,0.33215797
976,1778426764750,0.6865644333333334,0.027623565,-0.8658025666666666,0.46227227,-0.80534948,0.26267205
977,1778426764760,0.6973984,0.012012896,-0.9149314333333334,0.3188207533333333,-1.1147781533333332,0.044033201
978,1778426764770,0.7324294714285714,-0.0240954821428571,-0.92328552,0.1425279542857142,-1.2353004714285714,-0.0423678688571428
979,1778426764780,0.7653698333333333,-0.0246762356666666,-0.93003392,0.0303650966666666,-1.0596222,0.0132608675
980,1778426764790,0.8085489371428572,0.0276671177142857,-0.9244442142857142,-0.2602285885714285,-0.5055564407142857,0.1860739199999999
981,1778426764800,0.8381064142857143,0.0419885114285714,-0.9293486714285714,-0.5950699914285715,0.0828813278571428,0.2655300342857142
982,1778426764810,0.8992597999999999,0.05945469,-0.9451161,-0.8319984699999999,0.43020186,0.25244007
983,1778426764820,0.8981011066666666,0.0606844328333333,-0.9685219666666668,-0.9348783833333334,0.4333070716666666,0.15200362825
984,1778426764830,0.831729702857143,0.0462657655714285,-0.9964692857142856,-0.9962558,0.02919063,-0.0564177658571428
985,1778426764840,0.7717523600000001,0.036770437,-1.0054855,-0.9967794,-0.05589417,-0.07849618
986,1778426764850,0.77175236,0.036770437,-1.0054855,-0.9967794,-0.05589417,-0.07849618
987,1778426764860,0.743854405,0.0058539995,-1.00307685,-0.994870435,-0.329638185,-0.028787022
988,1778426764870,0.7287794842857143,-0.0014722117142857,-0.9757538,-0.99296147,-0.6033821999999999,0.020922136
989,1778426764880,0.73839676,0.016220458,-0.957068,-1.01899955,-0.35208747,0.09468411
990,1778426764890,0.7378478999999999,0.05189327,-0.9349326,-1.0180069,-0.267559,0.09682214
991,1778426764900,0.7301993614285714,0.0962599728571428,-0.952573,-0.9955140285714288,-0.1767582257142857,0.0457276288571428
992,1778426764910,0.73504287,0.10646963,-0.9841428,-0.9971866,-0.2139555533333333,-0.0463239473333333
993,1778426764920,0.7020124666666666,0.08608226,-1.0340847666666668,-1.03376215,-0.28990646,-0.1332195283333333
994,1778426764930,0.6587884199999999,0.066436805,-1.044817,-1.1604149,-0.3927099999999999,-0.22235495
995,1778426764940,0.64735484,0.06829667,-1.0326211,-1.1983649,-0.39828414,-0.2302962
996,1778426764950,0.6226785933333333,0.0690893966666666,-1.0071318433333334,-1.2165636,-0.3727550666666666,-0.2264782933333333
997,1778426764960,0.5733261,0.07067485,-0.95615333,-1.2680035333333333,-0.21930063,-0.17776179
998,1778426764970,0.53840538,0.0837853783333333,-0.9203179,-1.2490666333333331,-0.0737619766666666,-0.1113301933333333
999,1778426764980,0.5232883428571429,0.1122713535714285,-0.895670757142857,-1.1949177857142856,0.0286015842857142,-0.0407752551428571
1000,1778426764990,0.5335677,0.12921485,-0.8888324,-1.1511755,0.03481932,-0.010231993
