id,timestamp,acc_x,acc_y,acc_z,gyro_x,gyro_y,gyro_z
0,1778426766820,0.158058,0.5563739,0.7899851,0.4185954,-0.17867808,-0.48731774
1,1778426766830,0.15452121,0.5599919999999999,0.78799312,0.4010330333333333,-0.1410589633333333,-0.4585052599999999
2,1778426766840,0.14744763,0.5672282,0.78400916,0.3659083,-0.06582073,-0.4008803
3,1778426766850,0.14506944,0.5703643228571429,0.7608719571428572,0.2571960857142857,0.0442659127142857,-0.2792090585714286
4,1778426766860,0.14506944,0.5716187,0.7625445,0.17027868,0.1000291849999999,-0.20066923
5,1778426766870,0.1585806785714285,0.5778647357142858,0.7891139914285714,0.1274963014285714,0.1653699485714286,-0.1656099342857142
6,1778426766880,0.2087317,0.59649825,0.8638308599999999,0.1139263733333333,0.2989676333333333,-0.1710931733333333
7,1778426766890,0.2058859999999999,0.5953294583333334,0.8821246433333334,0.12568553,0.3107777,-0.18661933
8,1778426766900,0.19793838,0.60267745,0.9081424333333332,0.12568553,0.3107777,-0.18661933
9,1778426766910,0.1646960228571428,0.6336258328571428,0.9763026,0.3303471985714286,0.1948223742857142,-0.2729040385714286
10,1778426766920,0.0617718992,0.655800465,1.0071929,0.91377803,-0.338724775,-0.39049562
11,1778426766930,-0.0700853938666666,0.6607499533333333,1.0109736,1.23379505,-0.758007405,-0.3094032499999999
12,1778426766940,-0.1060021213333333,0.6734742533333334,1.00142018,1.4965435000000002,-1.09719032,-0.05367978
13,1778426766950,-0.0783338344,0.695052716,0.951775044,1.7049249199999998,-1.38281562,0.22748622
14,1778426766960,-0.03000175,0.7264448,0.9231636,1.8217529,-1.5676329000000002,0.40103304
15,1778426766970,0.0422585641666666,0.7606439916666666,0.916405075,1.9559906,-1.7484491,0.56046885
16,1778426766980,0.174949235,0.8545925,0.902735575,2.2498930500000003,-1.77219645,0.5706245
17,1778426766990,0.148862342,0.904284428,0.8701361320000001,2.3109033,-1.7348573000000005,0.5502369
18,1778426767000,0.0955340256666666,0.96147884,0.8176086733333333,2.316197466666667,-1.5592335333333331,0.5383759333333333
19,1778426767010,0.1283204979999999,0.9574745333333334,0.7661422733333333,2.2879449666666667,-1.1974485666666668,0.5003495666666666
20,1778426767020,0.2766625,0.8635259999999999,0.7549221,2.1477513666666663,-1.0771081666666666,0.3060944
21,1778426767030,0.1097747,1.02177908,0.72772542,2.11936648,-1.0272921199999998,0.205892134
22,1778426767040,-0.0152186585714285,1.0717262428571428,0.6967305857142857,2.237795828571429,-1.037554557142857,0.102865346
23,1778426767050,-0.1850108,1.0821363,0.65025137,2.4573073333333335,-1.1174760666666668,0.083586726
24,1778426767060,-0.2182444499999999,1.0524395,0.63509804,2.6111436,-1.2479976,0.13439035
25,1778426767070,-0.252941585,1.00130845,0.6135419000000001,2.6621508333333335,-1.3085496333333333,0.1626428683333333
26,1778426767080,-0.2799553466666666,0.8862712266666666,0.5693827866666666,3.2613586666666667,-1.6992744333333334,0.4995859866666667
27,1778426767090,-0.1959870466666666,0.8296825666666666,0.4227279233333333,3.643200333333333,-1.6421585333333333,0.7107417666666667
28,1778426767100,-0.18010198,0.8276295883333332,0.3530795333333333,3.9980368,-1.3188581,0.8825476
29,1778426767110,-0.19793838,0.83260953,0.2680644,4.077984,-1.1840096,0.9108001
30,1778426767120,-0.2026163528571428,0.8198126285714286,0.1771618942857142,4.084986885714286,-1.073072,0.9410597242857144
31,1778426767130,-0.21181114,0.7715389199999999,-0.004847844,3.946622249999999,-1.0979030166666666,1.067436095
32,1778426767140,-0.215707712,0.74550692,-0.0585521968,3.9236485599999993,-1.1291844000000002,1.11162202
33,1778426767150,-0.225429825,0.73129265,-0.1014490066666666,3.865351533333333,-1.3376421333333337,1.2593496333333334
34,1778426767160,-0.25007555,0.7070534,-0.14799644,3.830125,-1.5138768,1.3446671
35,1778426767170,-0.2668245083333333,0.6712179816666667,-0.13773162,3.8040106,-1.7684549,1.4688255
36,1778426767180,-0.2241106359999999,0.6106941800000001,-0.088407602,3.86439466,-1.91561228,1.70028228
37,1778426767190,-0.072016393,0.54646485,-0.1083294899999999,3.924834666666667,-1.979737833333333,1.881159466666667
38,1778426767200,0.103420667,0.515273965,-0.1299466,4.0659189499999995,-1.7136297,2.0045543
39,1778426767210,0.183648925,0.506594575,-0.1538097833333333,4.1060834,-1.6174184,1.9950858
40,1778426767220,0.2142604666666666,0.5070621000000001,-0.22192352,4.229503666666667,-1.3170763666666667,1.875330816666667
41,1778426767230,0.2177566,0.5014927,-0.23781876,4.3029346,-1.2258538,1.7847955000000002
42,1778426767240,0.1788867371428571,0.4568036571428571,-0.30855458,4.448996928571429,-1.599572442857143,1.6548339714285714
43,1778426767250,0.13174549,0.436732795,-0.39807201,4.552473333333334,-2.054441666666667,1.590744
44,1778426767260,0.09848136,0.42575654,-0.46069762,4.612083833333334,-2.6464465333333336,1.5562555499999997
45,1778426767270,0.08805392,0.32831183,-0.590888175,4.4352633500000005,-3.4293975000000003,1.7528014999999997
46,1778426767280,0.11110405,0.29751736,-0.61527985,4.3040037,-3.6784778,1.8886427
47,1778426767290,0.14836232,0.2620274866666667,-0.6112348666666666,4.0095157666666665,-3.963904666666666,2.1700988000000003
48,1778426767300,0.32917426,0.2656165457142857,-0.5397092142857144,3.7693440285714286,-3.883204971428571,2.4026639428571426
49,1778426767310,0.4686249,0.28178474,-0.4974071,3.702149,-3.8110355999999994,2.4443772
50,1778426767320,0.6092123833333334,0.2741115233333333,-0.47953002,3.735924633333333,-3.61074815,2.260405
51,1778426767330,0.8635173342857143,0.2577850857142857,-0.4461061742857143,3.8432586,-3.251003142857143,1.8887081142857145
52,1778426767340,0.90595533,0.255197816,-0.431952024,4.09331642,-2.77842902,1.36513106
53,1778426767350,0.8998289466666667,0.2298711366666666,-0.4630758,4.222657033333333,-2.4011586,1.0300205666666666
54,1778426767360,0.8429673085714285,0.1790609757142857,-0.5846333942857143,4.229696357142857,-1.9864683714285716,0.7744025857142857
55,1778426767370,0.7122773700000001,0.1285440833333333,-0.86299751,4.0005563,-1.76654595,0.70173145
56,1778426767380,0.6846741399999999,0.13000758,-0.9340789,3.8647916,-1.7922786000000002,0.7134906
57,1778426767390,0.7345144266666667,0.1275684166666666,-0.9151753666666668,3.638720566666666,-2.0581068,0.7889833666666667
58,1778426767400,0.8611274833333334,0.1198037433333333,-0.8487080666666666,3.1666745333333335,-2.616284966666667,0.9531025
59,1778426767410,0.9607790728571428,0.1013822214285714,-0.7951857542857143,3.1288736571428575,-2.640661442857143,0.9729992571428572
60,1778426767420,1.0069185,0.0939485666666666,-0.8111245533333333,3.1280626500000004,-2.5351417,0.93861992
61,1778426767430,1.0659158,0.1042134,-0.87657547,3.0722449333333337,-2.3300183333333333,0.8201883833333333
62,1778426767440,1.0730707333333334,0.1053110266666666,-0.95202709,2.9388726,-2.150704,0.6893614500000002
63,1778426767450,1.0616647428571429,0.0867123764285714,-1.143132914285714,2.3887013142857145,-1.7625425428571428,0.42919829
64,1778426767460,0.9751483283333334,0.0570155208333333,-1.1876200833333337,1.8256216666666667,-1.497027033333333,0.3714569733333333
65,1778426767470,0.7392199650000001,0.0056100833349999,-1.1903743,0.9696976666666668,-1.3116295000000002,0.57518054
66,1778426767480,0.7095797228571429,0.0058365776685714,-1.1029302285714286,0.7774787357142856,-1.3230032285714286,0.7004442714285715
67,1778426767490,0.7779896657142856,0.0249491922857142,-0.9977498571428572,0.4444262642857143,-1.3997976571428572,0.9949685571428571
68,1778426767500,0.9118302428571428,0.0542017699999999,-0.9530085428571428,0.1847431057142856,-1.347306914285714,1.1030480428571428
69,1778426767510,1.13387715,0.10436584,-0.974355635,-0.2364048525,-1.0118219,0.92133752
70,1778426767520,1.1703122,0.1266537266666666,-1.0030463133333332,-0.5288057,-0.7179193399999999,0.6740898166666667
71,1778426767530,1.1262852,0.13945936,-1.0236572,-0.8197812000000001,-0.43936482,0.43218717
72,1778426767540,1.1262852,0.13945936,-1.0236572,-0.8197812,-0.43936482,0.43218717
73,1778426767550,1.0424388666666669,0.1586678016666667,-1.0071928666666663,-0.8197812,-0.43936482,0.43218717
74,1778426767560,0.86529446,0.11640923,-0.97584957,-1.519920057142857,0.0878773328571428,0.0087484637142857
75,1778426767570,0.82212118,0.1132383175,-0.939506035,-1.5891405166666666,0.1220966941666666,-0.04110614
76,1778426767580,0.7789479,0.110067405,-0.9031625,-1.6730071000000002,0.100334615,-0.13362677
77,1778426767590,0.7789479,0.110067405,-0.9031625,-1.6730071,0.100334615,-0.13362677
78,1778426767600,0.7684188266666667,0.1051484175,-0.8932940233333334,-1.6730071000000002,0.100334615,-0.13362677
79,1778426767610,0.71577346,0.08055348,-0.8439516399999999,-1.6730071000000002,0.100334615,-0.13362677
80,1778426767620,0.71577346,0.08055348,-0.84395164,-1.6662658428571429,0.0808305615714285,-0.1739438771428571
81,1778426767630,0.71577346,0.08055348,-0.8439516399999999,-1.6572775,0.0548251569999999,-0.22770002
82,1778426767640,0.71577346,0.08055348,-0.84395164,-1.6572775,0.054825157,-0.22770002
83,1778426767650,0.6730706028571428,0.0710929971428571,-0.7703062342857143,-1.6572775,0.054825157,-0.22770002
84,1778426767660,0.66595346,0.06951625,-0.758032,-1.5406021857142858,0.1080576958571428,-0.2488185114285714
85,1778426767670,0.66595346,0.06951625,-0.758032,-1.4530956999999998,0.1479821,-0.26465738
86,1778426767680,0.66595346,0.06951625,-0.758032,-1.4530956999999998,0.1479821,-0.26465738
87,1778426767690,0.66595346,0.06951625,-0.758032,-1.5825227833333333,0.0763327025,-0.2654209383333333
88,1778426767700,0.6427813828571428,0.0604826217142857,-0.7165749157142857,-1.36524019,0.1622938084285714,-0.2760020042857142
89,1778426767710,0.5865179666666668,0.0637537205,-0.7514259666666666,-0.1501201423333333,0.2706896633333333,0.0248673055
90,1778426767720,0.6902841742857143,0.1237005978571428,-0.9496547,0.4924882785714286,0.67971849,0.1384264278571428
91,1778426767730,0.7637641,0.1422644,-1.0380484,0.36926803,0.700357,0.20448714
92,1778426767740,0.8207287916666667,0.1547143166666666,-1.0133009,0.4021020466666666,0.5837835416666667,0.1426370316666666
93,1778426767750,0.8594404,0.15933856,-0.99518,0.40866885,0.56046885,0.13026701
94,1778426767760,0.8597975571428572,0.1597479914285714,-1.0009033142857142,0.5080435385714285,0.5379541042857142,0.0656680118571428
95,1778426767770,0.863404,0.16220458,-1.0259744,0.7597200114285715,0.5450008857142857,-0.0459021615714285
96,1778426767780,0.86627007,0.1562896,-1.0366459,0.79381937,0.56398135,-0.03863723
97,1778426767790,0.8923342685714285,0.1252337899999999,-1.0275338285714286,0.8797986628571428,0.8271115142857143,0.0642281192857142
98,1778426767800,0.90035737,0.11305538,-1.0167667,0.89858276,0.9233228,0.10323623
99,1778426767810,0.9467422083333332,0.0928712741666666,-1.0199781833333337,0.9195049,1.195616,0.19769126
100,1778426767820,1.0042659,0.084029295,-1.0930516,0.9262244,1.2078333,0.19272798
101,1778426767830,1.0107471,0.0667286335714285,-1.1242555428571428,0.9495245771428572,1.0164579342857143,0.1031925942857142
102,1778426767840,0.9805856533333334,0.044352181,-1.1216914333333332,1.0048224466666666,0.50518555,-0.05864306
103,1778426767850,0.9538971000000002,0.023964813,-1.115065,1.0332786,0.10308351,-0.16584991
104,1778426767860,0.89107986,-0.0057059076857142,-1.0876418285714289,0.8949175714285714,0.0769472051428571,-0.0886409112857142
105,1778426767870,0.8609038714285714,-0.0078488897571428,-1.0639558,0.7892815357142856,0.15544339,-0.0219256988571428
106,1778426767880,0.9068473285714286,-0.0078227560285714,-1.0031160571428572,0.580016557142857,0.4177009271428571,0.0755727574285714
107,1778426767890,0.9726786666666666,-0.0071752152666666,-0.9495676333333334,0.47983464,0.5377650566666667,0.0459167039999999
108,1778426767900,1.0208522,-0.0017683958,-0.9245661,0.45478916,0.56382865,0.021380283
109,1778426767910,1.0596872857142858,-0.001716128,-0.8889716999999999,0.41863905,0.5669702285714285,-0.1180933434285714
110,1778426767920,1.0652247,0.0002845694866666,-0.8666562333333333,0.4045964066666667,0.5944737,-0.3245730666666667
111,1778426767930,0.9920294266666666,0.0072768468866666,-0.8400896666666666,0.3871104033333333,0.6105088666666667,-0.44605889
112,1778426767940,0.9545853457142855,0.0129362941428571,-0.8264419571428572,0.3277946542857143,0.6072218857142857,-0.5492114671428572
113,1778426767950,0.92089,0.017204836,-0.8046898285714287,0.2963787285714285,0.5840962685714286,-0.5539674928571429
114,1778426767960,0.8964852166666667,0.015986705,-0.77243329,0.2649628,0.57711494,-0.5346598
115,1778426767970,0.8881819200000001,0.0164643753333333,-0.7337216766666667,0.2012291916666666,0.68633255,-0.4653520583333333
116,1778426767980,0.8937194342857143,0.0405075905714285,-0.6998317571428572,0.1247474128571428,0.7873398585714285,-0.4747950142857142
117,1778426767990,0.8966986666666666,0.0644753033333333,-0.6602824333333334,0.0808632899999999,0.820239305,-0.530460115
118,1778426768000,0.8954181,0.06628435,-0.6549163,0.07345655,0.82451534,-0.55741453
119,1778426768010,0.8418697057142858,0.0681137305714285,-0.6037111714285714,0.0808305622857142,0.8612981942857143,-0.6687447428571429
120,1778426768020,0.8235643166666667,0.072870105,-0.5739765600000001,0.106137835,0.8561785583333333,-0.6897177833333333
121,1778426768030,0.8026789833333333,0.074364095,-0.5459363,0.1809433783333333,0.8454120500000001,-0.6941974166666666
122,1778426768040,0.7439981571428572,0.0750130897142857,-0.5452234428571429,0.3742204114285714,0.8644616114285714,-0.6564183142857143
123,1778426768050,0.6924387666666667,0.0844561453333333,-0.5925955666666667,0.409127,0.90606588,-0.592004775
124,1778426768060,0.671014735,0.106286685,-0.6124442849999999,0.34804046,0.9166033,-0.535805175
125,1778426768070,0.65979457,0.12494631,-0.61893857,0.2961169199999999,0.9080512,-0.5112942
126,1778426768080,0.6529750966666666,0.1415428066666666,-0.6070577733333333,0.2169589723333333,0.81973026,-0.5066363566666666
127,1778426768090,0.64729385,0.16759108,-0.5550832083333334,0.0930296871666666,0.586710605,-0.5125923
128,1778426768100,0.6444801142857143,0.1744178428571428,-0.5023376785714285,0.029539699,0.4236568614285714,-0.5772240342857142
129,1778426768110,0.6386957733333333,0.1634546566666666,-0.4665922533333333,0.0230856161666666,0.3626503366666667,-0.6410521483333332
130,1778426768120,0.6104188657142856,0.1441808842857142,-0.4346159257142857,0.0941386997142857,0.4330598328571429,-0.6879215228571428
131,1778426768130,0.56500245,0.147417135,-0.43185445,0.208457765,0.544815425,-0.6794348499999999
132,1778426768140,0.5172049533333333,0.15919628,-0.4544370866666667,0.34661512,0.6291402666666667,-0.6363179333333333
133,1778426768150,0.466490625,0.183699745,-0.51929859,0.47731484,0.55626915,-0.5805510500000001
134,1778426768160,0.41075568,0.20952443,-0.6126881750000001,0.5899431,0.352545605,-0.50976705
135,1778426768170,0.39423034,0.2135490599999999,-0.65052575,0.606131,0.2331978099999999,-0.4813618
136,1778426768180,0.3883763266666666,0.2151751666666666,-0.6782103166666666,0.5714135333333333,0.1310815033333333,-0.4443026533333333
137,1778426768190,0.4010295083333333,0.226100595,-0.71334445,0.4503095016666666,-0.0140499008333333,-0.3794236683333333
138,1778426768200,0.4180295971428571,0.2330449542857142,-0.7091703,0.2537054171428571,-0.0860011021428571,-0.34867314
139,1778426768210,0.417999996,0.2232813119999999,-0.6844545799999999,0.047830746,-0.0700967886,-0.374704732
140,1778426768220,0.40136486,0.19927992,-0.6577212999999998,-0.0797179099999999,-0.023060163,-0.3885103
141,1778426768230,0.373223,0.189157385,-0.60573657,-0.125151012,0.1363247625,-0.3345250866666666
142,1778426768240,0.3720034,0.19019402,-0.5813449,-0.1058324006666666,0.32559118,-0.25142196
143,1778426768250,0.3918318,0.1915355566666666,-0.5859691833333334,0.03543019,0.4234059699999999,-0.182725065
144,1778426768260,0.4184477771428571,0.1966229671428571,-0.6124921928571428,0.1815797042857143,0.5249732285714286,-0.1311178585714285
145,1778426768270,0.41496322,0.1962309599999999,-0.6518673,0.26710084,0.6038403,-0.12522738
146,1778426768280,0.4070185314285714,0.2073814428571428,-0.7075673857142857,0.2612976114285714,0.6591236257142857,-0.1551597714285714
147,1778426768290,0.39280747,0.2446890766666666,-0.8023028666666666,0.1597158116666666,0.6989570866666667,-0.2277509216666666
148,1778426768300,0.385723725,0.25891754,-0.8528241199999999,0.079259767,0.700204285,-0.27336219
149,1778426768310,0.39307171,0.2547912866666666,-0.9121670133333332,-0.078725253,0.7036403999999999,-0.324064005
150,1778426768320,0.39563283,0.25068536,-0.92645645,-0.2089668083333333,0.7268023499999999,-0.3401755816666667
151,1778426768330,0.37854126,0.2554155928571428,-0.9381906071428572,-0.4692099714285714,0.8562149014285714,-0.3179117257142857
152,1778426768340,0.3723388,0.26208845,-0.93822545,-0.5847508,0.92271197,-0.29077184
153,1778426768350,0.3803357714285714,0.2645450471428571,-0.9202976128571428,-0.5847508,0.92271197,-0.29077184
154,1778426768360,0.3982752833333333,0.2567832833333334,-0.8439821666666667,-0.8736136333333334,1.0538951833333332,-0.1147917633333333
155,1778426768370,0.4233783499999999,0.25007555,-0.7923022999999999,-0.906982175,1.0604620500000002,-0.0513890385
156,1778426768380,0.47594241,0.261783575,-0.76967907,-0.8491281566666666,1.0368165,-0.0433714319999999
157,1778426768390,0.49016072,0.2835124933333333,-0.7808890666666667,-0.70417494,0.9735665,-0.040317107
158,1778426768400,0.501260956,0.316018416,-0.8209381800000001,-0.4403422219999999,0.82628688,-0.0854295012
159,1778426768410,0.5181399999999999,0.3518497949999999,-0.95133605,-0.34381533,0.74011415,-0.1279762633333333
160,1778426768420,0.5218597333333334,0.3518701333333333,-1.0203441333333332,-0.3287982266666666,0.59544092,-0.2491821133333333
161,1778426768430,0.5204165616666667,0.3474288116666666,-1.064035683333333,-0.4150320333333333,0.5502114233333334,-0.3333033533333333
162,1778426768440,0.5244556757142858,0.3344794357142857,-1.1007698142857143,-0.5737333714285714,0.5804310442857143,-0.4122031342857143
163,1778426768450,0.52042672,0.29818813,-1.08966725,-0.8006916249999999,0.6801220850000002,-0.49403726
164,1778426768460,0.5018484166666667,0.27068653,-1.0617285333333333,-0.9458230416666668,0.76737401,-0.53415075
165,1778426768470,0.4859429999999999,0.26519838,-1.0206692,-1.067487,0.8825475600000001,-0.550695
166,1778426768480,0.4644173485714286,0.2826122971428571,-0.99801982,-1.0357656571428573,0.8570439385714286,-0.5433428100000001
167,1778426768490,0.423845875,0.3253238583333333,-0.96676367,-0.91324355,0.7275405,-0.5279911933333333
168,1778426768500,0.3964865583333333,0.36813123,-0.981530825,-0.7588982316666666,0.5320636233333333,-0.5256495333333333
169,1778426768510,0.3489053842857142,0.4175591971428571,-1.0226206857142857,-0.3427390314285714,0.0495673514285714,-0.5183191571428571
170,1778426768520,0.327458135,0.42462845,-1.0732334,-0.04769839,-0.1929316033333333,-0.51434852
171,1778426768530,0.3167258,0.42398816,-1.0951859,0.12873985,-0.29657507,-0.51251596
172,1778426768540,0.3167258,0.42398816,-1.0951859,0.12873985,-0.29657507,-0.51251596
173,1778426768550,0.2747634285714286,0.3538795057142856,-1.1702423999999998,0.38087448,-0.22021692,-0.45051312
174,1778426768560,0.26157448,0.3203584142857143,-1.1667230857142858,0.4427900414285714,0.0560905185714285,-0.4060944742857142
175,1778426768570,0.2380829933333333,0.2830449833333333,-1.1418958666666663,0.46700647,0.16462818,-0.40042216
176,1778426768580,0.1990665,0.2382761,-1.11009525,0.5439755000000001,0.257326985,-0.35117115
177,1778426768590,0.18769388,0.22379355,-1.0990275,0.572228,0.24327709,-0.32727104
178,1778426768600,0.1743089466666666,0.1987412733333333,-1.0817399,0.68750334,0.0656934683333333,-0.242920755
179,1778426768610,0.1503136466666666,0.1662698633333333,-1.0826648333333333,0.8429685833333332,-0.2261219583333333,-0.1076395403333333
180,1778426768620,0.13616648,0.15305771,-1.0896977,0.9222538,-0.4259258000000001,0.0253509079999999
181,1778426768630,0.1002904066666666,0.1287066933333333,-1.1044953333333332,0.9497936466666668,-0.6068946333333333,0.2919426733333333
182,1778426768640,0.08939546,0.11451888,-1.1089672,0.9398162,-0.6881397000000001,0.49434268
183,1778426768650,0.0730936953333333,0.0943754253333333,-1.0769327000000002,0.8733845733333334,-0.72463892,0.7955502
184,1778426768660,0.0809396826666666,0.0980748266666666,-1.0510979333333337,0.83154028,-0.79015418,1.13025345
185,1778426768670,0.084883004,0.1009815,-1.0424999,0.8355109,-0.8187121,1.2195925
186,1778426768680,0.184157095,0.15144176,-1.0255476,1.06458538,-1.0939833,1.5832863499999998
187,1778426768690,0.2100558214285714,0.1719525442857143,-1.0386232714285712,1.1371256,-1.174083,1.6299412
188,1778426768700,0.25166103,0.19531627,-1.0680501,1.3611604999999998,-1.4563791,1.62581785
189,1778426768710,0.2927101633333333,0.2048087133333333,-1.12887685,1.4488197000000005,-1.5900058499999998,1.5711454
190,1778426768720,0.3045212528571429,0.21395849,-1.1615921571428571,1.4314100142857142,-1.6134041571428572,1.4922565142857145
191,1778426768730,0.316939225,0.2140368849999999,-1.1754344,1.3509793333333333,-1.600976,1.3829988999999998
192,1778426768740,0.3234335,0.2066584,-1.1739099,1.2449941833333331,-1.5562810666666664,1.2976305
193,1778426768750,0.3035368628571429,0.2059266457142857,-1.1360158142857144,1.1406381,-1.4666874,1.2373075
194,1778426768760,0.2863276783333333,0.2124514266666667,-1.0954399333333331,0.9761371866666668,-1.2896892333333334,1.1577678
195,1778426768770,0.2649719085714285,0.2258407057142857,-1.0439546,0.7095199857142857,-1.0914853142857142,1.0191631857142858
196,1778426768780,0.2502178533333333,0.2358267766666666,-0.9898138333333334,0.52855116,-1.0132727,0.90010995
197,1778426768790,0.2389976833333333,0.23438359,-0.9395670333333334,0.45799622,-0.9963212,0.8414669
198,1778426768800,0.2302573383333333,0.23068418,-0.9136204,0.3951789033333333,-1.0143671666666667,0.7427358083333333
199,1778426768810,0.2102300342857142,0.2166676885714285,-0.8565482571428572,0.3413645914285714,-1.0923798285714288,0.6069600785714285
200,1778426768820,0.2188745566666666,0.1957431266666666,-0.8165314,0.34147367,-1.1870639,0.5364924
201,1778426768830,0.2307939499999999,0.156777444,-0.77583798,0.444984774,-1.4704748200000002,0.46221118
202,1778426768840,0.22659859,0.1326297,-0.7455923,0.5206753428571428,-1.5677201714285716,0.4693844857142857
203,1778426768850,0.2616819466666666,0.1040101399999999,-0.7242292666666666,0.5772676666666666,-1.5742506333333333,0.49917871
204,1778426768860,0.3038591942857143,0.0647947202857142,-0.7049104428571429,0.5907503142857143,-1.4897913,0.52599859
205,1778426768870,0.316664805,0.0538649308333333,-0.6972256,0.5496005300000001,-1.3292936999999998,0.5429319333333333
206,1778426768880,0.3300453828571428,0.0801004907142857,-0.7033772714285714,0.4115922742857142,-1.047241157142857,0.5477497571428571
207,1778426768890,0.3488923166666666,0.087484775,-0.7179179250000001,0.29850949,-0.9279043233333334,0.52430055
208,1778426768900,0.4012632499999999,0.0801469516666666,-0.7116065666666667,0.18570303,-0.87857697,0.456774485
209,1778426768910,0.4327342914285714,0.0956850228571428,-0.6905716357142857,0.15561792,-0.8750645,0.42195517
210,1778426768920,0.4836258,0.12305596,-0.7053866766666665,0.1726712433333333,-1.0482447333333331,0.2456696466666666
211,1778426768930,0.55158708,0.105859835,-0.73861017,0.16355917,-1.1851549,0.1227839199999999
212,1778426768940,0.6259511571428572,0.0602561285714285,-0.7798974142857142,0.0863283499999999,-1.2323115142857142,-0.0042978728571428
213,1778426768950,0.6665938,0.0215866259,-0.79934542,-0.04907284,-1.1001173666666666,-0.0572686179999999
214,1778426768960,0.6988474142857142,-0.0016899941142857,-0.7992713800000001,-0.3497857942857143,-0.67956576,-0.0562650522857142
215,1778426768970,0.7408707514285714,0.0185202448571428,-0.7946718142857143,-0.774337142857143,0.01001384,0.0263762894285714
216,1778426768980,0.7770575700000001,0.048966271,-0.8216943200000001,-1.09818295,0.4717406800000001,0.049480087
217,1778426768990,0.8092139266666667,0.0720773739999999,-0.87208338,-1.3671673333333334,0.6064364533333334,-0.0318668066666666
218,1778426769000,0.819255124,0.0714309971999999,-0.89051534,-1.47129954,0.530872432,-0.112613016
219,1778426769010,0.8115542857142858,0.0551774378571428,-0.8985715857142856,-1.6230035285714286,0.01716968,-0.3779728857142857
220,1778426769020,0.74720823,0.02039753135,-0.882703935,-1.6108006999999998,-0.48003826,-0.4750495466666666
221,1778426769030,0.682356895,-0.02475754115,-0.842884535,-1.58595885,-0.799775325,-0.44394631
222,1778426769040,0.6532088533333332,-0.0727684733333333,-0.8029126666666667,-1.57068725,-0.9698249583333332,-0.3501530333333333
223,1778426769050,0.6725595666666667,-0.1131976666666666,-0.74418975,-1.5594880333333334,-1.020984916666667,-0.0869464833333333
224,1778426769060,0.7232129,-0.11494574,-0.69308925,-1.5378532,-0.9121745,0.1479820999999999
225,1778426769070,0.7804113999999999,-0.10183521,-0.6390617,-1.4870750500000005,-0.831769365,0.20822868
226,1778426769080,0.8530274016666667,-0.0462831891666666,-0.6249551666666667,-1.2071460833333332,-0.6828200716666667,0.2678898566666666
227,1778426769090,0.8768194333333333,-0.026790182,-0.6426391166666667,-0.9496409666666666,-0.7549276166666666,0.1956805
228,1778426769100,0.8551282642857142,-0.0298101002857142,-0.7275598857142856,-0.7790059000000001,-0.88239485,0.12186762
229,1778426769110,0.78352135,-0.04549046,-0.7931560000000001,-0.59986967,-1.0709995,0.12965615
230,1778426769120,0.7637234416666666,-0.0500232428333333,-0.8095390966666667,-0.6286821566666666,-0.9427178,0.3268129133333333
231,1778426769130,0.7830945133333334,-0.037563167,-0.8301094466666666,-0.7132361,-0.6648759333333333,0.5473352666666667
232,1778426769140,0.8903916828571428,-0.0082583215,-0.8905833042857143,-0.8213738,-0.3634866454285714,0.5998260571428571
233,1778426769150,0.921710275,0.00719554225,-0.9297290416666666,-1.0082331,0.0427605675,0.5441282566666666
234,1778426769160,0.93029815,0.04927117,-1.0235354,-1.2801190333333334,0.38525235,0.30609438
235,1778426769170,0.921956214,0.037172902,-1.0730017200000002,-1.3987287,0.4063781000000001,0.20021108
236,1778426769180,0.8560052233333333,0.004227889,-1.0902262333333332,-1.5537866333333332,0.3342960133333333,0.12884166
237,1778426769190,0.8030346766666666,-0.0050104558333333,-1.0557018433333332,-1.7199928833333331,0.2562834316666667,0.165239045
238,1778426769200,0.8093416514285714,0.0477902442857142,-0.9373979585714284,-1.8524925,0.1833032042857143,0.4168064428571428
239,1778426769210,0.8416954,0.0978105899999999,-0.84498835,-1.7611245,0.22571471,0.5297729
240,1778426769220,0.8669756571428572,0.1627098414285714,-0.8202482042857143,-1.4710289142857145,0.3032291557142857,0.51666112
241,1778426769230,0.8734656,0.187328,-0.82370657,-1.3880384999999995,0.32146785,0.50854534
242,1778426769240,0.8734656,0.187328,-0.82370657,-1.3880384999999995,0.32146785,0.50854534
243,1778426769250,0.8522883785714285,0.21794826,-0.85700122,-1.270970557142857,0.1739875099999999,0.3069597828571428
244,1778426769260,0.8209015000000001,0.23562351,-0.86657494,-1.2625057166666669,0.1141554416666666,0.2162462899999999
245,1778426769270,0.8167244650000001,0.211597705,-0.80538234,-1.27961,0.17967074,0.141568015
246,1778426769280,0.8127912714285713,0.2078866857142857,-0.7751845814285714,-1.2756612,0.26203937,0.1189005554285714
247,1778426769290,0.7741915,0.201383705,-0.7358661,-1.1729631,0.3707442866666666,0.06291912
248,1778426769300,0.7379902166666668,0.190773325,-0.7299409416666668,-1.11432005,0.3962479133333333,0.0369318933333333
249,1778426769310,0.6849790000000001,0.1629261699999999,-0.7359779166666667,-1.0226648166666668,0.4121558816666666,0.010308351
250,1778426769320,0.6373716571428572,0.1397816785714285,-0.7140138142857142,-0.9236500714285716,0.4511458,0.0274453021428571
251,1778426769330,0.6169872,0.13500789,-0.7000409,-0.8137743333333334,0.5028948,0.0814486966666666
252,1778426769340,0.60402915,0.1331785,-0.7004981899999999,-0.5841908,0.5179628,0.2067778833333333
253,1778426769350,0.61122468,0.144276715,-0.724493465,-0.413937565,0.45921794,0.28809933
254,1778426769360,0.6329724628571428,0.1586590914285714,-0.7435625142857143,-0.2904664271428571,0.3856523285714286,0.3394665571428571
255,1778426769370,0.6579550666666666,0.16754027,-0.7471167333333333,-0.1006146016666666,0.2480367566666667,0.3996331233333333
256,1778426769380,0.6807713999999999,0.17379062,-0.7422384000000001,0.0592793816666666,0.1719840249999999,0.43233989
257,1778426769390,0.7196325857142858,0.1859167714285714,-0.7601750071428572,0.2392410071428571,0.2037890014285714,0.47217702
258,1778426769400,0.7682358433333333,0.20645513,-0.8161248666666667,0.3818925866666666,0.31143946,0.4892012566666666
259,1778426769410,0.79339993,0.21982989,-0.8435248,0.43043093,0.3548872633333333,0.4618904883333333
260,1778426769420,0.8860186357142857,0.2556420828571428,-0.8791802185714286,0.51515574,0.3525783285714285,0.3225150285714285
261,1778426769430,0.9084677,0.2639788,-0.88090503,0.54290646,0.34406984,0.27382034
262,1778426769440,0.9246779833333332,0.2621494416666667,-0.881260755,0.67714412,0.2679916666666667,0.1215621833333333
263,1778426769450,0.9146440142857144,0.25170458,-0.8724812285714286,1.05267354,0.0069813171428571,-0.1515600285714285
264,1778426769460,0.9087116,0.24446549,-0.86950195,1.2553062714285714,-0.1310524107142857,-0.2356412699999999
265,1778426769470,0.9091790833333334,0.2092195283333333,-0.8880802250000001,1.4732542000000002,-0.2658791,-0.29825497
266,1778426769480,0.9118563571428572,0.1993583242857143,-0.9000089000000001,1.5059573142857143,-0.2788163514285714,-0.3027710085714285
267,1778426769490,0.9223099,0.1983652299999999,-0.9271883,1.7959947333333333,-0.3687080733333333,-0.3522656333333334
268,1778426769500,0.9397586428571428,0.1858645042857143,-0.9989781285714284,1.9568414,-0.3331179114285714,-0.4364195914285714
269,1778426769510,0.9723433,0.1454048275,-1.0747578,1.9367483000000003,-0.28802297,-0.46593747
270,1778426769520,0.9856672942857144,0.1169319092857142,-1.0928250714285714,1.6807084428571428,-0.0389862985714285,-0.5848162285714286
271,1778426769530,0.9593141666666668,0.0771996213333333,-1.0839148166666666,1.4444672166666666,0.180383415,-0.689030555
272,1778426769540,0.9224319057142856,0.0477815318571428,-1.0616733857142855,1.2365003714285714,0.3254166542857142,-0.7378597542857143
273,1778426769550,0.8541657050000001,0.0166778025,-0.99088102,0.9812022533333334,0.4748968266666666,-0.7418448999999999
274,1778426769560,0.8335851833333333,0.02752193,-0.9125329133333334,0.91828316,0.5010622,-0.7304421
275,1778426769570,0.8292556400000001,0.032501895,-0.883954,0.91828316,0.5010622,-0.7304421
276,1778426769580,0.8368171266666667,0.0409170203333333,-0.852814,0.8673777333333333,0.4411210566666666,-0.6772968266666667
277,1778426769590,0.84450054,0.04610025,-0.80163217,0.97417736,0.22052236,-0.6954701
278,1778426769600,0.8412773328571428,0.0363871392857142,-0.7851677914285714,1.0770645085714288,0.1005091505714285,-0.7005751642857143
279,1778426769610,0.8420613133333333,0.0175416743333333,-0.7781348,1.207986,0.0091120737333333,-0.6838636533333333
280,1778426769620,0.83370715,0.0196352925,-0.8028822349999999,1.2786428333333333,-0.0012471833333333,-0.67167181
281,1778426769630,0.8257189,0.023355022,-0.81657207,1.280679,0.028405234,-0.67179906
282,1778426769640,0.8188078933333333,0.042685418,-0.8759047600000001,1.1266646,0.16928604,-0.667217555
283,1778426769650,0.8172427399999999,0.048234522,-0.88358814,1.03961635,0.225562,-0.6749297416666667
284,1778426769660,0.813584,0.06823569,-0.88913727,0.7823220142857144,0.3481713571428571,-0.7140360142857143
285,1778426769670,0.7578490866666666,0.0973430766666666,-0.8528343,0.61193425,0.4065308199999999,-0.734870875
286,1778426769680,0.7316280599999999,0.10482319,-0.8363293,0.5403103,0.41874814,-0.74097955
287,1778426769690,0.6632965314285714,0.1079766871428571,-0.7678061057142858,0.47948558,0.4268202857142857,-0.7133597071428571
288,1778426769700,0.6307481666666667,0.10409144,-0.7090454333333334,0.32480215,0.4504876716666666,-0.6339508500000001
289,1778426769710,0.6229022,0.0993350599999999,-0.6787591000000001,0.311694,0.46792278,-0.5821546
290,1778426769720,0.6061852257142857,0.0901707685714285,-0.6273362571428571,0.4073816657142857,0.5240787685714287,-0.4110032457142857
291,1778426769730,0.63967147,0.0924139274999999,-0.6204020499999999,0.5194899933333333,0.49739705,-0.2966259933333333
292,1778426769740,0.6805885000000002,0.09866429,-0.6198532166666667,0.7099017999999999,0.382707075,-0.218384325
293,1778426769750,0.6975406999999999,0.10598179,-0.62217045,0.7816021000000001,0.3379612,-0.22250767
294,1778426769760,0.6900489500000001,0.1196149828571428,-0.6494804142857143,0.8340928428571429,0.2727731457142857,-0.2705478614285714
295,1778426769770,0.6335474142857143,0.1404872871428571,-0.6963123985714285,0.7837619228571429,0.2064506357142857,-0.3286891342857143
296,1778426769780,0.5934754085714286,0.1479180342857143,-0.715564397142857,0.6461209228571428,0.1576250542857143,-0.3908228571428571
297,1778426769790,0.5695149666666667,0.1441344266666666,-0.70730755,0.4644612166666666,0.2162972,-0.4151084
298,1778426769800,0.5580813333333333,0.1384023766666666,-0.7011587833333333,0.3173445,0.2845105,-0.4213443
299,1778426769810,0.5351125166666667,0.1330971966666666,-0.6943901499999999,0.1852448833333333,0.3326924816666666,-0.4206570783333332
300,1778426769820,0.5033220428571428,0.1244323471428571,-0.6753007571428571,0.0649916985714285,0.3692462357142857,-0.3581415514285714
301,1778426769830,0.4879654499999999,0.125972795,-0.6608617433333333,0.0542651953333333,0.3712533633333333,-0.31683543
302,1778426769840,0.4791539866666667,0.1297026866666666,-0.65099324,0.0568104673333333,0.37227146,-0.2634356366666666
303,1778426769850,0.47850356,0.12872702,-0.6474158,0.06169739,0.37064248,-0.24785857
304,1778426769860,0.4630496542857142,0.1344329314285714,-0.6513445971428572,0.1117665185714285,0.3956007057142857,-0.2003856157142857
305,1778426769870,0.4349644049999999,0.1352213,-0.6830886,0.07826711,0.455323695,-0.177303635
306,1778426769880,0.4263968449999999,0.1316235349999999,-0.70476672,-0.027641652,0.546113525,-0.1194241549999999
307,1778426769890,0.4291409083333333,0.1305259083333333,-0.7098686666666666,-0.1103120799999999,0.62280255,-0.0709367266666666
308,1778426769900,0.4361317157142857,0.1368808114285714,-0.7077590714285714,-0.2045962185714285,0.7086254714285715,-0.0277071018685714
309,1778426769910,0.4372206299999999,0.14171559,-0.708456,-0.23350324,0.7472409,-0.00076358154
310,1778426769920,0.4372206299999999,0.14171559,-0.708456,-0.23350324,0.7472409,-0.00076358154
311,1778426769930,0.4349992299999999,0.1588333114285714,-0.71908375,-0.2322160657142857,0.760789,0.0407752568571428
312,1778426769940,0.4467537,0.16407462,-0.7254284833333333,-0.1853976,0.83566365,0.2471459033333333
313,1778426769950,0.47629958,0.1677101442857143,-0.7428395014285715,-0.18960821,0.9608038,0.2847941114285714
314,1778426769960,0.4791539599999999,0.1852953666666666,-0.77402888,-0.2745330166666666,1.20121555,0.2630029416666666
315,1778426769970,0.4735032,0.20220692,-0.8011443,-0.28909197,1.2281445000000002,0.25702155
316,1778426769980,0.4735032,0.20220692,-0.8011443,-0.28909197,1.2281445,0.25702155
317,1778426769990,0.4451653357142857,0.2263982214285714,-0.8102737571428572,-0.4879504257142857,1.4264357857142858,0.2201951028571428
318,1778426770000,0.4181544666666666,0.2620376466666667,-0.8215621333333333,-0.6733771000000001,1.5714254,0.2001347249999999
319,1778426770010,0.4070969333333333,0.27572746,-0.8285646,-0.6991352433333332,1.5136732000000002,0.2144137
320,1778426770020,0.3939602714285714,0.2899036714285714,-0.8385942000000001,-0.69974613,1.4778358,0.2406809
321,1778426770030,0.3931937,0.29520014,-0.8453542,-0.70211324,1.45706635,0.26030495
322,1778426770040,0.4900489466666666,0.3825019666666667,-0.8765349266666668,-0.7176394,1.3417655666666668,0.2882520566666666
323,1778426770050,0.5387248271428572,0.42737682,-0.9232943142857144,-0.6942047342857143,1.2624838857142855,0.024194628
324,1778426770060,0.55231445,0.4452698628571428,-0.9702482285714286,-0.7165449428571428,1.2378965857142856,-0.2806271254285714
325,1778426770070,0.55100775,0.45289227,-1.0030463,-0.73624533,1.2322679,-0.42363504
326,1778426770080,0.55920509,0.36213786,-1.0348774428571428,-0.8395251871428572,1.3335406714285714,-0.6652322457142857
327,1778426770090,0.551881775,0.3203439166666667,-1.0376215,-1.03956535,1.6012814833333333,-1.0620655833333337
328,1778426770100,0.5099078,0.27562585,-1.042195,-1.2176071,1.9711094,-1.353372
329,1778426770110,0.4332047085714285,0.2568616771428572,-1.0194932571428572,-1.2364567571428573,2.103405442857143,-1.5768831857142858
330,1778426770120,0.38733968,0.2925780699999999,-1.0072539,-1.08014068,1.9795307285714288,-1.725890671428571
331,1778426770130,0.3153435933333333,0.297862905,-1.0362190166666667,-0.95142263,1.8280143,-1.8038851
332,1778426770140,0.24068478,0.29599288,-1.074209,-0.5522222,1.1982121,-1.8440495
333,1778426770150,0.24068478,0.29599288,-1.074209,-0.5522222,1.1982121,-1.8440495
334,1778426770160,0.1243800728571428,0.2862623485714285,-1.0958217857142858,-0.1909390228571428,0.3578361314285714,-1.5881405857142856
335,1778426770170,0.11537258,0.24946578,-1.0660988,-0.016646078,-0.1244638,-1.2744176
336,1778426770180,0.1744004214285714,0.2363465442857142,-0.9907807828571428,0.0530143751428571,-0.21173026,-1.0973321571428571
337,1778426770190,0.2601574633333333,0.2097683333333333,-0.9483072866666666,0.20387627,-0.28863382,-0.8168796
338,1778426770200,0.3073146866666666,0.2003368866666666,-0.94723,0.40510546,-0.1346448786666666,-0.6605998666666667
339,1778426770210,0.3534091285714286,0.2023462957142857,-0.9527820571428572,0.49877146,-0.023365596,-0.61621034
340,1778426770220,0.3784977,0.20537783,-0.9724348,0.5693482314285714,0.081790494,-0.5990842685714286
341,1778426770230,0.41486161,0.2290987433333333,-1.0656109333333337,0.7358380783333334,0.26483555,-0.5925392733333333
342,1778426770240,0.4212441,0.23306239,-1.091649,0.8452411414285714,0.3241294714285714,-0.6132432485714286
343,1778426770250,0.4220571416666667,0.2354507316666666,-1.13799325,0.86758137,0.3297145,-0.61743206
344,1778426770260,0.3494716,0.2253180099999999,-1.2335476,0.8454374783333334,0.2613739666666667,-0.5907066766666667
345,1778426770270,0.2672717,0.19403571,-1.1948259,0.6433938,0.14034629,-0.36987892
346,1778426770280,0.2593444,0.18586451,-1.1601286,0.5718462249999999,0.0555887387,-0.1629483099999999
347,1778426770290,0.2634503233333333,0.1594808533333333,-1.0207303,0.5477934,0.0025961774,-0.04046982
348,1778426770300,0.2805912942857143,0.1437453242857143,-0.9568677142857144,0.6664321285714285,-0.0863501678857142,0.1297652274285714
349,1778426770310,0.31028233,0.1202001066666666,-0.938205175,0.837878,-0.1673007199999999,0.3112358449999999
350,1778426770320,0.313189,0.11829959,-0.9415183700000002,0.8906415,-0.18005253,0.35705075
351,1778426770330,0.313189,0.11829959,-0.94151837,0.92572262,-0.1714131528571428,0.41918447
352,1778426770340,0.313189,0.1190618316666666,-0.9699753116666666,0.9502517766666668,-0.1464803949999999,0.5411247933333333
353,1778426770350,0.2948647716666666,0.1506287016666666,-1.0827054166666668,0.90352059,-0.1757001166666666,0.6802748166666667
354,1778426770360,0.2944770985714285,0.1946280842857142,-1.1100647285714285,0.8245590142857143,-0.3762275371428571,0.8469210642857143
355,1778426770370,0.313036555,0.2057945316666666,-1.1022085666666666,0.7909177666666666,-0.5846489583333333,0.9211084166666668
356,1778426770380,0.3546983942857142,0.20395789,-1.0795229,0.7626434428571428,-0.8401142571428571,0.9456194071428572
357,1778426770390,0.3589538599999999,0.20056048,-1.0745749,0.7432703000000002,-0.9248499999999998,0.93401295
358,1778426770400,0.3579477,0.19958481,-1.0728675,0.7432703,-0.92485,0.93401295
359,1778426770410,0.3198618614285714,0.1792264814285714,-1.056647,0.5596834642857144,-0.9705558142857144,0.9028152
360,1778426770420,0.2715402333333334,0.15612699,-1.0295112666666666,0.48624873,-0.98883814,0.8903361
361,1778426770430,0.24777578,0.1536587928571428,-0.9899968285714286,0.3190898299999999,-0.8797986571428572,1.0031716428571429
362,1778426770440,0.250543065,0.1620419833333333,-0.9439473666666666,0.2105448866666666,-0.8251262,1.1058697333333334
363,1778426770450,0.2715837828571428,0.1882339828571428,-0.8746155171428571,0.2094395085714286,-0.8566730457142857,1.1688906428571428
364,1778426770460,0.2838377,0.2090162633333333,-0.8391953133333333,0.2806162199999999,-0.96799232,1.1837041499999998
365,1778426770470,0.2884721133333333,0.2281637166666666,-0.8342966633333333,0.3508402766666667,-1.098946566666667,1.156317066666667
366,1778426770480,0.2940589742857143,0.2330188214285714,-0.8575326299999999,0.40653083,-1.2247849,1.1183416
367,1778426770490,0.302182275,0.220988505,-0.8782219499999999,0.44959682,-1.4527903,1.0493138
368,1778426770500,0.2870986342857143,0.1878681028571428,-0.8903916428571428,0.4198171371428572,-1.569291042857143,1.0308350857142856
369,1778426770510,0.2605988228571428,0.14615835,-0.8932228685714286,0.3330524428571428,-1.6857699428571429,1.035067457142857
370,1778426770520,0.290468166,0.11728733,-0.839878304,0.2764165,-1.6759087999999998,1.0622946
371,1778426770530,0.31154257,0.10287185,-0.8067544,0.2764165,-1.6759088,1.0622946
372,1778426770540,0.3376242185714285,0.0846826442857142,-0.7643651714285714,-0.117853356,-1.4022629857142856,1.303630042857143
373,1778426770550,0.3559760466666666,0.0839683166666666,-0.7419538750000001,-0.1816560433333333,-1.3011175333333334,1.3426563
374,1778426770560,0.42854418,0.0989517614285714,-0.6637147,-0.1565778437142857,-1.2664109,1.3464123714285716
376,1778426770580,0.4278400066666666,0.1219481749999999,-0.6795518666666666,0.1512400623333333,-1.7226145166666669,1.09848848
377,1778426770590,0.41606086,0.12195834,-0.6946747,0.257327,-1.9014708,0.99464136
378,1778426770600,0.4103694733333333,0.1089901066666666,-0.7017482999999999,0.32604933,-2.1149683,0.8814785500000001
379,1778426770610,0.4293804428571429,0.0535658445714285,-0.68212171,0.32181691,-2.2711751857142857,0.72762777
380,1778426770620,0.48447078,0.0006010805714285,-0.6464401585714287,0.2703078757142857,-2.2021691714285714,0.6884669600000001
381,1778426770630,0.51743871,-0.0295748966666666,-0.6173226083333333,0.22388211,-2.0922134,0.68951416
382,1778426770640,0.5474971028571428,-0.0447761329999999,-0.5640921428571428,0.099265605,-1.4402676,0.7487681
383,1778426770650,0.58790016,-0.022562291,-0.5529591,-0.0150171057666666,-0.9155597666666668,0.7365253316666668
384,1778426770660,0.6789623866666666,0.0150821829999999,-0.6156457000000001,-0.1608102733333333,-0.2335032333333333,0.6157521766666667
385,1778426770670,0.7330131685714286,0.0488356045714285,-0.6732971428571428,-0.2329796342857142,-0.0341648214285714,0.4943427071428571
386,1778426770680,0.7570767133333334,0.1013270486666666,-0.8071609000000001,-0.4121813199999999,0.12209669,0.185168525
387,1778426770690,0.7584589,0.10890879,-0.8412076,-0.5139158433333333,0.1144608761666666,0.02041308
388,1778426770700,0.7354392333333334,0.08344999,-0.8922268083333332,-0.6540330666666666,0.0071776658333333,-0.1484657083333333
389,1778426770710,0.683532902857143,0.0327806588571428,-0.9451857842857144,-0.8328929142857142,-0.1259909557142857,-0.2505202014285714
390,1778426770720,0.6633836442857143,0.0065073487142857,-0.9396889657142856,-0.9428486857142856,-0.1766927642857143,-0.2125156585714285
391,1778426770730,0.6490448285714285,-0.0175968454285714,-0.8905746214285715,-1.0936015142857145,-0.1809906371428571,-0.0748746257142857
392,1778426770740,0.69051285,0.02565698475,-0.8489672275,-1.1371638,-0.14756213375,0.08496754
393,1778426770750,0.8081163,0.0753499253333333,-0.8609038866666667,-1.0840567,-0.20799961,0.153021745
394,1778426770760,0.8371220999999999,0.08366342,-0.8731607,-1.0410671,-0.26251933,0.15683965
395,1778426770770,0.8450696999999999,0.08270808,-0.90761392,-0.9874636766666668,-0.4158465066666667,0.0676024183333333
396,1778426770780,0.8522535942857142,0.0856234628571428,-0.9796390285714286,-0.87982049,-0.7806639571428572,-0.1243110778571428
397,1778426770790,0.8338204614285714,0.0981416092857142,-0.9861812714285716,-0.8773115628571428,-0.9409506285714286,-0.1599594228571428
398,1778426770800,0.8531595333333333,0.09372498,-0.97859372,-0.86717412,-1.036791,-0.1918116899999999
399,1778426770810,0.8516961,0.07945585,-0.97847176,-0.88132582,-0.9958630571428572,-0.2278963728571428
400,1778426770820,0.8195077714285715,0.0766856588571428,-0.9995008457142858,-0.9340129428571428,-0.8617781714285714,-0.2041598899999999
401,1778426770830,0.787363,0.079089984,-1.0233524,-1.1108584,-0.4897612,-0.08582657
402,1778426770840,0.7988881,0.107201375,-1.0367678,-1.2970450666666666,-0.1843285875,0.0091120725
403,1778426770850,0.8053693,0.1134212535714285,-1.0329174285714289,-1.396263385714286,-0.0670860948571428,0.0426951164285714
404,1778426770860,0.8216332999999999,0.1338492833333333,-1.0169903,-1.5158111833333334,-0.0173842056666666,0.0473675083333333
405,1778426770870,0.8638715499999999,0.1616659333333333,-0.9414065683333334,-1.5549066,-0.23396138,-0.054876064
406,1778426770880,0.8716100714285714,0.1683809028571428,-0.8989113599999999,-1.455015542857143,-0.4090179028571428,-0.1671152857142857
407,1778426770890,0.7802690999999999,0.1510860533333333,-0.8880396333333334,-1.3217342,-0.5559128333333333,-0.2834414783333334
408,1778426770900,0.7612334550000001,0.149256675,-0.8894116666666667,-1.2378930333333331,-0.5875251166666667,-0.284077785
409,1778426770910,0.73120123,0.1515942,-0.889869,-1.1858422,-0.5158757,-0.22617286
410,1778426770920,0.7082207642857143,0.1687467657142857,-0.8928744285714286,-1.1793408714285714,-0.4212788542857143,-0.16748616
411,1778426770930,0.72965642,0.2015158166666666,-0.8999915500000001,-1.1945469,-0.30115658,-0.06429356
412,1778426770940,0.74608016,0.2163540899999999,-0.89133245,-1.2067643,-0.2863431,-0.03863723
413,1778426770950,0.7279083428571429,0.22158088,-0.8672805771428571,-1.2314825285714284,-0.22045691,-0.0730856625714285
414,1778426770960,0.7149198,0.2181834699999999,-0.86309916,-1.2623531,-0.13209961,-0.1038470939999999
415,1778426770970,0.66589255,0.21336611,-0.826481165,-1.2888493499999998,-0.0568104685,-0.1077413595
416,1778426770980,0.6149836314285714,0.2079476742857142,-0.7848454471428571,-1.3379694428571427,0.2216350071428571,-0.075529124
417,1778426770990,0.6135418833333334,0.2083759833333333,-0.76751428,-1.2446124666666667,0.3342450999999999,-0.0270053356666666
418,1778426771000,0.6188776,0.2145247,-0.7143099300000001,-1.2276864,0.34590244,-0.0209221359999999
419,1778426771010,0.6444017114285714,0.2125995114285714,-0.6463617514285714,-0.9896453571428572,0.3865686157142857,0.0138317345714285
420,1778426771020,0.626317,0.22446432,-0.6439807000000001,-0.8680395,0.4234823299999999,0.026267206
421,1778426771030,0.6166213,0.22976951,-0.6490623,-0.6396013583333334,0.4778238883333334,0.0596102676666666
422,1778426771040,0.5832744857142858,0.2300482542857143,-0.6839423428571428,-0.3690062471428571,0.5007349614285714,0.1479821042857143
423,1778426771050,0.5658867,0.226293685,-0.7202859250000001,-0.1846340199999999,0.507781735,0.25488353
424,1778426771060,0.5702772,0.22623271,-0.73101825,-0.13194689,0.505491,0.29825497
425,1778426771070,0.5987108942857143,0.2279836914285714,-0.7410536971428572,-0.0489783017142857,0.4452335142857143,0.3332488171428571
426,1778426771080,0.6298741566666667,0.2290275883333333,-0.7574425933333333,0.0482329033333333,0.3680717783333333,0.35476
427,1778426771090,0.6550686800000001,0.2356387449999999,-0.7717828125,0.08952994,0.3387247775,0.3544545675
428,1778426771100,0.6974553200000001,0.250197526,-0.770069322,0.145966252,0.338297168,0.348651346
429,1778426771110,0.7186830342857143,0.2540217828571429,-0.7736514000000001,0.17821993,0.3500257699999999,0.34132096
430,1778426771120,0.73845772,0.25242327,-0.8004125750000001,0.2682207466666667,0.3978514466666666,0.3121521416666666
431,1778426771130,0.7383880285714286,0.2552152485714286,-0.8110229185714287,0.3469932814285714,0.4567090457142857,0.2975350071428571
432,1778426771140,0.7388236,0.26044202,-0.81559634,0.38713586,0.49968776,0.3052799
433,1778426771150,0.7934086857142857,0.2847291414285714,-0.8476104514285714,0.4842197885714285,0.5188427514285714,0.2772237342857143
434,1778426771160,0.8297348571428571,0.2795285042857142,-0.8558077885714285,0.56077427,0.49098295,0.22449298
435,1778426771170,0.8540568000000001,0.26475411,-0.8545533371428571,0.7468918485714285,0.4105668885714286,0.1075559185714285
436,1778426771180,0.8584443833333334,0.2550555166666666,-0.8526920100000001,0.8319221266666667,0.38550687,0.0662788816666666
437,1778426771190,0.85608655,0.24794129,-0.85200095,0.92164296,0.36819902,0.03268129
438,1778426771200,0.8368983999999999,0.223793535,-0.8833035333333333,1.1405617433333333,0.3503821066666666,-0.0080685118333333
439,1778426771210,0.8370001,0.19970676,-0.9111507,1.3096951,0.34009922,-0.016340645
440,1778426771220,0.8554070657142857,0.1949416842857143,-0.91924355,1.4129094857142857,0.3090105457142856,-0.0096865773142857
441,1778426771230,0.8974652142857142,0.1953424014285714,-0.9114381928571428,1.637075214285714,0.2046398657142857,-0.0163188282857142
442,1778426771240,0.9095652,0.19458452,-0.9106019,1.7348573,0.12583824,-0.03176499
443,1778426771250,0.9095652,0.19458452,-0.9106019,1.7348573,0.12583824,-0.03176499
444,1778426771260,1.0329262,0.15567982,-0.9360302,2.1218405,-0.16233744,-0.20357084
445,1778426771270,1.0377435,0.121409525,-0.990758975,2.171206025,-0.1772272725,-0.3034473199999999
446,1778426771280,1.0287998833333334,0.0975260151666666,-1.03525345,2.0968458333333335,-0.0597629832333333,-0.4971934
447,1778426771290,0.9832891285714284,0.0695685202857142,-1.0944019142857144,1.869247642857143,0.0892954073142857,-0.5977752728571428
448,1778426771300,0.9488969,0.058174126,-1.1236022,1.6597209,0.19898935,-0.65668017
449,1778426771310,0.9196777,0.0564971984999999,-1.1093736166666666,1.3657419833333335,0.3049999166666666,-0.6639341533333333
450,1778426771320,0.8978747399999999,0.0513183255714285,-1.0811257857142855,1.1508264857142856,0.3842342414285714,-0.6501133214285714
451,1778426771330,0.89057025,0.0499114499999999,-1.02990765,0.88124945,0.4938845649999999,-0.6161339499999999
452,1778426771340,0.90371126,0.06628435,-0.92517596,0.5702426885714286,0.6282094471428571,-0.5811728285714286
453,1778426771350,0.8927756666666666,0.0763662413333333,-0.7862450566666667,0.4022293083333333,0.7590509666666666,-0.5654830616666666
454,1778426771360,0.8825108,0.0916720123333333,-0.6868592033333334,0.35613444,0.8381070999999999,-0.54901516
455,1778426771370,0.8818807,0.093267637,-0.663453335,0.4172591249999999,0.84877814375,-0.5381722875
456,1778426771380,0.88964538,0.0976073246666666,-0.64558642,0.5603670333333334,0.7761551999999999,-0.5350670566666667
457,1778426771390,0.9067863228571428,0.1123584705714285,-0.6385477057142858,0.7706283428571429,0.5678428685714286,-0.5933028542857144
458,1778426771400,0.8800948714285715,0.1181776271428571,-0.6581307285714286,0.9606728714285714,0.3599741514285714,-0.6695083000000001
459,1778426771410,0.8589525,0.11543357,-0.67339295,1.0793989,0.2180789,-0.7309003
460,1778426771420,0.7924750833333333,0.103288544,-0.7211497916666666,1.10602245,0.1507564466666666,-0.7203627950000001
461,1778426771430,0.7510803999999999,0.0984203739999999,-0.7533366,1.0428997,0.17531833,-0.66843927
462,1778426771440,0.7078359833333333,0.0845984373333333,-0.7617721,0.8869763199999999,0.2656754683333333,-0.5871432866666667
463,1778426771450,0.6904322428571428,0.0817295128571428,-0.7553053885714286,0.6226243814285713,0.4566653885714285,-0.4768894014285714
464,1778426771460,0.6787591000000001,0.08159013,-0.74443364,0.5017494316666666,0.5498805166666666,-0.438601245
465,1778426771470,0.670984265,0.104243885,-0.679277415,0.214871845,0.6956991499999999,-0.40607268
466,1778426771480,0.6761370300000001,0.10714039,-0.66028243,0.14752395,0.6974554,-0.42623124
467,1778426771490,0.6479384828571428,0.1026192328571428,-0.5949388857142858,0.1072068482857142,0.6299111428571429,-0.5279839485714286
468,1778426771500,0.59444522,0.0961031726666666,-0.55761384,0.134543067,0.51679201,-0.627969485
469,1778426771510,0.5362943571428571,0.0686973897142857,-0.5367647742857142,0.2017164257142857,0.4665483199999999,-0.6408194500000001
470,1778426771520,0.5046026133333333,0.0536210149999999,-0.5406006333333333,0.2430225466666666,0.4870632133333334,-0.60811634
471,1778426771530,0.4687468399999999,0.0435391249999999,-0.5545445,0.2793690216666666,0.5391394766666667,-0.5473861733333334
472,1778426771540,0.4259307771428571,0.0360386871428571,-0.5838232714285715,0.2801689871428571,0.6204209114285714,-0.4221078828571429
473,1778426771550,0.4130728799999999,0.03140427,-0.6027791,0.25671613,0.68554354,-0.29917124
474,1778426771560,0.4477395675,0.038607434875,-0.61992187125,0.22691734875,0.69957434,-0.2370348125
475,1778426771570,0.45864466,0.0539462346666666,-0.6212760933333333,0.1978185216666666,0.6333145450000001,-0.1660535366666666
476,1778426771580,0.43880608,0.0611533931428571,-0.63368676,0.2335032357142857,0.5296637871428571,-0.1632101
477,1778426771590,0.42081723,0.073175006,-0.65089166,0.28160888,0.42073344,-0.1259146
478,1778426771600,0.4001888585714285,0.0714327397142857,-0.6667810542857142,0.29461158,0.3885321057142857,-0.0923279185714285
479,1778426771610,0.3750117133333333,0.0697703316666666,-0.6945526833333333,0.2947425,0.38224894,-0.04520403
480,1778426771620,0.3655091333333333,0.0638858433333333,-0.738661,0.2602286066666666,0.43641232,0.060628375
481,1778426771630,0.3773390985714285,0.0621290614285714,-0.7945324428571429,0.1638646028571428,0.5457644714285714,0.1985093914285714
482,1778426771640,0.3998607466666666,0.0719757466666666,-0.8357600999999999,0.0085012079999999,0.65209866,0.28990646
483,1778426771650,0.40526757,0.07646788,-0.8430979,-0.028252518,0.66599584,0.30008754
484,1778426771660,0.40054165,0.10747578,-0.86505047,-0.1758782866666667,0.6363688666666667,0.2676098899999999
485,1778426771670,0.378314765,0.125281695,-0.8744717300000001,-0.29733866,0.521678915,0.2205987099999999
486,1778426771680,0.3539753585714286,0.1551222928571428,-0.87191502,-0.3315471,0.46838093,0.2141082699999999
487,1778426771690,0.3567484533333333,0.1631396,-0.8698272133333335,-0.3853796066666666,0.384972375,0.2185879516666666
488,1778426771700,0.3619113599999999,0.16031423,-0.8705995999999999,-0.4156937999999999,0.35063666,0.2180789
489,1778426771710,0.3738023,0.13775194,-0.8684653,-0.4856378699999999,0.42653665,0.21670444
490,1778426771720,0.3911378,0.1313055685714285,-0.8597104,-0.6180865428571429,0.6223844285714285,0.2124065714285714
491,1778426771730,0.4150445466666667,0.1342558,-0.8502325599999999,-0.7744244333333333,0.8923723333333333,0.1788817066666666
492,1778426771740,0.44278716,0.1648789628571428,-0.8483160685714285,-0.8290968714285715,1.0067495928571428,0.1100866457142857
493,1778426771750,0.4469163,0.1779981899999999,-0.8521839,-0.838718,1.0312933,0.06963864
494,1778426771760,0.44566625,0.206429725,-0.874837675,-0.83152123125,0.990193485,-0.0387135849999999
495,1778426771770,0.44792249,0.2435812899999999,-0.90465645,-0.8585202000000001,0.84518298,-0.2019927733333333
496,1778426771780,0.42892748,0.2243017033333333,-0.93436346,-0.9319767333333332,0.7861835666666667,-0.27107145
497,1778426771790,0.4210698714285714,0.20833968,-0.9458914142857144,-0.9954703571428573,0.7908959571428572,-0.28317967
498,1778426771800,0.4212441,0.19470648,-0.9464576,-1.11488,0.8620835866666666,-0.2458223466666666
499,1778426771810,0.4106946971428571,0.1533277628571428,-0.9095826657142856,-1.2464051428571428,0.97873702,-0.1618138357142857
500,1778426771820,0.418012195,0.1505880533333333,-0.8906921783333334,-1.3099496333333331,1.0789407333333332,-0.064191757
501,1778426771830,0.4594678433333333,0.1967188,-0.8801021749999999,-1.2127202,0.9916634,-0.0302378289999999
502,1778426771840,0.4653930033333333,0.2403493916666666,-0.9069532883333332,-1.0689632333333334,0.787049,-0.070096788
503,1778426771850,0.46478322,0.2923341,-0.96676373,-0.9250027,0.5493206,-0.12812899
504,1778426771860,0.4501481999999999,0.33434877,-1.0548787,-0.80924374,0.20723604,-0.20906863
505,1778426771870,0.4419857057142857,0.3436524628571428,-1.1280448714285711,-0.8360345257142858,-0.1632100942857142,-0.3039927242857143
506,1778426771880,0.4105727114285714,0.3341919714285714,-1.1423488714285714,-1.0482229428571428,-0.4734859942857143,-0.4206679928571429
507,1778426771890,0.3785891666666667,0.3167664416666667,-1.0653467166666666,-1.2456051333333331,-0.5125668333333334,-0.4833471333333333
508,1778426771900,0.3729486,0.31367683,-1.050854,-1.3813190000000002,-0.45799622,-0.5233588
509,1778426771910,0.3169522971428571,0.3356990214285714,-0.8888410685714285,-1.4646149000000002,-0.2769619371428571,-0.5807364857142857
510,1778426771920,0.29587093,0.3494716,-0.8170599,-1.4422529,-0.17027868,-0.6256787
511,1778426771930,0.2642575714285714,0.3649167571428572,-0.7350777542857143,-1.265058342857143,-0.0896226548571428,-0.6875288285714286
512,1778426771940,0.2151751566666666,0.3794733666666667,-0.7017279466666667,-0.7506515833333333,0.0049378273333333,-0.7898996533333333
513,1778426771950,0.20415826,0.38185155,-0.7095536000000001,-0.4589997914285714,0.0354520008571428,-0.80930918
514,1778426771960,0.18058981,0.38709576,-0.7895887500000001,-0.1723912583333333,0.0420478916666666,-0.78366374
515,1778426771970,0.15702136,0.3923399699999999,-0.8696239,0.0636826983333333,0.0466293823333333,-0.7029531733333334
516,1778426771980,0.1543818271428571,0.3817818557142857,-0.9500380171428572,0.1657408228571428,0.1174170322857142,-0.5124941157142857
517,1778426771990,0.166625575,0.3588217416666666,-1.0059326666666666,0.1978694266666666,0.2272418699999999,-0.2676098833333333
518,1778426772000,0.1678146699999999,0.3563622499999999,-1.006888,0.19425514,0.24938573,-0.22327125
519,1778426772010,0.2063447842857143,0.3354376914285714,-0.9792470571428572,0.2354230985714285,0.3479531971428571,0.0480183714285714
520,1778426772020,0.2666009166666667,0.3178640833333333,-0.9521796,0.3640757,0.3475823,0.2593123
521,1778426772030,0.3454469833333333,0.30883916,-0.9809108666666668,0.6387359766666667,0.1095230363333333,0.3832924966666666
522,1778426772040,0.3670336,0.30696914,-0.992253,0.8664032714285714,-0.1102393614285714,0.4517566714285714
523,1778426772050,0.3670336,0.30696914,-0.9922530000000002,0.9680687,-0.21517728,0.4537201499999999
524,1778426772060,0.42685416,0.25397822,-1.1039668,1.006400442857143,-0.2517201057142857,0.4139484671428571
525,1778426772070,0.41423148,0.22135438,-1.1320173,0.9691377,-0.1957823,0.39003745
526,1778426772080,0.3790029614285713,0.21676351,-1.0918755714285715,0.8064512114285715,0.03196134,0.3778419699999999
527,1778426772090,0.36144387,0.21714681,-1.0567283666666667,0.733801875,0.1844813,0.373849525
528,1778426772100,0.3537401612499999,0.21649129375,-1.0276286125,0.72799864375,0.243429795,0.36711091625
529,1778426772110,0.3372961083333333,0.2151344966666666,-0.9960844833333332,0.8480336500000001,0.229150835,0.3223077849999999
530,1778426772120,0.3320112416666667,0.2145247016666666,-1.0009628166666666,0.9092729,0.20097467,0.3022256
531,1778426772130,0.3181892999999999,0.21421981,-1.0262184,0.9807441714285714,0.1389282071428571,0.2897901028571428
532,1778426772140,0.2914020285714285,0.2147860528571428,-1.0788347571428571,1.0452340714285715,-0.0001527174285714,0.3041236257142857
533,1778426772150,0.2622191342857142,0.21309605,-1.1047595857142858,1.047677542857143,-0.1232638785714285,0.3422154428571428
534,1778426772160,0.2483275066666666,0.2117603233333333,-1.0998812333333332,1.0089203233333337,-0.19456058,0.3919464116666666
535,1778426772170,0.24507529,0.21147576,-1.0964664,0.93294394,-0.29229903,0.4931209699999999
536,1778426772180,0.24031891,0.2002381628571428,-1.0792180285714286,0.8796677628571429,-0.35526177,0.5666866014285714
537,1778426772190,0.23617233,0.1874906216666666,-1.05266305,0.8034659583333333,-0.474896825,0.7075855433333333
538,1778426772200,0.2320866957142857,0.1811516914285714,-1.0284746771428572,0.7802058199999999,-0.5668174942857143,0.8300131371428572
539,1778426772210,0.2283060099999999,0.17372964,-0.98371595,0.7780132599999999,-0.7696138650000001,1.036791065
540,1778426772220,0.23001343,0.17372964,-0.97371536,0.79611015,-0.8546005,1.1061243
541,1778426772230,0.2440386249999999,0.1807422516666666,-0.9759512533333332,0.88407472,-1.14018,1.2676217
542,1778426772240,0.2554330085714285,0.1846187914285714,-0.9781581142857142,0.9179122742857144,-1.2615676714285713,1.3273010857142855
543,1778426772250,0.26416174,0.17824212,-0.9839599,0.9202685,-1.3402383,1.3642148000000005
544,1778426772260,0.28752695,0.1556493283333333,-0.9817544333333332,0.7818565999999999,-1.3492740166666666,1.39890685
545,1778426772270,0.2900779,0.14531335,-0.9695687,0.6534731,-1.3084733,1.4094188
546,1778426772280,0.277323075,0.131430425,-0.9382559833333332,0.4418337483333333,-1.2315297833333332,1.4426854999999998
547,1778426772290,0.2670626242857143,0.1055984857142857,-0.8832658371428571,0.31429017,-1.1933253,1.4764613
548,1778426772300,0.288939625,0.10229255,-0.8242858716666667,0.24098633,-1.2238685,1.5315918999999998
549,1778426772310,0.3434346749999999,0.100920525,-0.75943455,0.2812016216666667,-1.3759485833333336,1.5565355666666667
550,1778426772320,0.3622772414285714,0.0977670285714285,-0.7589292785714286,0.4584761771428571,-1.6571683285714285,1.5133095285714284
551,1778426772330,0.3775423533333333,0.0810819633333333,-0.7899851,0.5224425166666666,-1.7965801833333332,1.44866695
552,1778426772340,0.3844997942857143,0.0336692131428571,-0.8160842,0.4805546142857143,-1.8357373428571429,1.3693635714285717
553,1778426772350,0.3781623249999999,0.0077748443999999,-0.796479405,0.4125885599999999,-1.7477873166666666,1.36459665
554,1778426772360,0.3746560071428571,-0.0023084970571428,-0.7337013257142857,0.1253800962857142,-1.3473069285714283,1.3892603
555,1778426772370,0.377583,-0.0020732917,-0.7029678,0.016646078,-1.1863003,1.3972015000000002
556,1778426772380,0.4052268833333334,0.00300830555,-0.6542353833333333,-0.0674751536666666,-1.03434755,1.3652584166666666
557,1778426772390,0.4274233266666666,0.009431445,-0.6172108333333334,-0.07895433,-0.97341375,1.3049609
558,1778426772400,0.49009974,0.0345955158333333,-0.5829913366666667,0.1031089638333333,-1.1167125733333334,0.9467393166666668
559,1778426772410,0.5921773714285715,0.0758755092857142,-0.6186510685714285,0.2244929771428571,-1.2673490571428572,0.7142105485714286
560,1778426772420,0.6310821000000001,0.0228323457142857,-0.6975929485714286,0.3394229057142857,-1.449408757142857,0.400967582
561,1778426772430,0.631482842857143,-0.0603780885714285,-0.7560458571428572,0.2256274342857143,-1.3170691285714289,0.0318304414285714
562,1778426772440,0.6009497,-0.11238461,-0.7800455,0.14538592,-1.1849259,-0.028252518
563,1778426772450,0.5549816333333334,-0.11797436,-0.7653901833333333,-0.34101551,-0.41683917,0.003436115
564,1778426772460,0.5719846000000001,-0.1295502449999999,-0.7335794,-0.7281513666666667,0.2121229666666666,0.0968730466666666
565,1778426772470,0.5944249,-0.12781233,-0.7238227,-0.8173377000000001,0.3575089,0.11927144
566,1778426772480,0.6003921514285714,-0.1233434285714285,-0.723082242857143,-0.9881618428571428,0.5815655214285715,0.0803069617714285
567,1778426772490,0.63619566,-0.09653002,-0.7186395,-1.0189233,0.550695,-0.0033597588
568,1778426772500,0.72107863,-0.050612707,-0.7551051,-1.0065532,0.41813725,-0.099571034
569,1778426772510,0.72107863,-0.050612707,-0.7551051000000001,-1.0065532,0.41813725,-0.099571034
570,1778426772520,0.7128725928571429,-0.061571535,-0.7778764514285713,-0.9725629142857144,0.2083923128571428,-0.1233947814285714
571,1778426772530,0.6930805357142856,-0.0924618405714285,-0.8313638542857144,-0.8877617428571429,-0.3421063442857143,-0.1427243071428571
572,1778426772540,0.7012197766666667,-0.1080754126666666,-0.8031159433333334,-0.8954775666666667,-0.3787364533333333,0.0139989966666666
573,1778426772550,0.733457445,-0.07396773,-0.782942015,-0.91657785,-0.2856812966666667,0.16226108
574,1778426772560,0.7787388314285714,-0.0406643942857142,-0.7839830571428571,-0.9519898571428572,-0.0731292971428571,0.3922627414285714
575,1778426772570,0.8367299957142856,-0.0170044772857142,-0.8228703571428572,-0.9365655142857142,-0.0569413671428571,0.4290237571428572
576,1778426772580,0.92145622,0.020976833,-0.91868167,-0.94554305,-0.10751228,0.357967035
577,1778426772590,0.93987197,0.032684833,-0.96584904,-0.9615019,-0.15424347,0.28725937
578,1778426772600,0.9079623828571428,0.0118473808285714,-1.0711252142857144,-1.140223628571429,-0.2244711628571429,0.0329430957142857
579,1778426772610,0.8875314433333333,0.0017480695333333,-1.1031741666666666,-1.35459365,-0.216169935,-0.1261436749999999
580,1778426772620,0.8430980166666666,-0.0176026536,-1.0822379666666668,-1.5771013500000002,-0.14721852,-0.187382915
581,1778426772630,0.8248914142857142,-0.0282769121428571,-1.0624226428571428,-1.7469219142857142,-0.0750927909999999,-0.2098103899999999
582,1778426772640,0.8224260766666666,-0.0362622786666666,-1.004550533333333,-1.9336430333333332,0.0401134853333333,-0.1724676233333333
583,1778426772650,0.8359634100000001,-0.0473604873333333,-0.93259504,-2.0047834,0.13087788,-0.12194398
584,1778426772660,0.8519399571428572,-0.0406905285714285,-0.8979356428571429,-1.9977911285714285,0.15646877,-0.1023853814285714
585,1778426772670,0.88078308,0.0022562299999999,-0.84370775,-1.86443705,0.041386122,-0.15966491
586,1778426772680,0.8860069533333332,0.0251234183333333,-0.8321624,-1.7372498333333333,-0.091884314,-0.2405791
587,1778426772690,0.8842589,0.027562585,-0.8346219,-1.6409367,-0.18432859,-0.30879238
588,1778426772700,0.8815351666666666,0.044189571,-0.8510252633333333,-1.5050193,-0.3303254,-0.42210788
589,1778426772710,0.8708435,0.048173543,-0.8504154700000001,-1.4218398,-0.37868554,-0.5125668333333333
590,1778426772720,0.8141328714285715,0.0571374804285714,-0.8557468342857143,-1.4248650857142855,-0.3106031585714285,-0.5293147442857142
591,1778426772730,0.78968025,0.068571075,-0.843799225,-1.45531015,-0.228234525,-0.514806685
592,1778426772740,0.7430922000000001,0.0851879,-0.8322436,-1.4688255,-0.19211712,-0.5009095
593,1778426772750,0.7234162,0.09779026,-0.8008190666666666,-1.4688255,-0.19211712,-0.5009095
594,1778426772760,0.7135782,0.10409144,-0.7851068,-1.4585680333333333,-0.10244719,-0.5001459033333333
595,1778426772770,0.7135782,0.10409144,-0.7851068,-1.4141531,0.02977968,-0.49541172
596,1778426772780,0.6856671571428572,0.1209826671428571,-0.7321333285714287,-1.3783738428571428,0.0651880485714285,-0.4845470457142857
597,1778426772790,0.6490114333333333,0.17325198,-0.671939575,-1.02599905,0.3431790016666666,-0.3676899666666666
598,1778426772800,0.6164732514285715,0.1911609814285714,-0.6816773899999999,-0.7093672857142856,0.3717114928571429,-0.3300853914285714
599,1778426772810,0.599679295,0.194991055,-0.6868795,-0.60320401,0.3624976066666667,-0.3173953933333333
600,1778426772820,0.5914979133333333,0.20491034,-0.6900605999999999,-0.3105486249999999,0.216704443,-0.2246456999999999
601,1778426772830,0.6233116,0.2228004557142857,-0.6933505857142858,0.0108428585714285,0.0454876425714285,-0.1445787114285714
602,1778426772840,0.65015985,0.2432459049999999,-0.7084255,0.1625665166666666,-0.0243582525,-0.1313105733333333
603,1778426772850,0.6663454714285715,0.2548058114285714,-0.7502267285714286,0.5239042314285715,-0.1672243585714285,-0.13432491
604,1778426772860,0.6605568,0.254923405,-0.799741805,0.6231843833333333,-0.2093231516666666,-0.1387682283333333
605,1778426772870,0.6476495416666667,0.2549234033333333,-0.8383517500000001,0.6467026666666666,-0.1641191333333333,-0.1138754666666666
606,1778426772880,0.6134809250000001,0.25236228,-0.90264415,0.536721465,0.0485637899999999,-0.0321467821
607,1778426772890,0.6086330999999999,0.25483194,-0.9116996,0.4326889471428571,0.1790707857142857,0.0085739302571428
608,1778426772900,0.9112117,0.25065486,-1.2519938,-0.0972039399999999,0.44623707,-0.1166752515
609,1778426772910,1.0794532,0.2608079,-1.4466088,-0.4786638416666666,0.5850053083333333,-0.3228422616666667
610,1778426772920,0.8455371,0.34502012,-1.273245,-0.8347474,0.8619308499999999,-0.52519137
611,1778426772930,0.5417563714285715,0.2619926257142856,-0.8801645828571428,-0.933969342857143,0.9494154928571428,-0.23023075
612,1778426772940,0.5462920666666666,0.2011702733333333,-0.7919771,-0.7337000533333334,0.6531676333333333,0.0833322
613,1778426772950,0.6071086,0.2087317,-0.7474217,-0.4147265733333333,0.3229440816666666,0.24348071
614,1778426772960,0.7364628142857143,0.2373832,-0.6494891,-0.1123991957142857,0.0897535605714285,0.3330088371428572
615,1778426772970,0.8993207750000001,0.2322086799999999,-0.644062,0.17440203,-0.036957346,0.37293324
616,1778426772980,0.9756057333333332,0.2390383433333333,-0.6611565,0.6187555916666666,-0.0295760605,0.2361757766666666
617,1778426772990,0.9915823,0.24440451,-0.6690025,0.7137451516666666,0.0187077475,0.1601739538333333
618,1778426773000,0.9358574166666666,0.2612957166666667,-0.76509545,0.95139715,0.192168025,-0.0623082558333333
619,1778426773010,0.8560255,0.2420873,-0.8373049,1.0375546,0.3359759,-0.1432479
620,1778426773020,0.8272869285714286,0.2310762042857142,-0.8556509457142857,1.019054142857143,0.35947239,-0.1144935997142857
621,1778426773030,0.8191230383333333,0.2145958616666666,-0.8458420166666666,0.9964230333333334,0.3797545733333333,-0.0818050353333333
622,1778426773040,0.9010485,0.1838521933333333,-0.7540684133333334,1.0751228333333334,0.4378376866666666,-0.0584394426666666
623,1778426773050,1.00276756,0.1475782942857142,-0.6636275942857143,1.2646219857142855,0.5184501,-0.0524253307142857
624,1778426773060,1.0348165,0.1365018633333333,-0.6528328333333333,1.4669929,0.5311473,-0.082924955
625,1778426773070,1.0671355,0.12110463,-0.6567457,1.8391626,0.38896844,-0.18661933
626,1778426773080,1.04069085,0.1098031566666666,-0.6852839166666667,2.0906863333333336,0.1920153066666666,-0.2833651133333333
627,1778426773090,0.948287025,0.064851344,-0.781478495,2.4781276,-0.1479057499999999,-0.42745295
628,1778426773100,0.90009605,0.0327283892857142,-0.8345260514285714,2.5274331714285716,-0.2023491142857142,-0.4491822942857143
629,1778426773110,0.88852745,0.019696271,-0.8530986,2.4909557999999996,-0.1638646,-0.4457789
630,1778426773120,0.8885274500000001,0.019696271,-0.8530986,2.4909558,-0.1638646,-0.4457788999999999
631,1778426773130,0.8636654142857143,-0.005793021,-0.87528625,2.4909557999999996,-0.1638646,-0.4457789
632,1778426773140,0.8780390133333333,-0.0027847154666666,-0.8656196,1.7171422500000002,0.528016625,-0.39423716
633,1778426773150,0.88642804,0.0046257054028571,-0.8470528857142857,1.4670147285714283,0.6539312357142857,-0.4764094257142857
634,1778426773160,0.88053924,0.00079272914,-0.8378538,1.4228578999999997,0.67103547,-0.5001459
635,1778426773170,0.8613394457142857,-0.0031970506542857,-0.8324527728571428,1.308473342857143,0.6937029257142857,-0.5533129914285714
636,1778426773180,0.8331786333333332,-0.0065247706666666,-0.8267352133333333,1.2459105333333331,0.7033095083333333,-0.5770640166666666
637,1778426773190,0.7701146028571427,-0.0044340561714285,-0.8213806428571429,1.2068733571428572,0.705549357142857,-0.5384341
638,1778426773200,0.7498782585714286,0.0024565893428571,-0.8320433142857143,1.1885473857142856,0.7167412857142857,-0.4896739471428571
639,1778426773210,0.7482144033333333,0.0060775902666666,-0.8439516666666668,1.1766791,0.7273878000000001,-0.45616361
640,1778426773220,0.7558280928571428,0.022658116,-0.8703469142857143,1.115592671428571,0.7130324857142857,-0.4187699357142857
641,1778426773230,0.76029845,0.0329287505,-0.8802748983333334,1.0516809,0.6599889916666667,-0.4168646166666667
642,1778426773240,0.7266582850000001,0.0332336475,-0.91035797,0.9889145083333332,0.57413698,-0.4330270966666667
643,1778426773250,0.662081335,0.034117845,-0.9474943,0.8536841666666666,0.4099414866666667,-0.4090760966666666
644,1778426773260,0.6299758,0.038355898,-0.9651172999999998,0.7641924000000001,0.3266602,-0.38026363
645,1778426773270,0.6299758,0.038355898,-0.9651172999999998,0.7641924000000001,0.3266602,-0.38026363
646,1778426773280,0.6326995333333333,0.035571182,-0.9533889866666666,0.4138612,0.2230676333333333,-0.21100304
647,1778426773290,0.6497591857142858,0.0368575502857142,-0.8684217628571428,0.0634209057142857,0.2928662542857143,-0.1256200774285714
648,1778426773300,0.65317835,0.041221917,-0.8173038199999999,-0.1037452783333333,0.3577888666666666,-0.110693875
649,1778426773310,0.6626606,0.04018527,-0.79876614,-0.20479257,0.4027129,-0.11591168
650,1778426773320,0.6882718833333333,0.0488239851666666,-0.7686424066666667,-0.3149773883333333,0.4672864433333334,-0.224620245
651,1778426773330,0.6811983,0.040551145,-0.7524219,-0.4040873599999999,0.54641896,-0.38637227
652,1778426773340,0.6353216533333333,0.0371363116666666,-0.7477265566666667,-0.45952338,0.6026186,-0.4793765
653,1778426773350,0.5745863866666667,0.0381119809999999,-0.7360591900000001,-0.5944737133333333,0.7737626666666667,-0.5832999233333332
654,1778426773360,0.54047869,0.0392909113333333,-0.7285993999999999,-0.6487134666666666,0.8337292833333333,-0.6001496166666667
655,1778426773370,0.4590511833333333,0.0489662726666666,-0.7056305933333333,-0.7307984766666666,0.8718574666666666,-0.5439755000000001
656,1778426773380,0.44398934,0.052381106,-0.69949204,-0.7334964542857143,0.8215701514285714,-0.4881686242857143
657,1778426773390,0.4193363257142857,0.0575643374285714,-0.6814160828571428,-0.6566583285714286,0.618741047142857,-0.3341651028571428
658,1778426773400,0.4076355866666667,0.0838260316666666,-0.63968166,-0.5674938283333334,0.4512512366666666,-0.2078723483333333
659,1778426773410,0.41478032,0.09524946,-0.62034106,-0.45677447,0.32284227,-0.10567969
660,1778426773420,0.4460626166666667,0.11659217,-0.6019456666666666,-0.153556245,0.128739855,0.0719293835
661,1778426773430,0.4526483700000001,0.12561709,-0.608816,-0.05299256,0.07376198,0.12095132
662,1778426773440,0.4465707666666667,0.1596434633333333,-0.6564204066666667,0.0955495066666666,-0.0431678084999999,0.1937206366666667
663,1778426773450,0.4426390714285714,0.1747488728571428,-0.7029504142857144,0.1999929228571428,-0.1954332442857143,0.2770710114285714
664,1778426773460,0.44889815,0.179156795,-0.7382747850000001,0.187077485,-0.281456155,0.3535382599999999
665,1778426773470,0.4628319,0.1758639199999999,-0.7820578566666666,0.08501208,-0.3166827266666667,0.44959683
666,1778426773480,0.4663687,0.17305888,-0.7916316,0.04550946,-0.31016684,0.46914452
667,1778426773490,0.4693566583333333,0.1857831983333333,-0.7943451166666667,-0.0814486966666666,-0.2540944966666666,0.5047528649999999
668,1778426773500,0.4706982,0.19643423,-0.7924852333333333,-0.2292780933333333,-0.17654006,0.5292638366666668
669,1778426773510,0.4750887,0.20520362,-0.7743396285714287,-0.3289727642857142,-0.1404117385714285,0.5183845971428571
670,1778426773520,0.4865120999999999,0.2164963783333333,-0.75586729,-0.3699298183333333,-0.1505273766666666,0.5003749933333334
671,1778426773530,0.4972851,0.2342819699999999,-0.74138474,-0.3404046600000001,-0.19761491,0.45570546
672,1778426773540,0.5296650666666666,0.20787798,-0.7587231333333332,-0.2613994283333333,-0.2533309166666667,0.3602068716666666
673,1778426773550,0.5411988571428571,0.19512462,-0.7891313999999999,-0.21975877,-0.2324996828571428,0.2662499728571428
674,1778426773560,0.5319619333333333,0.1849904733333333,-0.83950022,-0.2482658133333333,-0.13342315,0.1461495086666666
675,1778426773570,0.5073161633333333,0.1803763816666666,-0.8833950333333332,-0.4359032666666667,0.0622573466666666,0.0021889333333333
676,1778426773580,0.4445686,0.170050565,-0.9232551,-0.4989242,0.118507855,-0.029321533
677,1778426773590,0.4105524166666667,0.1577226166666666,-0.9200740166666668,-0.786030845,0.3174208616666666,-0.0351756565
678,1778426773600,0.3919131142857143,0.13717699,-0.8687353285714285,-1.0226538728571428,0.4946917728571428,0.0513126804285714
679,1778426773610,0.3876750666666667,0.1531288516666666,-0.8156472166666666,-1.0600294,0.5127450283333334,0.088880895
680,1778426773620,0.3877055599999999,0.15525296,-0.8085838,-1.0525209,0.43218717,0.14614952
681,1778426773630,0.39063254,0.1585980971428571,-0.7935828914285714,-0.8992809285714285,0.1874047402857142,0.2176643828571428
682,1778426773640,0.41503438,0.2078170033333333,-0.7878101766666666,-0.6498079166666666,-0.139888136,0.2706642133333333
683,1778426773650,0.4188658999999999,0.23598938,-0.7931560000000001,-0.47515134,-0.3558798999999999,0.2561052566666666
684,1778426773660,0.39072838,0.2860968342857143,-0.8708957428571429,-0.37934732,-0.48731774,0.23777929
685,1778426773670,0.3561183533333333,0.3185551733333333,-0.94259569,-0.41340305,-0.65416032,0.180816105
686,1778426773680,0.33514151,0.3298058199999999,-0.95661071,-0.57268617,-0.6304129500000001,0.150272845
687,1778426773690,0.3330159528571428,0.3214560385714285,-0.9262125714285716,-0.7052221142857142,-0.5823073242857143,0.1216058157142857
688,1778426773700,0.328738685,0.303432325,-0.86300767,-0.931493125,-0.396833335,0.03489568
689,1778426773710,0.3259946,0.2978831999999999,-0.83029234,-1.0040224714285717,-0.2432988971428571,-0.0392480942857142
690,1778426773720,0.316613995,0.2879537733333333,-0.7468829966666667,-0.97990422,-0.0475711299999999,-0.156228785
691,1778426773730,0.3111767,0.28166276,-0.6945527,-0.84457211,0.0579812933333333,-0.2717332133333333
692,1778426773740,0.283919,0.32593364,-0.64759874,-0.66630125,0.10277808,-0.3811799
693,1778426773750,0.23208672,0.35178882,-0.6810154,-0.2527455,-0.0015271631,-0.55833083
694,1778426773760,0.2202364366666666,0.35221568,-0.7015043666666667,-0.153759875,-0.0393244493999999,-0.5831472366666667
695,1778426773770,0.1828155433333333,0.33418618,-0.8542165,-0.015780685,-0.09168069,-0.6195955166666667
696,1778426773780,0.1825716314285714,0.3223794414285714,-0.9003051671428571,0.2004947057142857,-0.1546361685714285,-0.6662576357142858
697,1778426773790,0.197481045,0.269253505,-0.970605435,0.1572978,-0.07269296,-0.64766985
698,1778426773800,0.20360945,0.25355136,-0.9768253,0.06887506,0.06704246,-0.6198755
699,1778426773810,0.2100732366666666,0.2349628866666666,-0.9613060833333334,-0.0146607654999999,0.288939265,-0.54038665
700,1778426773820,0.2236106071428571,0.2238371085714285,-0.9504387428571428,0.016013396,0.3095777857142857,-0.4956953285714285
701,1778426773830,0.23147692,0.21915914,-0.9501774,0.136222948,0.2496402666666667,-0.46033786
702,1778426773840,0.24708759,0.19644438,-0.99926568,0.2114611866666667,0.2060143033333333,-0.4382449
703,1778426773850,0.2493844833333333,0.1924705733333333,-1.0322350666666666,0.290415525,0.1530726533333333,-0.40411281
704,1778426773860,0.260624975,0.19034647,-1.0704283,0.34773504,0.1009454866666666,-0.3548618166666666
705,1778426773870,0.27187563,0.1869519683333333,-1.0926450166666666,0.3653483166666667,0.0938441766666666,-0.3246494316666666
706,1778426773880,0.3025089371428571,0.1892880471428571,-1.1108574142857144,0.3348632342857143,0.1750128942857143,-0.3205297171428571
707,1778426773890,0.3124572499999999,0.19079365,-1.1131543,0.3164790999999999,0.233045095,-0.3410409733333333
708,1778426773900,0.3289927616666666,0.2015971283333333,-1.1174839166666668,0.28619038,0.3695225783333333,-0.409050625
709,1778426773910,0.3395319966666666,0.2053981633333333,-1.1220370333333334,0.30451633,0.432568955,-0.5135086050000001
710,1778426773920,0.33855635,0.20507295,-1.1295171,0.3367831,0.4503822085714286,-0.6089235857142857
711,1778426773930,0.3061764,0.1887915,-1.1459814,0.38443785,0.44702609,-0.7244861833333333
712,1778426773940,0.2533989433333333,0.15754985,-1.1408185,0.41172318,0.42470406,-0.7476227
713,1778426773950,0.22519606,0.14037405,-1.118358,0.42271876,0.41370848,-0.7432703
714,1778426773960,0.1598960842857142,0.0967913614285714,-1.0831207,0.4566217814285714,0.3959715857142857,-0.6518150142857143
715,1778426773970,0.1337069808333333,0.080726255,-1.07359925,0.47515135,0.4286237733333333,-0.52015175
716,1778426773980,0.120494835,0.06299148,-1.0641475,0.47861293,0.4673119199999999,-0.40866885
717,1778426773990,0.12860507,0.0487833359999999,-1.0606107,0.4983387749999999,0.5166901966666666,-0.2421062683333333
718,1778426774000,0.147965945,0.0380103476666666,-1.05847645,0.516792,0.54137933,-0.17898351
719,1778426774010,0.1791568,0.0368314166666666,-1.0713836666666663,0.6022367833333333,0.6222426216666667,-0.1147408566666666
720,1778426774020,0.2113537799999999,0.04049017,-1.1214678,0.6818783,0.7021896,-0.11484267
721,1778426774030,0.1943144771428571,0.0600731942857142,-1.1975872857142855,0.7000733842857143,0.8225082214285714,-0.1501637671428571
722,1778426774040,0.1645218033333333,0.0765491833333333,-1.2568823,0.66026899,0.988074525,-0.17676913
723,1778426774050,0.136379915,0.0866513999999999,-1.2698912,0.54748799,1.0812315,-0.141491665
724,1778426774060,0.1169885366666666,0.0962149676666666,-1.2644538833333332,0.4534656416666667,1.1168398666666666,-0.0888045371666666
725,1778426774070,0.107658725,0.112476075,-1.2305595833333334,0.3323107,1.1078042,0.010079277
726,1778426774080,0.11622629,0.13461151,-1.1751905,0.2374229566666666,1.0173960666666666,0.1484911666666666
727,1778426774090,0.1237877066666666,0.1487281866666666,-1.1400868,0.1835141,0.8744027000000001,0.2964732766666667
728,1778426774100,0.1278733166666666,0.1653145266666666,-1.1132357333333334,0.1772781866666667,0.7512624266666666,0.3904192583333333
729,1778426774110,0.1376909666666666,0.1857832,-1.074514,0.1689551466666666,0.39858956,0.6174320333333334
730,1778426774120,0.14391084,0.18769388,-1.0592692,0.1525636,0.2150245599999999,0.7377725
731,1778426774130,0.1435043066666666,0.1831407666666666,-1.047845666666667,0.1344921666666666,0.15597426,0.7908414166666667
732,1778426774140,0.1361461583333333,0.1657312133333333,-0.9889194583333332,0.0463748528333333,0.0261144903333333,1.0032189
733,1778426774150,0.1472342,0.1627229,-0.913437455,-0.0700458816666666,-0.1232675133333333,1.3193417166666668
734,1778426774160,0.1621436,0.16677801,-0.87663656,-0.10415252,-0.22800545,1.4958563
735,1778426774170,0.1710973783333333,0.1676012333333333,-0.8629772166666667,-0.0997492,-0.2510147083333333,1.5207745166666669
736,1778426774180,0.2158662699999999,0.17171735,-0.7946805,-0.0777326,-0.366061,1.6453656000000003
737,1778426774190,0.3041815014285714,0.1982258514285714,-0.73717715,0.0948150077142857,-0.63785241,1.7058194142857144
738,1778426774200,0.379412375,0.218183465,-0.731810985,0.2784527316666667,-0.9141344166666668,1.6841046333333332
739,1778426774210,0.40304182,0.21766514,-0.75714785,0.4131994383333333,-1.1429288333333334,1.6076955333333334
740,1778426774220,0.410613405,0.210987915,-0.7788056333333334,0.47861293,-1.2605205,1.5438092
741,1778426774230,0.4046577533333333,0.1897468433333333,-0.8106773833333333,0.4316272,-1.3056227,1.4584407333333334
742,1778426774240,0.4020182314285714,0.17838148,-0.8188718285714286,0.3192643542857142,-1.2716469142857143,1.4144367142857146
743,1778426774250,0.3972183,0.158149465,-0.7818139,0.1145372335,-1.187522,1.38368615
744,1778426774260,0.40752378,0.14147167,-0.7573003,-0.0288633824,-1.11345456,1.3564262800000002
745,1778426774270,0.4211221299999999,0.09653002,-0.7135172500000001,-0.16630806,-1.002888,1.3112222
746,1778426774280,0.4405744949999999,0.1010221533333333,-0.6693683366666666,-0.1999056466666666,-0.96949404,1.2809843333333333
747,1778426774290,0.4871930499999999,0.14186803,-0.60405962,-0.1999056499999999,-0.9923506,1.1290317
748,1778426774300,0.5177334433333334,0.155557855,-0.5997707666666666,-0.0631481923333333,-1.2333624,0.88684905
749,1778426774310,0.5612348257142857,0.1348249357142857,-0.6477207085714286,0.0699440697142857,-1.5121314714285714,0.5487533485714285
750,1778426774320,0.5665981000000001,0.08803359,-0.70083358,0.0690277713333333,-1.5756251,0.3984368633333333
751,1778426774330,0.5529997566666667,0.0515273946666666,-0.7267294,-0.0673478906666666,-1.5107207333333337,0.2410372466666666
752,1778426774340,0.517713135,0.0025001455,-0.73074385,-0.3912591699999999,-1.24471435,0.185626675
753,1778426774350,0.5286719571428572,-0.0230501251428571,-0.6553953857142857,-0.7174612114285714,-0.8587238142857142,0.2808234714285714
754,1778426774360,0.5599107,-0.0241884026666666,-0.6118040066666667,-0.8516479666666666,-0.6458881666666666,0.32976542
755,1778426774370,0.6055231,-0.0154887079999999,-0.5735091,-0.9630291,-0.43096542,0.36743546
756,1778426774380,0.7071144,0.032095369,-0.5786923166666668,-0.9755772833333332,-0.3428481233333333,0.2655736716666667
757,1778426774390,0.8396424333333333,0.0851472458333333,-0.6125967166666667,-0.960382,-0.36483927,0.138895485
758,1778426774400,0.9312026933333334,0.1021197816666666,-0.6987907566666668,-0.93722,-0.4663956199999999,-0.09208794
759,1778426774410,0.94398803,0.095066525,-0.8092545699999999,-0.9968302566666668,-0.5449936116666666,-0.2932662166666667
760,1778426774420,0.9385304,0.08750511,-0.8530986,-1.0441214,-0.58001655,-0.4008803
761,1778426774430,0.7854726133333333,0.01367966,-0.912289,-1.2934308166666666,-0.4883867583333333,-0.4785111083333333
762,1778426774440,0.7104682833333333,0.0043396844433333,-0.89106824,-1.7234545,-0.250276575,-0.351807465
763,1778426774450,0.6733929828571429,-0.00067077088,-0.8238721371428571,-2.0435406428571428,-0.10234175,-0.0196131328571428
764,1778426774460,0.67924696,-0.0009146876,-0.7803504,-2.1116085,-0.07345655,0.06765333
765,1778426774470,0.7244121916666666,0.0137711286666666,-0.7576051666666667,-2.081879666666667,-0.1639664133333333,0.1139263733333333
766,1778426774480,0.9679426333333332,0.1002090966666666,-0.6437977,-1.9509508,-0.4365650266666667,0.1512909643333333
767,1778426774490,1.0011356333333332,0.1309425966666666,-0.6505054333333333,-1.7598009666666667,-0.6843727,-0.0020871213333333
768,1778426774500,0.94862852,0.130080762,-0.6977602359999999,-1.6079806,-0.88847296,-0.127059968
769,1778426774510,0.87651455,0.1146408299999999,-0.74803144,-1.3863586,-1.1876748,-0.2828306
770,1778426774520,0.8296621750000001,0.0615991216666666,-0.7637132533333334,-1.2597568166666668,-1.3542118833333332,-0.2061415683333333
771,1778426774530,0.8059181000000001,0.0501858517142857,-0.7546345957142858,-1.1974704428571428,-1.2451396857142858,-0.0682423757142857
772,1778426774540,0.8188384333333333,0.07149807,-0.7521779916666667,-1.1883365833333333,-1.1328750083333332,0.0284306883333333
773,1778426774550,0.8862712250000001,0.116226295,-0.7873325000000001,-1.2022846,-0.7928012833333332,0.13036882
774,1778426774560,0.92466372,0.1398984099999999,-0.8367317599999999,-1.22823618,-0.6751282799999999,0.119760124
775,1778426774570,0.9499131333333332,0.1689936,-0.8955400866666666,-1.286304,-0.5864815166666667,0.027234411
776,1778426774580,0.8852833600000001,0.183010676,-0.926005292,-1.35667062,-0.5766568,-0.1567174776
777,1778426774590,0.8155658666666668,0.1916473566666666,-0.9395568733333334,-1.3680327,-0.5821546,-0.1904372399999999
778,1778426774600,0.7600545,0.1959260666666666,-0.9084981166666668,-1.370832533333333,-0.5251404866666667,-0.0993165066666666
779,1778426774610,0.73784795,0.218427375,-0.8608734,-1.3122149,-0.40385829,0.01618793
780,1778426774620,0.768935084,0.226135136,-0.8491471,-1.19436372,-0.259587192,0.0517097424
781,1778426774630,0.7886435400000001,0.22867186,-0.8479763,-1.1711814,-0.23457226,0.054061573
782,1778426774640,0.7836433,0.21989086,-0.85815984,-1.0735702333333337,-0.1755219516666666,-0.0042251511666666
783,1778426774650,0.7633372,0.23129399,-0.8738924999999998,-0.9515753166666668,-0.1447750666666666,-0.0667115726666666
784,1778426774660,0.74124245,0.2533277916666667,-0.8865761166666667,-0.74151402,-0.16134478,-0.132786835
785,1778426774670,0.7177756333333333,0.2794878366666666,-0.90502225,-0.59857159,-0.19359338,-0.1739947816666666
786,1778426774680,0.7230666099999999,0.28933394,-0.91572414,-0.58184916,-0.19929479,-0.17867808
787,1778426774690,0.72796935,0.2935537,-0.9212123,-0.45952338,-0.23243423,-0.2275473
788,1778426774700,0.6866559099999999,0.25955783,-0.943164795,-0.424144105,-0.2143882516666666,-0.2803362466666666
789,1778426774710,0.64704993,0.2477888449999999,-0.935786325,-0.4218788,-0.1418734519999999,-0.290084645
790,1778426774720,0.6221704433333334,0.2452378866666666,-0.9145655333333332,-0.4203261766666666,-0.0637845143333333,-0.2483676366666666
791,1778426774730,0.599254484,0.245502134,-0.88051478,-0.40485093,0.016340645,-0.19898935
792,1778426774740,0.5973519,0.24672171,-0.8574891,-0.31566462,0.15500705,-0.13209961
793,1778426774750,0.6000248333333333,0.2683794716666667,-0.8424983183333333,-0.2000074633333333,0.3235040583333333,-0.0669151985
794,1778426774760,0.6023522333333333,0.2882688383333333,-0.8486775249999999,-0.0884227449999999,0.458225305,-0.0311541286666666
795,1778426774770,0.5861724133333333,0.2939602433333333,-0.8840760333333333,-0.012217305,0.4626031683333333,-0.0392735451666666
796,1778426774780,0.56661844,0.28989497,-0.9198098,0.073380188,0.33452509,-0.007635815
797,1778426774790,0.549635695,0.2747111566666667,-0.9224114933333332,0.0847066473333333,0.2705115,0.0383826993333333
798,1778426774800,0.5609909042857143,0.2603287885714286,-0.91137719,0.0881391271428571,0.2274600371428571,0.1153662654285714
799,1778426774810,0.5813042416666666,0.2603099166666667,-0.901851385,0.0940732466666666,0.20861048,0.1502219466666666
800,1778426774820,0.60399866,0.268954714,-0.8806123579999999,0.127762468,0.198622836,0.163498086
801,1778426774830,0.6251787666666667,0.2817237466666666,-0.8595623666666666,0.2695442933333333,0.1896227533333333,0.16203201
802,1778426774840,0.620585,0.29940772,-0.8745022499999999,0.32757649,0.17638734,0.168751525
803,1778426774850,0.6264085,0.3106482166666666,-0.8851431,0.36071593,0.16233744,0.1766927699999999
804,1778426774860,0.65885958,0.3123759533333333,-0.8869623666666667,0.4006766966666666,0.112322845,0.1971822116666666
805,1778426774870,0.69668702,0.30419457,-0.8859663499999999,0.448375095,0.1093957853333333,0.2087886483333333
806,1778426774880,0.7193103,0.30007848,-0.8846858000000001,0.5149594,0.15882497,0.20234911
807,1778426774890,0.740094,0.30042403,-0.8860476833333334,0.6163630483333333,0.1938479083333333,0.1507819016666667
808,1778426774900,0.7548611150000001,0.2779735299999999,-0.89496075,0.75136425,0.2039526349999999,0.063911777
809,1778426774910,0.7554099366666667,0.2616006266666666,-0.89883291,0.8256861666666667,0.2055052466666666,0.0149152933333333
810,1778426774920,0.75528795,0.25184396,-0.89456433,0.8680394999999999,0.21120666,-0.012064588
811,1778426774930,0.7461207416666666,0.2323001416666666,-0.865609435,0.9455939333333332,0.28059077,-0.0342848118333333
812,1778426774940,0.727024105,0.210652535,-0.76010533,1.11070575,0.6776022899999999,0.0255799815
813,1778426774950,0.7685814299999999,0.2216897599999999,-0.6047914,1.28136625,1.1246793000000002,0.183106865
814,1778426774960,0.8256701599999999,0.234672222,-0.500114572,1.45117148,1.34579724,0.270857664
815,1778426774970,0.96810525,0.216994365,-0.37779645,1.735875433333333,1.4077643999999998,0.2992985266666667
816,1778426774980,1.1123209500000002,0.17159537,-0.36102717,2.6786441999999995,1.1720976666666667,0.17638734
817,1778426774990,1.2147761333333331,0.1166531399999999,-0.4427087483333333,3.2109113666666667,0.8991427333333334,-0.0097229366666666
818,1778426775000,1.2012895666666668,0.0952392908333333,-0.4948967516666666,3.3586898,0.8116872,-0.07513642
819,1778426775010,1.1049424,0.018659625,-0.69150376,4.2404737,-0.03481932,-0.64766985
820,1778426775020,1.0536589500000002,-0.0094517715,-0.75449526,4.3091962,-0.13652838,-0.6920339449999999
821,1778426775030,0.964812375,-0.061924346,-0.8873078799999999,4.345338900000001,-0.2717332266666666,-0.7371107133333333
822,1778426775040,0.9123195016666666,-0.0934404113333333,-1.0191143666666669,3.8840338666666665,-0.0770199333333333,-0.6501133133333333
823,1778426775050,0.9285385442857144,-0.1021401042857142,-1.1077911571428571,3.131557,0.3102540985714285,-0.54146658
824,1778426775060,0.95188487,-0.1043353499999999,-1.1013447,2.8185322,0.48792863,-0.5187773
825,1778426775070,0.9633184583333332,-0.1065509283333333,-1.0916490166666668,2.6060529333333333,0.6229807533333332,-0.5239696666666667
826,1778426775080,1.062928,-0.11457986,-0.99536294,1.7491872,1.13297685,-0.6495279416666667
827,1778426775090,1.0321131,-0.12008831,-0.9810328766666668,1.3626112499999998,1.1963796,-0.856280355
828,1778426775100,0.9536734866666666,-0.13340209,-0.9678003866666668,1.1644618666666666,1.1013900666666667,-0.9711739066666666
829,1778426775110,0.9041990600000002,-0.14165461,-0.9654831,1.048703,1.0015136,-1.0057896
830,1778426775120,0.8406283099999999,-0.1536674999999999,-0.9420773,0.9080766333333332,0.8140542833333333,-0.974228245
831,1778426775130,0.7622701,-0.1672963449999999,-0.8868098999999999,0.7508552166666665,0.6745734233333334,-0.889114375
832,1778426775140,0.75741004,-0.159155628,-0.838987986,0.57693171,0.690858058,-0.709794884
833,1778426775150,0.7652624285714287,-0.15283122,-0.7842182285714285,0.4911574857142857,0.7293949257142857,-0.5964226657142857
834,1778426775160,0.7764478,-0.15122834,-0.749373,0.4653265999999999,0.7609854,-0.5476407
835,1778426775170,0.7612435999999999,-0.127090748,-0.7114541116666667,0.46845728,0.8480591183333334,-0.4969388816666666
836,1778426775180,0.7480924,-0.1093356459999999,-0.6872962,0.47739118,0.88361657,-0.47952923
837,1778426775190,0.7264956233333334,-0.1008900341666666,-0.6817471166666667,0.4970916,0.8738427,-0.4734205599999999
838,1778426775200,0.6893694933333334,-0.0962454533333333,-0.7004066999999999,0.4725551733333333,0.9090692966666666,-0.4417064733333333
839,1778426775210,0.6719294000000001,-0.0866514,-0.7108951,0.41633012,0.9336057183333332,-0.4328234733333333
840,1778426775220,0.6445193016666667,-0.0828910186666666,-0.72167827,0.2913827166666666,0.9295332833333334,-0.4114686466666666
841,1778426775230,0.59607138,-0.0720773773333333,-0.7391894733333334,0.1875865366666666,0.8870781533333334,-0.3746131166666666
842,1778426775240,0.582534,-0.06280854,-0.7438239000000001,0.075594574,0.6665557999999999,-0.3234022366666667
843,1778426775250,0.58623338,-0.0635199666666666,-0.7366690333333334,0.0270307863333333,0.5023857533333334,-0.30863966
844,1778426775260,0.58729035,-0.06969919,-0.7344941,-0.004428773,0.34223726,-0.3089451
845,1778426775270,0.5876155833333333,-0.0710000766666666,-0.7240869666666666,-0.0452803871666666,0.2007201366666666,-0.2958878633333333
846,1778426775280,0.5716085666666667,-0.064272045,-0.70294756,-0.0710639886666666,0.0756454783333333,-0.2738712466666667
847,1778426775290,0.546556275,-0.054088522,-0.69223553,-0.094607753,0.0023671025,-0.2406045449999999
848,1778426775300,0.5428060683333333,-0.0536311766666666,-0.6941055566666666,-0.1285871333333333,-0.0151952733333333,-0.2195551466666666
849,1778426775310,0.5523290066666666,-0.058865225,-0.7021344466666667,-0.2205732533333333,0.0348702266666666,-0.2084068533333333
850,1778426775320,0.562630404,-0.0625890182,-0.714322136,-0.33771684,0.146943636,-0.23133466
851,1778426775330,0.55663814,-0.0527673053333333,-0.7267090466666666,-0.42760566,0.2415972,-0.259465
852,1778426775340,0.5246444166666667,-0.0262616956666666,-0.7441490933333332,-0.5113451,0.2733621866666667,-0.28883744
853,1778426775350,0.489235875,0.0035063024999999,-0.7636726,-0.6373869666666666,0.2572760733333333,-0.3139847333333333
854,1778426775360,0.4786255,0.013842272,-0.7674228,-0.6944011,0.2180789,-0.30818152
855,1778426775370,0.4639600049999999,0.0233042049999999,-0.7666199166666666,-0.7654905166666667,0.1792634966666666,-0.2817615866666667
856,1778426775380,0.47109458,0.016616823,-0.76867288,-0.88407473,0.2414444899999999,-0.2354122049999999
857,1778426775390,0.4822029416666666,0.0146248366666666,-0.7617314066666667,-0.9619091166666666,0.3015129133333333,-0.2147700466666666
858,1778426775400,0.5026309333333333,0.0176433055,-0.7416692733333333,-1.1207341,0.4529056733333333,-0.20998492
859,1778426775410,0.5031391,0.025367333,-0.7348599400000001,-1.1624765,0.51083606,-0.2182316
860,1778426775420,0.45328864,0.0759800415,-0.6945222000000001,-1.22990075,0.7263187749999999,-0.2953533399999999
861,1778426775430,0.43179348,0.09354204,-0.6822349,-1.2319624,0.7703010999999998,-0.32177326
862,1778426775440,0.3597771,0.14360595,-0.66412413,-1.1740066166666667,0.8149706166666667,-0.361657675
863,1778426775450,0.2906267233333333,0.2046460933333333,-0.6787997866666666,-1.034042135,0.8313876250000001,-0.4431063799999999
864,1778426775460,0.22598879,0.2483681599999999,-0.70260197,-0.981125925,0.7854200083333334,-0.4654029583333334
865,1778426775470,0.2189762,0.23184279,-0.72394466,-0.9433287,0.7457138,-0.4612032499999999
866,1778426775480,0.2122176583333333,0.199879545,-0.7665386066666667,-0.9089166166666668,0.6653595,-0.413683025
867,1778426775490,0.2116587,0.1888524699999999,-0.7831554400000001,-0.8901834000000001,0.6160576,-0.3483459
868,1778426775500,0.2139250833333333,0.2005909633333333,-0.8037867233333333,-0.8709920233333334,0.5362378766666667,-0.2678644066666666
869,1778426775510,0.24013596,0.268277845,-0.84276259,-0.8369362499999999,0.4470261033333333,-0.195502329
870,1778426775520,0.26855224,0.344532295,-0.88020377,-0.6939429,0.189215515,-0.1168279769999999
871,1778426775530,0.2813172116666667,0.3737921316666666,-0.9076647166666666,-0.6375651416666667,0.0570904445,-0.1156317
872,1778426775540,0.315615968,0.3869981919999999,-0.98092308,-0.65032716,-0.1406211752,-0.11395691
873,1778426775550,0.352063215,0.381821065,-0.9870088,-0.7333437300000001,-0.225561985,-0.10812315
874,1778426775560,0.4153900833333333,0.35731759,-0.9433680666666668,-0.79198676,-0.2556471,-0.10247265
875,1778426775570,0.4333179599999999,0.3473983,-0.9247491,-0.8258897833333334,-0.2569197333333333,-0.11550444
876,1778426775580,0.43331796,0.3473983,-0.9247491,-0.914404178,-0.235091484,-0.1782810239999999
877,1778426775590,0.4333179599999999,0.3473983,-0.9247491,-0.9454667,-0.1985312099999999,-0.2333505299999999
878,1778426775600,0.4333179599999999,0.3473983,-0.9247491,-0.9454667,-0.1985312099999999,-0.2333505299999999
879,1778426775610,0.446001624,0.331470548,-0.90938234,-0.9454667,-0.19853121,-0.23335053
880,1778426775620,0.4534411066666666,0.2895290866666666,-0.8735265333333334,-0.9454667,-0.1985312099999999,-0.2333505299999999
881,1778426775630,0.4476481,0.28050417,-0.8671237,-0.9454667,-0.1985312099999999,-0.2333505299999999
882,1778426775640,0.4476481,0.28050417,-0.8671237000000002,-0.9454667,-0.19853121,-0.23335053
883,1778426775650,0.4476481,0.28050417,-0.8671237,-0.9434813833333332,-0.1846594766666666,-0.2458223616666666
884,1778426775660,0.4476481,0.28050417,-0.8671237000000002,-0.9335548,-0.11530081,-0.30818152
885,1778426775670,0.4476481,0.28050417,-0.8671236999999999,-0.9335548,-0.11530081,-0.30818152
886,1778426775680,0.428073772,0.282479886,-0.8595501219999999,-0.9335548,-0.11530081,-0.30818152
887,1778426775690,0.41502422,0.28379703,-0.85450107,-0.9071349,-0.1051197233333333,-0.3323106933333333
888,1778426775700,0.41502422,0.28379703,-0.85450107,-0.8542951,-0.08475755,-0.3805690399999999
889,1778426775710,0.41502422,0.28379703,-0.8545010699999999,-0.822957684,-0.098502018,-0.389793104
890,1778426775720,0.41502422,0.28379703,-0.85450107,-0.7759515599999999,-0.11911872,-0.4036291999999999
891,1778426775730,0.41502422,0.28379703,-0.85450107,-0.7759515599999999,-0.11911872,-0.4036291999999999
892,1778426775740,0.40980034,0.281896515,-0.853840475,-0.7759515599999999,-0.11911872,-0.4036291999999999
893,1778426775750,0.38368094,0.27239394,-0.8505375,-0.6375906,-0.193980258,-0.373483004
894,1778426775760,0.38368094,0.27239394,-0.8505375,-0.54534996,-0.24388795,-0.35338554
895,1778426775770,0.34328224,0.2922629733333333,-0.8823990500000001,-0.54534996,-0.24388795,-0.3533855399999999
896,1778426775780,0.3352025,0.29623678,-0.88877136,-0.54534996,-0.24388795,-0.35338554
897,1778426775790,0.21358971,0.3362086233333333,-0.8955807,-0.4334089,-0.1280017199999999,-0.25658885
898,1778426775800,0.5318951542857143,0.3510222328571428,-1.1607471857142857,0.5342670957142858,-0.5259549785714286,-0.0829467804285714
899,1778426775810,0.2344750683333333,0.1272736816666666,-1.0705909166666665,0.3422881516666667,0.3961715566666666,-0.0491237433333333
900,1778426775820,0.208243865,0.1683634783333333,-0.9674548166666668,0.4588870566666667,0.42063163,0.70857826
901,1778426775830,0.257100376,0.164668148,-0.97305678,0.627358604,0.325255188,0.796507196
902,1778426775840,0.27839024,0.15838323,-0.9973142666666668,0.79061235,0.191200815,0.852309725
903,1778426775850,0.29648072,0.15196009,-1.0291454,0.8544478,0.12385293,0.8756753
904,1778426775860,0.3158212766666666,0.136755955,-1.0713735333333334,0.8896997766666667,0.0090357158333333,0.90339333
905,1778426775870,0.3241652433333333,0.1148237766666666,-1.1000439,0.8914814550000001,-0.1042543308333333,0.9509899616666668
906,1778426775880,0.331086385,0.11052474,-1.10021665,0.85902923,-0.14905111,0.99387777
907,1778426775890,0.33926776,0.1004123633333333,-1.0733959333333332,0.7603999716666667,-0.1914044416666666,1.069268695
908,1778426775900,0.34166628,0.09683492,-1.0632937,0.7162395,-0.19792034,1.0955868
909,1778426775910,0.3489431316666667,0.1008798683333333,-1.01926675,0.6776531666666666,-0.1983530383333333,1.1025354
910,1778426775920,0.35398406,0.1104332699999999,-0.9941434,0.6808093,-0.23472497,1.093296
911,1778426775930,0.3638017199999999,0.11573846,-0.9873137,0.7175885083333333,-0.3010293033333333,1.0638981666666667
912,1778426775940,0.3567542628571428,0.1320111871428571,-1.0125677714285717,0.7888451585714286,-0.5304492142857143,0.9514444428571428
913,1778426775950,0.35288644,0.14165461,-1.0168276,0.79381937,-0.6075055,0.9195049
914,1778426775960,0.3504675966666666,0.1544805666666666,-1.0417885,0.7894415133333333,-0.6630942333333333,0.8976664666666666
915,1778426775970,0.3509554399999999,0.1551106833333333,-1.0575820333333332,0.761316275,-0.8147924333333334,0.8272387999999999
916,1778426775980,0.33035463,0.150618555,-1.0632327,0.569555475,-1.04213615,0.62514422
917,1778426775990,0.3120304,0.14738666,-1.0607935,0.4746423,-1.0668762,0.55680364
918,1778426776000,0.25971028,0.1314101,-1.0045708,0.17211129,-1.0855075,0.49220467
919,1778426776010,0.22989147,0.122324213,-0.935755845,-0.0447967866666666,-1.0905471999999998,0.51933728
920,1778426776020,0.2202974166666667,0.1200070053333333,-0.8846654666666667,-0.1275181233333333,-1.1170689333333332,0.5487606366666666
921,1778426776030,0.235074695,0.1063781605,-0.80757762,-0.206701525,-1.2269992,0.6138432349999999
922,1778426776040,0.253419255,0.0927391508333333,-0.7653597066666666,-0.2125811,-1.2912164,0.6421721
923,1778426776050,0.2833803483333333,0.0903609666666666,-0.7274306500000001,-0.07360926,-1.5632042000000002,0.65148777
924,1778426776060,0.292065832,0.085895256,-0.74199448,0.0230907056,-1.7073072799999998,0.621555386
925,1778426776070,0.29952967,0.07378479,-0.7582759,0.08597928,-1.82195645,0.5985461416666666
926,1778426776080,0.2796606116666666,0.0277861736666666,-0.7669247833333334,0.08597928,-1.8290832,0.5934556
927,1778426776090,0.2388554,-0.029026084,-0.772606,-0.09666943,-1.5654949,0.70646566
928,1778426776100,0.2402317871428571,-0.023790587,-0.7119579371428572,-0.2767874085714286,-1.2991576714285713,0.9161015028571428
929,1778426776110,0.275711206,-0.0092322461999999,-0.6498306119999999,-0.313251692,-1.22377694,1.09659472
930,1778426776120,0.33483663,0.011647021,-0.62851226,-0.28863382,-1.2521211,1.1226176
931,1778426776130,0.4176869666666666,0.0112811456,-0.6243453466666667,-0.050778175,-1.51380045,1.03030055
932,1778426776140,0.46999084,0.0153789455999999,-0.664233888,0.084818636,-1.65193236,0.8915578
933,1778426776150,0.4774871933333333,0.0002845696666666,-0.7105902266666666,0.1339322,-1.7073684,0.7875580000000001
934,1778426776160,0.4659853657142857,-0.0439746914285714,-0.74362352,0.03920446,-1.558622657142857,0.6558292857142857
935,1778426776170,0.44831884,-0.079516836,-0.7544952,-0.09132435,-1.3428344999999997,0.5983425
936,1778426776180,0.4345477266666667,-0.0828503593333333,-0.7063928166666668,-0.3301472116666666,-0.9747881833333332,0.6631705866666667
937,1778426776190,0.443166105,-0.062442667,-0.64637915,-0.522900665,-0.642477525,0.72784595
938,1778426776200,0.45588025,-0.05939371,-0.6278415,-0.5329581314285715,-0.5638286428571428,0.7310093599999999
939,1778426776210,0.639793395,-0.0412219165,-0.5749420799999999,-0.443869965,-0.500527715,0.64301205
940,1778426776220,0.69839436,-0.03207504,-0.57668,-0.39568797,-0.48533243,0.57879484
941,1778426776230,0.7609241971428571,-0.0267001648571428,-0.6710060571428571,-0.3401646842857143,-0.4602433228571428,0.4345869971428571
942,1778426776240,0.79376584,-0.046039272,-0.7662642,-0.34590244,-0.345597,0.08078693
943,1778426776250,0.7914384666666666,-0.0504907516666666,-0.7727381583333334,-0.34590244,-0.345597,0.08078693
944,1778426776260,0.691127725,-0.0809295166666666,-0.8888526583333333,-0.7942266533333333,0.1744783933333333,0.0108174066666666
945,1778426776270,0.6354639,-0.079211935,-0.9012111,-1.1592696,0.4688390800000001,0.092240654
946,1778426776280,0.65879859,-0.081834045,-0.8582817833333333,-1.3631458,0.53145277,0.2078978013333333
947,1778426776290,0.7036691083333334,-0.0707663308333333,-0.8066628800000001,-1.5140549166666666,0.5187264233333333,0.2958623933333333
948,1778426776300,0.77553305,-0.0402462505,-0.7714779350000001,-1.4131604,0.29924762,0.21281018
949,1778426776310,0.8012053,-0.032440916,-0.76297134,-1.3235923,0.1441642,0.1386664
950,1778426776320,0.8012053,-0.032440916,-0.76297134,-1.3235923,0.1441642,0.1386664
951,1778426776330,0.7340976966666667,-0.0661725606666666,-0.83137981,-1.1124874666666666,-0.2338086753333333,0.0442368236666666
952,1778426776340,0.6710350799999999,-0.090330474,-0.8891169266666666,-0.9083566,-0.6412558,0.045356743
953,1778426776350,0.688345032,-0.073126216,-0.892491108,-0.8645576,-0.72066828,0.1475239639999999
954,1778426776360,0.7448808333333333,-0.0693739666666666,-0.9302169066666668,-0.8423322666666667,-0.75721836,0.2294308066666666
955,1778426776370,0.7783381,-0.06713806,-0.95883644,-0.8660542000000001,-0.7276932,0.25213462
956,1778426776380,0.81258805,-0.0590075058333333,-0.98810644,-0.9691377,-0.6102544,0.24449882
957,1778426776390,0.8201291466666666,-0.0515680496666666,-1.0213604133333334,-1.1654291,-0.3936008366666666,0.1755219466666666
958,1778426776400,0.7806553,-0.037075333,-1.0570738,-1.4873996125,-0.149032031125,0.1337603975
959,1778426776410,0.7733784333333333,-0.021667931,-1.0299178,-1.7552703666666665,0.004276056,0.1881464966666667
960,1778426776420,0.76974,-0.01396423,-1.0163398,-1.8849775,0.070554934,0.23945917
961,1778426776430,0.8305260583333333,0.0252657026666666,-0.9735832,-1.9423223833333332,0.0592793776666666,0.23276511
962,1778426776440,0.8816672483333333,0.064871675,-0.9440286333333332,-1.9254472,0.007788532,0.16508633
963,1778426776450,0.8840454499999999,0.0597799096666666,-0.94339855,-1.81908035,-0.131565105,0.0016035214999999
964,1778426776460,0.8332905166666666,0.0552267983333333,-0.9416809583333332,-1.770898366666667,-0.1735366366666666,-0.042302417
965,1778426776470,0.8135230999999999,0.0746385,-0.92724925,-1.7553213,-0.17516561,-0.037415497
966,1778426776480,0.8135230999999999,0.0746385,-0.92724925,-1.7365881,-0.1308778766666666,0.0080939643333333
967,1778426776490,0.7479182271428572,0.1158604185714285,-0.8935800114285714,-1.722858142857143,-0.0176496414285714,0.0793906657142857
968,1778426776500,0.74272627,0.13781293,-0.8829173999999999,-1.694031133333333,0.0927497066666666,0.1154026266666666
969,1778426776510,0.7529300866666667,0.20139387,-0.8381993200000001,-1.6207782000000002,0.15118915,0.1098539333333333
970,1778426776520,0.7747606666666668,0.2340787033333333,-0.8029939866666668,-1.4633785999999998,0.13887003,0.0445931626666666
971,1778426776530,0.7784600666666667,0.2446280933333333,-0.79201775,-1.33680225,0.12774719,-0.025121835
972,1778426776540,0.7791918,0.25178298,-0.78327745,-1.2505939,0.12156218,-0.074067414
973,1778426776550,0.7750103714285714,0.2520965914285714,-0.7843925071428571,-1.1396564,0.1135991185714285,-0.1300270325714285
974,1778426776560,0.7504248775,0.24597472125,-0.786486475,-1.0049115375,0.1030262409999999,-0.184023155
975,1778426776570,1.4379497457142858,0.0472762785714285,-1.0678410285714286,-0.7675085285714286,0.0547160728571428,-0.3876376228571428
976,1778426776580,1.5420919600000005,0.2487441916666667,-1.57575236,-1.3620004,1.0656799173333331,-2.2431480633333334
977,1778426776590,0.1833948516666666,0.6512067033333333,-0.9728107833333334,-1.7330247000000003,2.0711386,-2.8470902
978,1778426776600,0.07957781,0.31404272,-0.8929789,-1.7634152,0.8886562000000001,-1.8975002000000003
979,1778426776610,0.3335037728571429,0.24755801,-1.1366167714285715,-1.6913768,0.4986187457142857,-1.390612957142857
980,1778426776620,0.2965620166666666,0.4103491433333333,-1.1030318666666667,-1.8328503,-0.1023708333333333,-0.7914268533333333
981,1778426776630,0.286846,0.45502654,-1.10665,-1.8814649999999995,-0.26740626,-0.63117653
982,1778426776640,0.023903834,0.47069818,-0.9342618,-2.150704,-0.52290064,0.1386664
983,1778426776650,0.28017894,0.36630186,-0.6729660933333333,-2.016059016666667,-0.5584071866666667,0.6231589000000001
984,1778426776660,0.8473055,0.281784735,-0.49228482,-1.5333226,-0.46425759,1.2668327333333331
985,1778426776670,0.9696297,0.28196767,-0.491736,-1.3962852,-0.28985557,1.0690142
986,1778426776680,1.1312652333333333,0.3105973916666666,-0.5222662299999999,-1.1661926666666669,0.5665775466666667,0.0076867233333333
987,1778426776690,1.0129249,0.3586185,-0.51179814,-1.0908526,1.0311406,-0.42653665
988,1778426776700,0.6908024833333334,0.3872278833333333,-0.4687570233333333,-0.75151696,1.3374385666666668,-0.5396994333333333
989,1778426776710,0.3446746,0.3653261866666666,-0.4399037266666667,-0.4047491366666667,1.2249375,-0.3358231666666667
990,1778426776720,0.292761,0.3691069,-0.43868414,-0.21639901,1.1119275,-0.1742493
991,1778426776730,0.4147091633333333,0.4009481966666666,-0.4842050933333333,0.1079704349999999,0.888045365,0.14408785
992,1778426776740,0.6056451,0.4145363999999999,-0.5100907,0.73914695,0.52641314,0.66553766
993,1778426776750,0.8558019666666667,0.4206038266666667,-0.5515057683333334,1.2040153666666666,0.45270206,0.6158030999999999
994,1778426776760,0.9659303333333332,0.4274639733333333,-0.5775743466666666,1.5492561,0.3874413,0.4316272133333332
995,1778426776770,0.97463004,0.4306836719999999,-0.60468162,2.05546986,0.2141388199999999,0.128159529
996,1778426776780,0.9047682333333332,0.4043528566666666,-0.6932112166666666,2.3518312,0.1143845199999999,-0.009672032
997,1778426776790,0.8362682999999999,0.38154665,-0.76041025,2.559831,0.06612616,-0.067500606
998,1778426776800,0.7860911971428571,0.3440531671428571,-0.894477292857143,2.644697571428571,0.1584104457142857,-0.0347320528571428
999,1778426776810,0.7732159,0.32818988,-0.9492627,2.5897378,0.318948,0.0391971866666666
1000,1778426776820,0.7886740750000001,0.305276945,-1.00944915,2.4651468,0.4476115,0.09392053
