id,timestamp,acc_x,acc_y,acc_z,gyro_x,gyro_y,gyro_z
0,1778426743040,0.0474052056,0.6265609400000001,0.8467445379999999,-0.100945486,0.295170086,-0.166949472
1,1778426743050,0.022806209,0.59701655,0.8876432200000001,-0.0303141898499999,0.36247216,-0.1243874349999999
2,1778426743060,0.012256813,0.591254,0.8832831999999999,0.0070249503,0.40424007,-0.09636399
3,1778426743070,-0.0544239085,0.60477106,0.8327925,0.0611883333333333,0.3673845333333334,0.0369064433333333
4,1778426743080,-0.0766421,0.6214125642857143,0.8314770142857143,0.1089521771428571,0.2671881,0.1625119728571428
5,1778426743090,-0.0799131975,0.626347525,0.8831917749999999,0.3097086699999999,0.095371335,0.28512135
6,1778426743100,-0.1236352625,0.637842125,0.907705425,0.6331618099999999,-0.1743256749999999,0.40553817
7,1778426743110,-0.1659330214285714,0.6574512557142856,0.8821681785714286,0.9190903714285712,-0.4355251114285714,0.5118614571428571
8,1778426743120,-0.20272524,0.6665632650000001,0.8084008100000001,1.11627985,-0.630438395,0.6003023833333333
9,1778426743130,-0.2239677742857143,0.6603433985714285,0.7459842971428572,1.3365076714285713,-0.91018925,0.7281295285714285
10,1778426743140,-0.216811425,0.6518063150000001,0.638025025,1.4124731,-1.07748995,0.9120218
11,1778426743150,-0.2294645966666666,0.6743685933333333,0.53303925,1.4145602666666666,-1.3731741333333334,1.092227
12,1778426743160,-0.27117434,0.69266232,0.504511145,1.4243341,-1.7506379666666667,1.2281954666666668
13,1778426743170,-0.29975324,0.688332795,0.4967464333333333,1.5321009,-2.2228878,1.4768176333333332
14,1778426743180,-0.2918985657142857,0.6408475028571429,0.5232186657142858,1.6179420285714288,-2.4440719428571427,1.6231780285714286
15,1778426743190,-0.2353795866666666,0.6278415116666667,0.57243181,2.2874358000000004,-3.0267355333333334,2.2864176666666665
16,1778426743200,-0.137386065,0.630616085,0.56314263,2.644333766666667,-3.2410983333333334,2.5504641666666665
17,1778426743210,-0.079516834,0.5989374,0.49929745,3.1601076666666668,-3.537520666666667,2.7877853666666668
18,1778426743220,-0.043691574,0.5582338,0.444263735,3.747123783333333,-3.8952841666666664,2.9944614499999997
19,1778426743230,-0.0248882132857142,0.5471834857142858,0.4304519371428572,4.201247528571429,-4.288143171428572,3.175015857142857
20,1778426743240,0.0623816891666666,0.5440256166666667,0.3937018283333333,4.4615563499999995,-4.4583491833333335,3.3863824166666667
21,1778426743250,0.1625094833333333,0.47838156,0.2197079366666666,4.45539675,-4.4716864166666666,3.438178666666667
22,1778426743260,0.17759166,0.4086823766666667,0.0536210133333333,4.175722066666666,-4.4222572,3.6728781
23,1778426743270,0.3411987533333334,0.3148557566666666,-0.0905540633333333,3.633121000000001,-4.64944815,3.9939133
24,1778426743280,0.5948692,0.3544544885714286,-0.1086126057142857,3.2977560285714285,-4.919952285714286,4.092055314285714
25,1778426743290,0.5572479533333333,0.6497737,-0.1096811933333333,3.2219070000000003,-4.647920766666666,3.9910370666666672
26,1778426743300,0.534665325,0.7327155333333333,-0.1110024116666666,3.232699,-4.2071815,3.8382192
27,1778426743310,0.52196135,0.7281726000000001,-0.1238080366666666,3.1904983333333328,-3.6939530833333336,3.8051560833333338
28,1778426743320,0.6694292857142857,0.5567049657142857,-0.1262181657142857,3.152457428571428,-3.506192,3.8433023857142854
29,1778426743330,0.8535864,0.44575772,-0.13945936,3.1059444,-3.340822,3.8734965
30,1778426743340,0.9272318,0.4557495942857143,-0.1178117514285714,2.951962714285714,-3.0498320571428574,3.8165551285714288
31,1778426743350,1.03735725,0.4691127466666667,-0.0863566583333333,2.7010934,-2.5893052,3.6992471
32,1778426743360,1.165007,0.44502598,-0.08122425,2.3229678,-1.8451185,3.4649803999999995
33,1778426743370,1.2202948333333332,0.4219555266666666,-0.12781233,1.9047288333333336,-1.1113930166666666,3.298799666666666
34,1778426743380,1.2489753666666663,0.4412351233333333,-0.15079131,1.4020630333333333,-0.3301726556666667,3.1241685833333332
35,1778426743390,1.2117344857142858,0.4614380685714286,-0.19969806,0.9315913428571428,0.1399099568571428,2.862929142857143
36,1778426743400,1.1925696,0.46551496,-0.21647604,0.7853691166666666,0.1350775765,2.7664305499999995
37,1778426743410,1.0940577833333334,0.47596272,-0.1873280066666666,0.6938920333333334,-0.2011782839999999,2.6688192666666666
38,1778426743420,1.1121555857142855,0.4746444314285714,-0.1374296228571428,0.7532404971428571,-0.8002989257142856,2.549576985714286
39,1778426743430,1.1497623,0.4749058,-0.11903133,0.82924956,-1.0923798,2.4672847
40,1778426743440,1.2487009166666667,0.4041496,-0.1438600183333333,0.8253807533333334,-1.0615056366666666,2.242079016666666
41,1778426743450,1.2662237571428572,0.3411871585714285,-0.1457663442857142,0.7115053014285715,-0.8413359742857143,1.7260433285714287
42,1778426743460,1.2378858857142856,0.3297230757142858,-0.1281869257142857,0.63453628,-0.7056584428571427,1.5393585714285716
43,1778426743470,1.1521099,0.32044554,-0.092657848,0.5995133533333333,-0.60312762,1.3581061666666667
44,1778426743480,1.12409,0.32099435,-0.085614756,0.6073528,-0.58459806,1.2545645
45,1778426743490,1.1034005714285715,0.3076224928571429,-0.0921482374285714,0.6694210857142858,-0.68375456,1.1516991428571426
46,1778426743500,1.0899315333333333,0.2628303883333333,-0.1141021783333333,0.8130616183333333,-0.8625417416666666,0.94386315
47,1778426743510,1.08003245,0.19988972,-0.139337395,0.8353327500000001,-0.8457174666666667,0.7914013733333333
48,1778426743520,1.0503052,0.158698285,-0.141929015,0.7454592333333334,-0.7154250333333333,0.6892596266666667
49,1778426743530,1.0277778285714283,0.1640252485714285,-0.1326296942857142,0.6353435142857142,-0.56094885,0.6154249085714285
50,1778426743540,1.0074369,0.18305947,-0.13384928,0.5109888,-0.41722095,0.56581396
51,1778426743550,1.0074369,0.18305947,-0.13384928,0.5109888,-0.41722095,0.56581396
52,1778426743560,1.0074369,0.18305947,-0.13384928,0.42638394,-0.3388775,0.54000485
53,1778426743570,1.0074369,0.18305947,-0.13384928,0.42638394,-0.3388775,0.54000485
54,1778426743580,0.97676426,0.184401,-0.12269009,0.42638394,-0.3388775,0.54000485
55,1778426743590,0.97676426,0.184401,-0.12269009,0.42638394,-0.3388775,0.54000485
56,1778426743600,0.97676426,0.184401,-0.12269009,0.42638394,-0.3388775,0.54000485
57,1778426743610,0.97676426,0.184401,-0.12269009,0.4112650266666667,-0.32869641,0.5338453
58,1778426743620,0.9768165428571428,0.1887218114285714,-0.1172890757142857,0.3810272,-0.30833423,0.5215262
59,1778426743630,0.97694725,0.19952384,-0.10378654,0.3810272,-0.30833423,0.5215262
60,1778426743640,0.97694725,0.19952384,-0.10378654,0.3810271999999999,-0.30833423,0.5215262
61,1778426743650,0.97694725,0.19952384,-0.10378654,0.3810271999999999,-0.30833423,0.5215262
62,1778426743660,0.97694725,0.19952384,-0.10378654,0.3810271999999999,-0.30833423,0.5215262
63,1778426743670,1.0017048,0.1905599,-0.07341892,0.3729550514285714,-0.3073306671428572,0.51314862
64,1778426743680,1.0017048,0.1905599,-0.07341892,0.3740277133333333,-0.3120757933333333,0.4555527533333333
65,1778426743690,1.0017048,0.1905599,-0.07341892,0.37827832,-0.3135266,0.44822237
66,1778426743700,1.0017048,0.1905599,-0.07341892,0.37827832,-0.3135266,0.44822237
67,1778426743710,1.0054753333333333,0.1867791916666666,-0.0705427355,0.37827832,-0.3135266,0.44822237
68,1778426743720,1.024328,0.1678756499999999,-0.056161813,0.37827832,-0.3135266,0.44822237
69,1778426743730,1.024328,0.1678756499999999,-0.056161813,2.083356,0.29153544,-1.5396858
70,1778426743740,1.024328,0.16787565,-0.056161813,2.083356,0.29153544,-1.5396857999999998
71,1778426743750,0.6613596866666666,0.3710175766666666,-0.102058802,2.083356,0.29153544,-1.5396858
72,1778426743760,0.7011384742857143,0.3510396471428571,-0.2794065508571428,1.8594738285714285,0.0538215942857143,-0.9315258571428572
73,1778426743770,0.8127100399999999,0.0241477515,-0.1654771356666666,1.0654253166666667,-0.119016915,0.037186422
74,1778426743780,0.9554389814285714,-0.0974185748571428,-0.1890267068571428,0.6131778114285714,-0.3599741742857142,0.4732678442857142
75,1778426743790,1.0002717583333334,-0.0504196088333333,-0.10828884,0.2962696449999999,0.0515926616666666,0.5181664333333333
76,1778426743800,1.1687268,0.009695687,-0.06555261,0.26267207,0.06291912,0.5731443
77,1778426743810,1.1724464571428572,0.0132586129371428,-0.0427289741428571,0.3320052642857143,-0.1157371442857142,0.4986842014285714
78,1778426743820,1.2452454166666664,0.0755226983333333,-0.0167591078333333,0.5002986366666667,-0.4329507333333333,0.3250821133333333
79,1778426743830,1.2848615,0.0646379185,-0.0683576435,0.593531935,-0.550084145,0.1010981999999999
80,1778426743840,1.3146672285714287,0.0543324384285714,-0.1241448685714285,0.5437791385714286,-0.5088725542857143,-0.1720458271428571
81,1778426743850,1.2920876,0.018476687,-0.19287711,0.4305072699999999,-0.39385536,-0.32528573
82,1778426743860,1.2396716714285714,0.0191910148571428,-0.2111447157142857,0.1870556671428571,-0.1962840957142857,-0.4469351971428571
83,1778426743870,1.1610433,0.02128173,-0.20367043,-0.24190263,0.10399981,-0.5635232
84,1778426743880,1.1239419142857143,0.0295748957142857,-0.1430135714285714,-0.4209079785714286,0.13288501,-0.5716171514285715
85,1778426743890,1.1042107,0.03963646,-0.093664,-0.457079915,-0.0009163,-0.536874215
86,1778426743900,1.0909477833333332,0.0508159716666666,-0.0596172975,-0.42256603,-0.09086621,-0.5128214
87,1778426743910,1.1239070857142857,0.097496982,-0.0072478095714285,-0.1647808985714285,-0.7089745642857143,-0.3773401828571429
88,1778426743920,1.1455547,0.11549455,0.006768687,-0.07376198,-0.93691456,-0.33567044
89,1778426743930,1.1828216428571428,0.1226552414285714,0.0142429907142857,-0.0081812312,-1.16795248,-0.3371103542857143
90,1778426743940,1.2466319285714285,0.0466403502857142,-0.0047041068571428,-0.0715148652571428,-1.3509720714285716,-0.4573635257142858
91,1778426743950,1.19293545,0.016616822,-0.025855166,-0.256334335,-1.08275862,-0.55939983
92,1778426743960,1.1612263,0.04890529,-0.0302659933333333,-0.4056909,-0.69361205,-0.6201300233333334
93,1778426743970,1.0983771,0.1346216733333333,-0.0199198626666666,-0.538935885,-0.0591775699999999,-0.79213952
94,1778426743980,1.0419511,0.17458336,-0.007927292,-0.54733527,0.07727446,-0.8445212
95,1778426743990,0.9730446066666666,0.19913764,0.033132016,-0.381638045,-0.0306450733333333,-0.7801257833333333
96,1778426744000,0.971337155,0.2536936666666666,0.0522083341666666,-0.1690060366666666,-0.3061453033333333,-0.7489971350000001
97,1778426744010,1.02704155,0.1547447966666666,-0.0595461558333333,0.23429228,-1.082835,-0.7261406333333333
98,1778426744020,1.0842909666666667,0.1322739733333333,-0.0734697383333333,0.3874921783333333,-1.5381331833333334,-0.6866125666666667
99,1778426744030,1.1347206666666667,0.1603040666666666,-0.07351039,0.4372267933333333,-1.7044667666666669,-0.6632978333333334
100,1778426744040,1.156165,0.18891345,-0.09531044,0.43386704,-1.6800321,-0.6747007
101,1778426744050,1.1094245,0.3105465916666666,-0.1216636066666666,0.4180608999999999,-1.495474483333333,-0.7213554966666665
102,1778426744060,1.0262489,0.39441326,-0.1486977,0.384005175,-1.16026215,-0.8529206
103,1778426744070,1.0002413,0.39880377,-0.15555786,0.37583485,-1.1045971,-0.8891144
104,1778426744080,0.9501251471428572,0.3458564242857143,-0.1520297799999999,0.3674790771428571,-0.9861328571428573,-0.8952666714285714
105,1778426744090,0.8985382333333334,0.2867951866666667,-0.1568485866666666,0.3675372466666666,-0.8902088166666667,-0.8835147883333333
106,1778426744100,0.8785674833333333,0.2525757066666667,-0.17603669,0.3962988299999999,-0.9636399,-0.84559023
107,1778426744110,0.8653554,0.19860914,-0.20769504,0.4698571883333333,-1.3278683166666667,-0.7416158383333333
108,1778426744120,0.8653554,0.19860914,-0.20769504,0.48456886,-1.400714,-0.7208209599999998
109,1778426744130,0.9066469714285714,0.21578786,-0.1804983428571428,0.6682647514285714,-2.1096231714285714,-0.3433935257142857
110,1778426744140,0.9518644833333332,0.2615193366666666,-0.1748069466666666,0.7680866666666666,-2.292348233333333,-0.2293798966666666
111,1778426744150,0.9720079142857144,0.30730888,-0.1966578142857143,0.9513789428571428,-2.2799672285714285,-0.2185152257142857
112,1778426744160,0.971032275,0.31971377,-0.22763524,1.0798569999999998,-2.1939225,-0.302607375
113,1778426744170,0.96712965,0.31946984,-0.25153908,1.1273518,-2.155438,-0.35231653
114,1778426744180,0.9282684214285716,0.2632557757142857,-0.3431123528571428,1.1689342571428571,-1.978897942857143,-0.4813836357142857
115,1778426744190,0.91685225,0.2072377033333333,-0.40475938,1.1577932333333332,-1.8677713833333336,-0.5628105
116,1778426744200,0.8805827571428572,0.1471078911428571,-0.4858907028571428,1.0737483857142858,-1.666396742857143,-0.5888959028571428
117,1778426744210,0.83956123,0.121226593,-0.55808132,0.9705630333333334,-1.46908,-0.5909103266666667
118,1778426744220,0.81864536,0.1253122,-0.57643604,0.8795186933333333,-1.31455655,-0.5801183833333333
119,1778426744230,0.79465003,0.13674579,-0.5916503700000001,0.75976366,-1.1502593,-0.5653558
120,1778426744240,0.7706547,0.14817938,-0.6068647,0.75976366,-1.1502593,-0.5653558
121,1778426744250,0.6617357833333334,0.2180818316666666,-0.5819851833333333,0.6250678766666666,-1.0267372,-0.4747441183333333
122,1778426744260,0.58384505,0.260228605,-0.5710699,0.6121379133333332,-1.0969612666666666,-0.30787608
123,1778426744270,0.5620362999999999,0.2701812771428571,-0.56832584,0.6471244514285714,-1.1733412714285714,-0.1935788314285714
124,1778426744280,0.5641691083333333,0.277282425,-0.5711715333333334,0.685696225,-1.20119015,-0.112857355
125,1778426744290,0.5891719857142858,0.2685696857142857,-0.5872816671428571,0.70096785,-1.195616,-0.09086621
126,1778426744300,0.612566245,0.2795285166666666,-0.5936017416666667,0.7157304066666667,-1.0860674566666666,-0.0797433666666666
127,1778426744310,0.64564747,0.2953831,-0.6144871,0.73456544,-0.86361074,-0.09666943
128,1778426744320,0.64564747,0.2953831,-0.6144871,0.73456544,-0.86361074,-0.09666943
129,1778426744330,0.6226844385714285,0.3205065171428571,-0.66945546,0.7151486628571428,-0.5847943928571429,-0.1938842671428571
130,1778426744340,0.56527686,0.38331506,-0.80687636,0.6693555999999999,0.009315695,-0.41218132
131,1778426744350,0.504053785,0.437769445,-0.8651724199999999,0.5432628333333334,0.1616756708333333,-0.52424964
132,1778426744360,0.48484537,0.46210015,-0.8880396,0.32742378,0.41141775,-0.7078401
133,1778426744370,0.4180470271428572,0.4673791985714285,-0.8994340285714285,0.13552482,0.6631378842857144,-0.8341582714285715
134,1778426744380,0.3529067866666667,0.48801626,-0.8902755600000001,-0.1292489066666666,1.0162252333333333,-0.9864455666666666
135,1778426744390,0.2933911066666666,0.4556363333333333,-0.8877753866666667,-0.23839016,1.2005029,-1.0644327
136,1778426744400,0.2536907785714286,0.4362449828571429,-0.8968293085714285,-0.2848595514285714,1.3180508714285717,-1.1118183857142856
137,1778426744410,0.11238461,0.42856159,-0.92923105,-0.2669226516666667,1.36604745,-1.1724030833333334
138,1778426744420,0.0266478966666666,0.4262443733333333,-0.9582673666666668,-0.25366178,1.3570372,-1.1785117
139,1778426744430,-0.1004239842857143,0.4058512028571429,-1.032185671428571,-0.0930478657142857,0.9376999428571428,-0.9112145714285714
140,1778426744440,-0.13927643,0.39166918,-1.0761603,-0.00992656,0.713796,-0.7293731
141,1778426744450,-0.1899588214285714,0.3762240471428572,-1.1730735857142858,0.0573340642857142,0.2009528434285714,-0.2792308685714286
142,1778426744460,-0.2151345,0.36489934,-1.2325718,0.0627664,0.039095376,-0.12843442
143,1778426744470,-0.207817,0.3536994933333333,-1.2565366666666666,0.0654134833333333,-0.1523090826666666,0.11540262
144,1778426744480,-0.1763720766666666,0.3368489166666666,-1.3054827333333332,0.1160643966666666,-0.6177374999999999,0.7056002666666666
145,1778426744490,-0.14275223,0.34794715,-1.3075154,0.20677789,-0.7829764999999999,0.9106474
146,1778426744500,-0.0987964133333333,0.354807275,-1.3140198166666666,0.3092759883333333,-0.86915943,0.9554187183333333
147,1778426744510,-0.0020645794285714,0.4130728857142857,-1.3711427285714284,0.6176065857142856,-1.0620547285714286,0.97635903
148,1778426744520,0.0340873563333333,0.4418347466666666,-1.4416288666666668,0.7423540000000001,-1.1073459,0.8831584500000002
149,1778426744530,0.042380523,0.4266712399999999,-1.5182594,0.7423540000000001,-1.1073459,0.8831584500000002
150,1778426744540,0.044209898,0.4449141566666667,-1.5643494,0.8225300833333332,-1.1415799,0.2404772866666666
151,1778426744550,-0.0404088598333333,0.3704484399999999,-1.518859,0.604043895,-1.066239816666667,-0.089059062
152,1778426744560,-0.1102416185714285,0.3017946085714285,-1.4349357142857144,0.22250767,-0.8434522,-0.24801129
153,1778426744570,-0.1794616833333333,0.2510105866666667,-1.2116154,-0.0290924558333333,-0.5310200666666667,-0.2290490133333333
154,1778426744580,-0.2212629,0.237818755,-1.0796057,-0.089593568,-0.42964189,-0.1798489086666666
155,1778426744590,-0.24147749,0.23714797,-1.0237793,-0.043676864,-0.44990227,-0.107359566
156,1778426744600,-0.240654285,0.244252045,-0.99335065,0.269111596,-0.7682902866666667,0.1387936756666666
157,1778426744610,-0.232483085,0.256905225,-0.96368427,0.3914119,-0.8935431,0.22266038
158,1778426744620,-0.1828329757142857,0.30681233,-1.0302692028571427,0.6343181285714286,-1.1760683,0.3266820085714285
159,1778426744630,-0.13092228,0.35834408,-1.1265902,0.7606290333333333,-1.4084516,0.38896844
160,1778426744640,-0.11073817,0.3766073299999999,-1.1735442,0.7689266,-1.4553864,0.398895
161,1778426744650,-0.0998664557142857,0.3783844328571429,-1.2033716857142858,0.6876597428571428,-1.449277757142857,0.4102396428571428
162,1778426744660,-0.0873323311666666,0.3712106733333333,-1.2324397833333334,0.32551482,-1.26365115,0.4718933999999999
163,1778426744670,-0.082626775,0.36105764,-1.2309865,0.23976462,-1.2153164,0.49006665
164,1778426744680,-0.0859022285714285,0.3424938457142857,-1.1826996428571428,-0.0625918728571428,-1.0773044571428572,0.5880450885714286
165,1778426744690,-0.09457869,0.33794656,-1.1083573,-0.2657264,-1.00075,0.6719518
166,1778426744700,-0.0774870985714285,0.3296359614285714,-1.0520561714285714,-0.3181735228571428,-1.1187342714285715,0.8104436857142857
167,1778426744710,-0.0547999439999999,0.3168884033333333,-1.0017658333333337,-0.31785354,-1.225192133333333,0.8983282666666668
168,1778426744720,-0.006585751,0.2942041633333334,-0.9575762,-0.215253645,-1.391322,0.9872346
169,1778426744730,0.0227365178571428,0.2927174314285715,-0.9084675985714288,-0.1281289871428571,-1.484860685714286,1.0501646571428571
170,1778426744740,0.0466287366666666,0.2883704766666666,-0.8726322033333332,-0.0504727374999999,-1.52930115,1.14338705
171,1778426744750,0.1327864885714285,0.2531593642857143,-0.8261109714285714,-0.0299760302857142,-1.512611457142857,1.1860166857142858
172,1778426744760,0.1548261,0.24361177,-0.8143158600000001,-0.024740042,-1.4390458,1.218218
173,1778426744770,0.1988327316666666,0.2362739433333333,-0.784314105,-0.040011674,-1.2152655133333334,1.2066115666666668
174,1778426744780,0.3278646416666667,0.2255619383333333,-0.728782385,-0.0445168051666666,-0.937143645,1.1412235833333335
175,1778426744790,0.4137741299999999,0.21931159,-0.7352258300000001,0.0146607644999999,-0.8425358849999999,0.901102585
176,1778426744800,0.4499042899999999,0.218925385,-0.74225875,0.0636827,-0.8350528,0.682870985
177,1778426744810,0.49929744,0.2390993099999999,-0.7594344999999999,0.08979719,-0.850019,0.5710063
178,1778426744820,0.5435581116666667,0.2555128616666666,-0.7915197666666667,0.1224784849999999,-0.9830349000000002,0.31108314
179,1778426744830,0.576649485,0.188212195,-0.8097423999999999,-0.0639881349999999,-1.1126147000000002,-0.0178678092
180,1778426744840,0.60335835,0.138209285,-0.77617335,-0.3325143133333333,-0.8753699200000001,0.0115046266666666
181,1778426744850,0.7106511933333333,0.1153522633333333,-0.6781899666666668,-0.7274896066666666,-0.3625994215333333,0.15317446
182,1778426744860,0.75120234,0.10927467,-0.6436351,-0.99560855,0.0877609695,0.2438625033333333
183,1778426744870,0.8632821,0.10726235,-0.5596668,-1.2066116,0.53801954,0.29871312
184,1778426744880,0.9473012316666668,0.123289715,-0.4798450616666667,-1.2595786666666666,0.9251553966666668,0.3010802166666667
185,1778426744890,1.07277605,0.1867791949999999,-0.44993479,-1.01357815,1.09482325,0.205861595
186,1778426744900,1.1237953,0.2294646166666666,-0.486014105,-0.58055103,0.76258893,0.02206751
187,1778426744910,1.1132662166666667,0.2429410016666666,-0.5685697583333333,-0.37522396,0.52412236,-0.07574729
188,1778426744920,1.0042863,0.1905802333333333,-0.6701610566666667,-0.024663683,0.00954477,-0.14958563
189,1778426744930,0.8669843857142857,0.1284918257142857,-0.7206866357142857,0.0505054652857142,-0.0502654814285714,-0.0910407414285714
190,1778426744940,0.82179594,0.1056057566666666,-0.7334066116666667,-0.0235692175,0.1587231483333333,0.128587135
191,1778426744950,0.8577329699999999,0.1090307533333333,-0.73593726,-0.26822075,0.7404704666666667,0.5073744733333333
192,1778426744960,0.90541863,0.13000758,-0.73053044,-0.32055154,0.85902923,0.57344973
193,1778426744970,1.0314423,0.2082641866666666,-0.7330712466666668,-0.39675698,1.0268645,0.5815437
194,1778426744980,1.0877464499999998,0.23923144,-0.7401041833333334,-0.40464731,1.016123433333333,0.3622430883333333
195,1778426744990,1.0914052,0.24080674,-0.7498608,-0.39777509,0.9811259333333332,0.14497868
196,1778426745000,0.8973388999999999,0.18778536,-0.81294378,-0.40258565,0.8604800499999999,-0.2306270816666666
197,1778426745010,0.8218162,0.14683785,-0.8214504,-0.4240932,0.7058548,-0.38805214
198,1778426745020,0.7791714833333333,0.0859298116666666,-0.7911539033333334,-0.4113922916666666,0.5930992266666667,-0.3184135133333333
199,1778426745030,0.75373302,0.033751968,-0.7186699500000001,-0.3255911733333334,0.6025676533333333,-0.0817032266666666
200,1778426745040,0.81748674,0.082321872,-0.705346,-0.2547308066666667,0.9275480133333334,0.1869756666666666
201,1778426745050,0.884917536,0.14311811,-0.72081036,-0.256868848,1.1363926599999998,0.245995432
202,1778426745060,0.9116996,0.16702195,-0.7313232,-0.2843578,1.2649492,0.21044308
203,1778426745070,0.9160696916666669,0.1987311016666666,-0.7570258916666667,-0.3020474,1.2523500333333333,0.0740165075
204,1778426745080,0.85389131,0.1947268066666666,-0.7788868999999999,-0.29881491,1.0752246,-0.2111557566666666
205,1778426745090,0.802912718,0.1639363959999999,-0.758178424,-0.26108381,0.83303692,-0.25961773
206,1778426745100,0.7886029,0.1272635266666666,-0.6671730866666667,-0.1650099699999999,0.5601634249999999,-0.192727985
207,1778426745110,0.8024858,0.12098267,-0.6436961,-0.11575896,0.50701815,-0.14187345
208,1778426745120,0.8729864442857143,0.1351211214285714,-0.5736048957142856,0.1435751542857142,0.6237588571428573,-0.0253727245714285
209,1778426745130,0.90302826,0.1637778459999999,-0.5553129,0.301339832,0.7901541599999999,0.0213802838
210,1778426745140,0.8895118200000001,0.2003339928571428,-0.6263083457142857,0.35639624,0.9573785571428572,-0.013569934
211,1778426745150,0.8499642399999999,0.219927476,-0.716358892,0.3160005899999999,1.03007156,-0.1672243636
212,1778426745160,0.7431835833333333,0.2243322083333333,-0.7919466166666668,0.2595159116666667,0.9823476833333332,-0.2340377516666666
213,1778426745170,0.6801820133333333,0.2035281433333333,-0.78671259,0.16411913,0.8287404833333333,-0.2357430783333333
214,1778426745180,0.6726960571428571,0.18265003,-0.7321681385714286,0.0955131437142857,0.5885904714285715,-0.1769982057142857
215,1778426745190,0.6861986,0.17629078,-0.68473506,0.1633555506666666,0.3634139066666666,-0.0947859253333333
216,1778426745200,0.8014695499999999,0.17687008,-0.59097961,0.33628133,0.202425475,-0.0104610672
217,1778426745210,0.8778387085714285,0.1849149728571428,-0.5487515500000001,0.3952734571428571,0.2366230257142857,0.0045596729428571
218,1778426745220,0.897806405,0.214240145,-0.6160115749999999,0.44409904,0.419359,-0.007483099
219,1778426745230,0.8792586300000002,0.22653762,-0.6669291999999999,0.36758816,0.6151413,-0.07895433
220,1778426745240,0.8211629014285714,0.2410680814285714,-0.72039916,0.2508256285714286,0.7098690428571428,-0.1190096385714285
221,1778426745250,0.76696548,0.2483376699999999,-0.72985965,0.069867715,0.69516465,-0.13584116
222,1778426745260,0.7469948,0.24830718,-0.7144929000000001,0.0122173043333333,0.58469988,-0.12140947
223,1778426745270,0.73161786,0.2317919866666666,-0.6702423566666668,0.0060577473333333,0.42546764,-0.0961094666666666
224,1778426745280,0.71319205,0.2061909066666666,-0.6431066233333333,0.0377972866666666,0.3254893566666667,-0.0674751586666666
225,1778426745290,0.7097365,0.19074284,-0.63650054,0.08093964,0.27458394,-0.027641652
226,1778426745300,0.7186293066666667,0.1858543416666666,-0.6393868916666666,0.1269836116666666,0.2712496266666667,0.0411824976666666
227,1778426745310,0.7451305914285714,0.1868053314285714,-0.6530433457142857,0.1597630857142857,0.2717477657142857,0.1867720557142857
228,1778426745320,0.7602185857142858,0.2021198085714285,-0.6625038428571429,0.1491602057142857,0.2384992399999999,0.2598795342857143
229,1778426745330,0.7704108,0.2086097299999999,-0.6566237,0.14065172,0.17730364,0.30634892
230,1778426745340,0.8084516366666666,0.2054083249999999,-0.6479646316666666,0.1797471,-0.0177150926666666,0.356236245
231,1778426745350,0.82669458,0.18876101,-0.65839204,0.21120666,-0.12629639,0.37323865
232,1778426745360,0.82623725,0.1785673233333333,-0.6684027916666667,0.2359467,-0.1985312099999999,0.36850446
233,1778426745370,0.84108568,0.168119565,-0.661624,0.22831088,-0.284815925,0.4274529549999999
234,1778426745380,0.85517186,0.16336319,-0.6483915,0.22785273,-0.31230485,0.4581489299999999
235,1778426745390,0.93082958,0.1501132871428571,-0.6041467285714285,0.2767437728571428,-0.3016365328571428,0.5245805185714286
236,1778426745400,0.9896918666666666,0.1514925733333333,-0.5924532566666666,0.3130429766666667,-0.2673553466666666,0.5487860333333333
237,1778426745410,1.0613627333333333,0.1673065133333333,-0.6104217900000001,0.351171165,-0.178601725,0.48640145
238,1778426745420,1.0789654,0.1718393,-0.6161335,0.36193767,-0.14202617,0.4343252
239,1778426745430,1.0818619166666668,0.1722559816666666,-0.63950886,0.39838595,-0.1126282823333333,0.3355686383333333
240,1778426745440,1.0778067666666666,0.1447239,-0.6842472533333334,0.4577416933333333,-0.1241074559999999,0.21288654
241,1778426745450,1.0746359,0.13708118,-0.6958943,0.4813618,-0.1414153,0.16157386
242,1778426745460,1.0634854714285715,0.1071578228571428,-0.7301297285714285,0.4889539885714286,-0.1267545342857143,0.1343467205714285
243,1778426745470,0.981398735,0.042075625,-0.7602882750000001,0.508010815,-0.097356645,0.1071304905
244,1778426745480,0.97395927,0.03164819,-0.7560807,0.5213735,-0.07895433,0.100334615
245,1778426745490,0.9628814516666666,-0.009075733,-0.7233755266666667,0.5643885833333334,-0.1094975966666666,0.1329140941666666
246,1778426745500,0.9541410666666666,-0.0462425356666666,-0.6804868716666667,0.6931793116666668,-0.1433751616666666,0.1939242716666666
247,1778426745510,0.95325685,-0.054820272,-0.6473243649999999,1.02849349,-0.3030909733333333,0.3659082866666667
248,1778426745520,0.9811635285714286,-0.0397932625714285,-0.6235904285714285,1.2254611571428573,-0.4253149285714285,0.4561199785714285
249,1778426745530,0.9956678,-0.031770147,-0.6165604,1.4489723,-0.57726765,0.5377141
250,1778426745540,1.0470833833333333,-0.0471673871666666,-0.6285631333333334,1.7927367666666667,-0.7836637416666666,0.59391372
251,1778426745550,1.0980721833333331,-0.0530417141666666,-0.6623354,1.9682333,-0.8707375,0.604094805
252,1778426745560,1.1118941,-0.05116152,-0.6851009,2.0920171285714284,-0.9258317142857144,0.5116214728571429
253,1778426745570,1.1145873666666668,-0.0502366695,-0.6968902166666666,2.1067215666666668,-0.9514989666666668,0.4361068833333333
254,1778426745580,1.1254824166666666,-0.04342733,-0.7817936,1.9371046000000005,-0.9510154,0.25081109
255,1778426745590,1.1119348999999998,-0.0344532293333333,-0.9201756666666666,1.6571755666666668,-0.9156360833333332,0.0818050343333333
256,1778426745600,1.1105527,-0.038355898,-0.9373718,1.4520267,-0.88499105,-0.020005837
257,1778426745610,1.0748493666666668,-0.0453380113333333,-0.8986601816666666,0.9762135766666667,-0.7156795833333334,-0.226681914
258,1778426745620,1.054411166666667,-0.049698024,-0.8542368133333333,0.57563867,-0.5620978600000001,-0.3799072766666667
259,1778426745630,1.0342169166666666,-0.0463035176666666,-0.7963980616666667,0.3220787033333334,-0.4600833333333333,-0.4546619149999999
260,1778426745640,1.0249292071428573,-0.0398977994285714,-0.7439893685714286,0.1045234095714285,-0.3592542185714285,-0.5335471485714286
261,1778426745650,0.9808498666666666,-0.0211394456666666,-0.6789013966666667,-0.063784512,-0.2539163299999999,-0.61967189
262,1778426745660,0.9404512,-0.002439167,-0.626347535,-0.10797043,-0.21471913,-0.65316767
263,1778426745670,0.9044023666666666,0.0131105206666666,-0.59324601,-0.1643227533333333,-0.1477275816666666,-0.7892124616666667
264,1778426745680,0.8622279971428571,0.0272576877142857,-0.5715315928571428,-0.18463401,-0.17379116,-0.9257663
265,1778426745690,0.8162061899999999,0.018751094,-0.5528981249999999,-0.126449102,-0.292909875,-1.02449735
266,1778426745700,0.79736364,0.012378771,-0.54820275,-0.103847094,-0.3100141,-1.03786
267,1778426745710,0.77525864,-0.0006707709333333,-0.5535485383333333,-0.0584903476666666,-0.3027346366666666,-1.0403544333333332
268,1778426745720,0.74516545,0.0107018435,-0.55384328,-0.0477493008333333,-0.2638174333333333,-1.0315477
269,1778426745730,0.7269413857142857,0.0356031208571428,-0.5499275785714286,-0.0784089157142857,-0.1905026885714285,-1.040587142857143
270,1778426745740,0.7033337533333334,0.0582351033333333,-0.54523508,-0.1054760666666666,-0.129198,-1.0608184
271,1778426745750,0.68308866,0.07701669,-0.5434463,-0.111635625,-0.10797043,-1.0677924
272,1778426745760,0.6738706200000001,0.1018453703333333,-0.5662322066666667,-0.068569625,-0.0670424593333333,-1.1115456666666668
273,1778426745770,0.6640733,0.1187975791666666,-0.5994557083333333,-0.0281252552566666,-0.04120795,-1.1609748666666666
274,1778426745780,0.6369013,0.1224026157142857,-0.6891168714285715,-0.0118900554514285,-0.0329649052857142,-1.2523827857142855
275,1778426745790,0.6168653,0.12226323,-0.7267497,-0.026725354,-0.019089539,-1.2844969
276,1778426745800,0.5989780333333333,0.1213688726666666,-0.7999247,-0.1419752646666666,0.0052432603333333,-1.3407983
277,1778426745810,0.5611128714285714,0.1197108194285714,-0.8696326071428572,-0.3424336,0.041931536,-1.4052518571428572
278,1778426745820,0.4432067666666666,0.12703994,-0.927320365,-0.9972374666666668,0.2000074633333333,-1.523447
279,1778426745830,0.3889861,0.14391084,-0.91487044,-1.4383476714285717,0.1642791171428571,-1.3729196571428572
280,1778426745840,0.3172542866666666,0.2184680333333333,-0.8133807666666666,-1.75196155,0.24472788,-1.2604441000000002
281,1778426745850,0.330751,0.2057437,-0.7456533,-1.9332358,0.3587306,-1.202641
282,1778426745860,0.3624195233333333,0.2175736666666666,-0.6615020333333334,-1.951510866666667,0.3620394566666666,-1.1647673333333337
283,1778426745870,0.43760685,0.2344852166666666,-0.5777674833333334,-1.9168188,0.292222655,-1.0643563
284,1778426745880,0.5087898000000001,0.27137761,-0.5558047666666667,-1.5208508333333333,-0.0041997,-1.20857145
285,1778426745890,0.4778501428571428,0.2550148714285714,-0.5747373285714286,-1.0844385314285714,-0.3344487171428572,-1.5362170285714285
286,1778426745900,0.4267322,0.24159946,-0.5844243,-0.91522884,-0.4578435,-1.6568192
287,1778426745910,0.29695112,0.2354057114285714,-0.5867241171428572,-0.74798267,-0.3614795228571429,-1.5541938857142858
288,1778426745920,0.2241492633333333,0.2341904849999999,-0.5726045566666667,-0.7041749300000001,-0.1324050466,-1.38712225
289,1778426745930,0.2162234214285714,0.2359980942857142,-0.57049498,-0.6747006885714286,0.2396773395999999,-1.146615872857143
290,1778426745940,0.2300439199999999,0.25928342,-0.575155535,-0.6319400949999999,0.6151413149999999,-0.886976335
291,1778426745950,0.23647723,0.2689791,-0.57497257,-0.60994893,0.6728681,-0.8352055000000002
292,1778426745960,0.3036762542857142,0.3041640828571428,-0.5867851171428571,-0.60994893,0.6728681,-0.8352055
293,1778426745970,0.3441359166666666,0.34557911,-0.6104014999999999,-0.450029505,0.66612309,-0.7715482333333333
294,1778426745980,0.3052007285714286,0.4059208914285714,-0.6779664142857144,-0.01647154,0.3237585742857142,-0.9584693571428572
295,1778426745990,0.2246385457142857,0.4471428,-0.7162612942857143,0.1272563228571428,0.1500983228571428,-1.0167633571428571
296,1778426746000,0.1836082742857143,0.4749231771428571,-0.7390762085714285,0.1611811585714286,0.0544760931428571,-0.9815731571428572
297,1778426746010,0.175741955,0.47231414,-0.76760577,0.1403462899999999,-0.1073595694999999,-0.86322895
298,1778426746020,0.20104831,0.4495994,-0.77449644,0.10064005,-0.123242065,-0.8222245999999999
299,1778426746030,0.2443261,0.3801092771428571,-0.7866486899999999,-0.0323322225714285,0.200821948,-0.8421432042857143
300,1778426746040,0.239007845,0.31791489,-0.788521625,-0.145615,0.5301801266666667,-0.8926523083333334
301,1778426746050,0.2143243442857142,0.2958273685714285,-0.7721269357142857,-0.22150411,0.8224209857142857,-0.9264644285714284
302,1778426746060,0.20161746,0.2891022333333333,-0.7468525466666667,-0.1596394566666666,1.0191777666666668,-0.9155852
303,1778426746070,0.20214595,0.29349273,-0.74540937,-0.02107485,1.0994047,-0.8857546
304,1778426746080,0.17333329,0.330720515,-0.840353935,0.2198351266666666,0.9079748166666668,-0.8960884
305,1778426746090,0.1074104471428571,0.3606656485714286,-1.0247462142857142,0.6449209714285714,0.4970697628571429,-0.90632767
306,1778426746100,0.0586009776666666,0.33973528,-1.1421195,0.7092654666666666,0.3268129133333333,-0.8317439433333332
307,1778426746110,0.01294791,0.29822879,-1.2699318333333334,0.6004805533333334,0.3335324333333333,-0.7440847833333333
308,1778426746120,0.0068703191666666,0.2722618133333334,-1.33152075,0.374485855,0.4164828383333334,-0.6105089133333333
309,1778426746130,0.0319269478571428,0.2424967242857143,-1.3585374857142856,-0.0753545842857142,0.5907066657142857,-0.3988513657142857
310,1778426746140,0.09653002,0.2246879066666667,-1.3224755333333336,-0.184939445,0.6397285883333333,-0.351883825
311,1778426746150,0.1343472683333333,0.2215982983333333,-1.2915387333333337,-0.3100395666666667,0.720210125,-0.3169881516666666
312,1778426746160,0.136014025,0.265289865,-1.2859592,-0.31887167,0.7005606166666666,-0.3509166333333333
313,1778426746170,0.12576518,0.2935101514285714,-1.2961645714285714,-0.2609267257142857,0.5275911900000001,-0.4091706342857143
314,1778426746180,0.10000584,0.31437809,-1.3356267,-0.1746056533333333,0.20794871,-0.45840346
315,1778426746190,0.0892735034285714,0.3188687714285714,-1.3584416,-0.1737911657142857,0.0844521171428571,-0.4608760128571428
316,1778426746200,0.0576253126666666,0.3122133233333333,-1.3762185333333334,-0.2448806099999999,-0.063606347,-0.43043092
317,1778426746210,0.0254791308333333,0.2933606116666666,-1.3701511,-0.3104213716666666,-0.0750091643333333,-0.394313515
318,1778426746220,-0.0663627542857142,0.2531506628571429,-1.3338931571428572,-0.5058618885714286,0.0157515994285714,-0.2263037657142857
319,1778426746230,-0.1502003985714285,0.2286718857142857,-1.2264478142857145,-0.6481062142857142,0.1031053285714285,0.048062
320,1778426746240,-0.1702189885714285,0.2190633099999999,-1.1735614857142858,-0.69067042,0.1298524971428571,0.20363629
321,1778426746250,-0.1770834999999999,0.2306841966666667,-1.0711396666666666,-0.6511314433333334,0.0954731499999999,0.4125376683333333
322,1778426746260,-0.1700099149999999,0.26541183,-1.0419815,-0.39701151,-0.1232929666666666,0.7358381166666667
323,1778426746270,-0.16287535,0.29294392,-1.0397558,-0.20693061,-0.2968805,0.86422163
324,1778426746280,-0.1481532442857143,0.3263082371428571,-1.0928425428571429,0.0585994285714285,-0.6179774799999999,0.9737410185714284
325,1778426746290,-0.126135408,0.372826635,-1.1967162,0.2571742766666666,-0.9463575,1.0431288
326,1778426746300,-0.1228120466666666,0.3784265633333333,-1.2300920833333333,0.262162995,-1.1129709666666667,1.05845125
327,1778426746310,-0.1149457333333333,0.3634561533333333,-1.2871077,0.0796161033333333,-1.2167926333333334,1.0802642666666669
328,1778426746320,-0.1144579,0.3500813999999999,-1.2850751,-0.04520403,-1.2078333,1.0966558
329,1778426746330,-0.13799586,0.3177421083333333,-1.2129569666666666,-0.369471655,-1.0621419133333334,1.1911108833333337
330,1778426746340,-0.14689882,0.28532153,-1.1128699,-0.6010914,-0.91599244,1.2831224
331,1778426746350,-0.1290319185714285,0.2757216514285714,-1.0048669714285714,-0.71883565,-0.79458296,1.3524556
332,1778426746360,-0.10865471,0.2904437766666666,-0.8556800233333334,-0.5882632333333333,-0.6832018533333333,1.4612914333333336
333,1778426746370,-0.0875747928571428,0.3362913985714285,-0.7504880057142858,-0.50701815,-0.70112056,1.4731015
334,1778426746380,-0.036526522,0.406029775,-0.7279388,-0.0105883266666666,-1.03175141,1.4120913833333333
335,1778426746390,-0.016525354,0.42752492,-0.7480924,0.24556783,-1.2130257,1.3654366
336,1778426746400,-0.0100876968571428,0.4244062942857143,-0.8112407228571428,0.4664828814285714,-1.4305373285714285,1.2677417428571427
337,1778426746410,-0.0470047766666666,0.3714749083333333,-0.9591718,0.5821291166666667,-1.5763632166666666,1.1896090833333333
338,1778426746420,-0.1128419466666666,0.3217159133333333,-1.0134839166666667,0.256257972,-1.34787415,1.3547464
339,1778426746430,-0.16940013,0.27593073,-1.009876,-0.0760745305714285,-1.1075422714285714,1.5903658428571428
340,1778426746440,-0.0698008146666666,0.27855282,-0.85193996,-0.31597003,-0.9392053,1.7695239
341,1778426746450,-0.035367917,0.27824792,-0.8141938400000001,-0.49586987,-0.79549927,1.9109392000000005
342,1778426746460,0.060787525,0.2835095542857143,-0.7389281285714285,-0.4855724271428571,-0.7230244642857143,1.9114191714285715
343,1778426746470,0.3131788583333333,0.30231438,-0.5463326916666668,-0.45982882,-0.54183745,1.9126191
344,1778426746480,0.3884169666666666,0.3404873533333333,-0.5364337199999999,0.0514654033333333,-0.7303912266666668,1.5482379000000002
345,1778426746490,0.4188658999999999,0.3603259,-0.56094736,0.1713477099999999,-0.79504114,1.4631749
346,1778426746500,0.4049887942857143,0.3589320842857142,-0.6460394514285713,0.4825181042857143,-1.1092221885714286,1.18416225
347,1778426746510,0.32642148,0.2964284514285714,-0.8899822542857143,0.7632979428571429,-1.4567172285714285,0.8909251357142857
348,1778426746520,0.2528805999999999,0.233855115,-0.93249343,0.7125743,-1.4909693,0.8744536000000002
349,1778426746530,0.2444916085714285,0.1982519857142857,-0.8649197885714285,0.0896881014285714,-0.7751443571428572,1.270425142857143
350,1778426746540,0.2991841133333333,0.19982873,-0.8070592799999999,-0.27236955,-0.3155628008333333,1.5131895333333334
351,1778426746550,0.44104198,0.2181631333333333,-0.7211193266666666,-0.5617415233333333,0.0827213366666666,1.6809993
352,1778426746560,0.6174401857142858,0.2739619714285714,-0.6513184857142856,-0.6181301928571428,0.1502946694285714,1.6386023285714286
353,1778426746570,0.7416547714285714,0.3505256685714286,-0.6273798,-0.4288056042857143,-0.1126173678571428,1.3827152571428571
354,1778426746580,0.8389920833333333,0.3863741633333333,-0.6625590066666667,-0.0760527194999999,-0.7732790350000002,0.90278245
355,1778426746590,0.8620624999999998,0.38032708,-0.72424954,0.028099801,-1.0027353,0.7377725
356,1778426746600,0.7664268216666666,0.2803618933333333,-0.7492916583333334,0.0779871271666666,-1.1694505833333333,0.6153958233333333
357,1778426746610,0.5863553333333335,0.1202814066666666,-0.7643840166666668,0.07943793425,-1.2229267333333331,0.55341845
358,1778426746620,0.5481678885714285,0.1382049314285714,-0.6715983999999999,-0.1234602319285714,-0.6324855085714285,0.9684832285714284
359,1778426746630,0.5919857583333333,0.1705485733333333,-0.61407035,-0.205887045,-0.30105475,1.24125275
360,1778426746640,0.7480924,0.21531744,-0.6025351,-0.13729197,-0.2218968,1.451874
361,1778426746650,0.960665765,0.2617835566666667,-0.68473505,0.0376191206666666,-0.42577306,1.3586152333333334
362,1778426746660,1.1141503,0.3093473,-0.7743134499999998,0.18127427,-0.64751714,1.1669053
363,1778426746670,1.093765957142857,0.3236338571428571,-0.8582556914285714,0.2388701257142857,-0.9241300714285714,0.8560186
364,1778426746680,0.8996561700000001,0.26038105,-1.0571959000000002,0.181808772,-1.3962089000000002,0.3868304
365,1778426746690,0.84065884,0.2160491999999999,-1.0839658,0.1212567539999999,-1.4963144,0.3016147
366,1778426746700,0.6918348042857143,0.1355566914285714,-1.0245894442857144,-0.0413861202857143,-1.4676255428571428,0.3007420571428572
367,1778426746710,0.59649825,0.0918956,-0.96603197,-0.10644327,-1.45615,0.300393
368,1778426746720,0.6638192416666667,0.0977496016666666,-0.9303490033333331,-0.4320344466666667,-1.19123815,0.6929248
369,1778426746730,0.9997883071428572,0.1658981799999999,-0.8013011285714285,-0.3996804042857143,-1.138412842857143,0.7857909000000001
370,1778426746740,1.0867097666666667,0.23830658,-0.8189299,-0.2912809066666667,-1.1677452666666668,0.5999205566666667
371,1778426746750,1.0911003,0.25190493,-0.8333413,-0.16325374,-1.2429581,0.31688634
372,1778426746760,1.0412628857142858,0.2427319242857142,-0.86904025,-0.1273872228571428,-1.2332714857142857,0.1869029447142857
373,1778426746770,0.974813,0.23050125,-0.91663885,-0.0795652,-1.220356,0.013591751
374,1778426746780,0.8221313133333333,0.1977249483333333,-0.957698145,-0.1452332083333333,-1.0774644666666668,-0.0964658013333333
375,1778426746790,0.66769571,0.1098409065714285,-0.9875750342857142,-0.34513888,-0.8078693,-0.09621128
376,1778426746800,0.6287663416666667,0.0658575035,-0.9492932083333332,-0.4509712833333333,-0.6380996666666666,0.0198531176666666
377,1778426746810,0.61040145,0.029391957,-0.87870985,-0.50146948,-0.4955135116666667,0.1302415566666666
378,1778426746820,0.6434013749999999,0.0446062584999999,-0.8253022333333333,-0.35669439,-0.4607451133333333,0.1919643966666666
379,1778426746830,0.6794908883333334,0.0664571249999999,-0.8060226583333333,0.04892013,-0.5185736666666666,0.1667153033333333
380,1778426746840,0.7469541199999999,0.11313668,-0.8701118166666667,0.2610939866666666,-0.6277658333333332,0.0638354179999999
381,1778426746850,0.7316716071428572,0.1361577671428571,-0.9964083285714286,0.4943426857142857,-0.8181667285714286,-0.1572977957142857
382,1778426746860,0.6569184149999999,0.1186349733333333,-1.0878175166666668,0.5676465,-0.9279043,-0.32375857
383,1778426746870,0.4898253466666666,0.071061054,-1.1429935,0.41844268,-0.85826568,-0.3793982133333333
384,1778426746880,0.44746515,0.060918186,-1.1482987,0.269697,-0.74067414,-0.33643404
385,1778426746890,0.4670394149999999,0.1057683649999999,-1.0539945,-0.133677678,-0.2901100933333333,-0.044491352
386,1778426746900,0.4831988999999999,0.11195775,-1.0457318,-0.15653422,-0.26725355,-0.0355829
387,1778426746910,0.5395843266666667,0.12834083,-1.0152828,-0.2221004266666667,-0.1872302033333333,-0.0521780733333333
388,1778426746920,0.5985105728571429,0.1290144928571428,-0.98045787,-0.2475313171428571,-0.0268998862857142,-0.1700823357142857
389,1778426746930,0.5853797133333334,0.1158807433333333,-0.9932286866666664,-0.20759237,0.031255938,-0.2528982166666667
390,1778426746940,0.4911973416666666,0.101733575,-1.0326619166666666,-0.150501925,-0.0136681099999999,-0.33223434
391,1778426746950,0.4663788216666666,0.0971093209999999,-1.0332920333333333,-0.13775011,-0.0882700266666666,-0.3487531433333333
392,1778426746960,0.3904496,0.0743597385714285,-1.0118709285714285,-0.1542871014285714,-0.1198168525714285,-0.3135702185714286
393,1778426746970,0.34434936,0.073510385,-0.9609097,-0.19486601,-0.0127518119999999,-0.1776090729999999
394,1778426746980,0.3379465466666667,0.0825657899999999,-0.9282045233333333,-0.2260710433333333,0.1263982066666666,-0.045356743
395,1778426746990,0.35566099,0.08348048,-0.90657726,-0.24572055,0.257327,0.056963183
396,1778426747000,0.3701435442857143,0.0887856728571428,-0.8965679571428572,-0.2539017714285714,0.3962770085714285,0.1429860928571428
397,1778426747010,0.39538893,0.10488417,-0.8628551999999999,-0.2434298,0.55924714,0.25045475
398,1778426747020,0.4766538483333333,0.10755709,-0.8450085883333333,-0.1725185273333333,0.5877796566666667,0.2835178233333333
399,1778426747030,0.5690576,0.11823861,-0.83017033,-0.037873644,0.5532912,0.25396723
400,1778426747040,0.6119259733333333,0.1061850593333333,-0.8727948533333333,0.2571742675,0.3735441,0.0954476935
401,1778426747050,0.5585082,0.09622513,-0.94267696,0.4016439,0.26374108,0.011301007
402,1778426747060,0.5312302,0.1247633766666666,-0.9572306266666668,0.4639521533333333,0.1649845266666666,0.0140499006666666
403,1778426747070,0.5175912,0.1390325,-0.96450746,0.49510628,0.1156062499999999,0.0154243475
404,1778426747080,0.51850589,0.1406382866666666,-0.9773639,0.4636721716666667,0.1505782866666666,0.0448731429166666
405,1778426747090,0.5294211533333334,0.16192002,-1.0514840333333333,0.30650163,0.32543847,0.19211712
406,1778426747100,0.5449447000000001,0.1777804114285714,-1.03793504,0.0646862657142857,0.5958554071428571,0.2267182699999999
407,1778426747110,0.5758263,0.20086539,-0.99176514,0.09773844,0.6377433,0.20479257
408,1778426747120,0.718100855,0.188537425,-0.8521635249999999,0.4068617133333334,0.5197445133333333,0.0490982921666666
409,1778426747130,0.7825979214285714,0.1600267571428571,-0.8652769642857143,0.6693556,0.3907355914285714,-0.0880518592857142
410,1778426747140,0.788314256,0.124824358,-0.911358044,1.05594166,0.1873523784,-0.307173582
411,1778426747150,0.7356962085714286,0.0894390185714285,-0.9674519557142858,1.5029248857142858,-0.0633990865714285,-0.5473352571428571
412,1778426747160,0.7080291,0.07860215,-0.99024075,1.683646483333333,-0.1899281883333333,-0.6242788333333333
413,1778426747170,0.6673356666666667,0.0520355533333333,-1.0152624666666668,1.7911842166666665,-0.2459750783333333,-0.6643159883333334
414,1778426747180,0.6608312,0.05110054,-1.0237182,1.8185458,-0.19914207,-0.69714993
415,1778426747190,0.6569111428571429,0.0386085228571428,-1.0231956,1.7986927,-0.14034629,-0.7339546
416,1778426747200,0.6502920099999999,-0.0178364065,-1.00991665,1.76104815,-0.013617204,-0.74777542
417,1778426747210,0.66022146,-0.042075627,-1.0122542,1.7603610000000005,0.01282817,-0.7368562
418,1778426747220,0.69565034,-0.054210484,-1.0223768,1.7770724857142857,-0.0535816114285714,-0.7472627428571429
419,1778426747230,0.7541904,-0.09384694,-1.0346946,1.7741054,-0.13316862,-0.786489
420,1778426747240,0.7727889666666666,-0.11210004,-1.0353652666666666,1.7080301,-0.0552833023333333,-0.8290968666666667
421,1778426747250,0.7538506028571429,-0.1088303914285714,-1.0446864285714286,1.6024959,0.089404495,-0.8694575999999999
422,1778426747260,0.7262923916666667,-0.1029226733333333,-1.05603725,1.4757740333333331,0.2273182333333333,-0.8905142416666667
423,1778426747270,0.6801007,-0.09311519,-1.0728065,1.3112222,0.38347065,-0.8807149500000001
424,1778426747280,0.6621118428571429,-0.0849265614285714,-1.070802928571429,1.0951286571428571,0.5695663771428572,-0.8205447357142858
425,1778426747290,0.6785355466666667,-0.0597392606666666,-1.0591065,0.8534296499999999,0.7568365583333333,-0.7520005833333334
426,1778426747300,0.69034517,-0.0487833359999999,-1.053659,0.58100922,0.8589528999999999,-0.673249865
427,1778426747310,0.6951929949999999,-0.0322579805,-1.0478965,0.43513968,0.8036950666666667,-0.6593272433333334
428,1778426747320,0.69065005,-0.026830835,-1.0410973,0.398895,0.7852673,-0.655153
429,1778426747330,0.6637495642857143,-0.014809227,-1.0264623285714285,0.2819797571428571,0.7802713,-0.6116070357142858
430,1778426747340,0.6435742,-0.005793021,-1.0154861,0.16646078,0.7805331,-0.5670357
431,1778426747350,0.5465664566666667,0.0728497731666666,-0.9791018433333334,-0.007203119,0.8590547383333332,-0.4640539716666667
432,1778426747360,0.5313725,0.10671354,-0.95109206,-0.13209961,0.95233893,-0.36942077
433,1778426747370,0.58546096,0.15110639,-0.91432166,-0.1909462966666666,1.0389799766666667,-0.32645657
434,1778426747380,0.6129016,0.16061912,-0.90169895,-0.22922719,1.1594223,-0.3491095
435,1778426747390,0.6048088285714286,0.1888350614285714,-0.9229632428571428,-0.2194315242857143,1.1032880857142855,-0.4800528142857143
436,1778426747400,0.5679338428571429,0.1800627742857143,-0.9351852257142858,-0.21594086,0.9663888,-0.6027713
437,1778426747410,0.5540567,0.17287594,-0.93743277,-0.21594086,0.9663888000000002,-0.6027713
438,1778426747420,0.4484059514285715,0.1448168171428571,-0.9207679928571428,-0.39280816,0.6608034714285714,-0.5970771285714286
439,1778426747430,0.41380462,0.1387886,-0.8987109700000001,-0.46960264,0.6553057,-0.5369505
440,1778426747440,0.4134736085714285,0.1451565457142857,-0.8343430857142857,-0.5663811857142858,0.7806639728571428,-0.4027129171428571
441,1778426747450,0.43453756,0.1621436,-0.7905949,-0.589485,0.8368854,-0.36147952
442,1778426747460,0.4695570228571428,0.1781549914285714,-0.7613684714285714,-0.5888740857142858,0.8873253999999999,-0.3517929371428571
443,1778426747470,0.50563926,0.1956821499999999,-0.7332745,-0.5884159,0.9251554,-0.344528
444,1778426747480,0.5329056457142857,0.2086184428571428,-0.7312709071428571,-0.4566435857142857,0.9083566142857142,-0.4607014714285714
445,1778426747490,0.5704906,0.200529995,-0.77349025,-0.247782215,0.615141285,-0.710589
446,1778426747500,0.5505025142857143,0.2009873457142857,-0.8038012428571429,-0.2049234657142857,0.3560471685714285,-0.8519606571428572
447,1778426747510,0.5041148,0.19549921,-0.8337681,-0.20265454,0.17654006,-0.946383
448,1778426747520,0.4976611683333333,0.191911605,-0.8348759166666667,-0.2135992083333333,0.1448514238333333,-0.95809125
449,1778426747530,0.47960114,0.1820838,-0.8380368,-0.25503623,0.036651913,-0.9947941
450,1778426747540,0.45170317,0.1330971916666666,-0.6930180833333334,-0.5117268966666667,0.0473420551666666,-0.8218174100000001
451,1778426747550,0.47661316,0.12927583,-0.63125634,-0.58261275,0.099571034,-0.7394523600000001
452,1778426747560,0.5541786933333334,0.0882876658333333,-0.5645654733333333,-0.34783685,0.1207731473333333,-0.8298859
453,1778426747570,0.5698677714285714,0.0618938502857142,-0.5518005171428572,-0.1675297914285714,0.1168061585714285,-0.8954848428571429
454,1778426747580,0.5580204,0.049454104,-0.56228894,0.03863723,0.10797043,-0.9610438
455,1778426747590,0.5186888,0.0224403329999999,-0.6133285,0.2003128966666666,0.0638863233333333,-0.98222044
456,1778426747600,0.4945933142857143,0.0301759761428571,-0.6614671857142858,0.4061599328571428,-0.0446149804285714,-0.9852165828571428
457,1778426747610,0.42237221,0.03667897,-0.756172175,0.4260785066666666,-0.1522581666666666,-0.9412924666666664
458,1778426747620,0.3788635742857143,0.0335036964285714,-0.7794183142857143,0.37995818,-0.25671613,-0.8660542
459,1778426747630,0.3731112066666666,0.0354492224999999,-0.7733479833333332,0.342746305,-0.2850704533333333,-0.7603999683333332
460,1778426747640,0.4246792466666667,0.0265056123333333,-0.7498608,0.247400425,-0.37629299,-0.37843102
461,1778426747650,0.47923526,0.023659917,-0.7387626,0.2623229885714285,-0.4102614614285714,-0.2944152414285714
462,1778426747660,0.5688920371428571,0.0341309115714285,-0.7610461428571428,0.3260711342857142,-0.4330816428571428,-0.3315907471428571
463,1778426747670,0.6036937,0.039880376,-0.7753501000000002,0.3643810999999999,-0.43325618,-0.40210205
464,1778426747680,0.5853651285714285,0.0447587097142857,-0.8074774428571428,0.3542582085714286,-0.39634246,-0.5014112785714285
465,1778426747690,0.5009641716666667,0.07747403,-0.8728964916666667,0.2751948,-0.2445751679999999,-0.6605744
466,1778426747700,0.3520065914285714,0.1302602042857142,-0.9499857428571428,-0.1044579573714285,0.1411753271428571,-0.8868454142857143
467,1778426747710,0.27010721,0.167021945,-0.95658015,-0.4044691549999999,0.363770255,-0.98349305
468,1778426747720,0.2443841666666666,0.1417765666666666,-0.9264768133333332,-0.56214875,0.4934264,-1.0387764
469,1778426747730,0.2316337257142857,0.0933155542857142,-0.8927524585714286,-0.7121161557142857,0.6457936571428571,-1.1305370428571428
470,1778426747740,0.22495215,0.0541495039999999,-0.86108685,-0.8239553933333333,0.9118691,-1.2265665666666663
471,1778426747750,0.22647662,0.039758418,-0.8477933999999999,-0.8210029,1.0465649,-1.2505939
472,1778426747760,0.1860067859999999,0.0151329970333333,-0.8596639866666665,-0.7346163583333333,1.1430052166666669,-1.2678253833333333
473,1778426747770,0.084456146,0.019696271,-0.8994427,-0.54733527,1.2023355,-1.2756393
474,1778426747780,0.084456146,0.019696271,-0.8994427000000002,-0.54733527,1.2023355,-1.2756393
475,1778426747790,-0.019665782,0.0780533355,-0.9421586,-0.40077851,1.034398475,-1.1578696
476,1778426747800,-0.12378771,0.1364104,-0.9848745,-0.27916542,0.8807149500000001,-1.0499246
477,1778426747810,-0.1133602757142857,0.17530639,-1.0596437571428572,-0.21122847,0.6855435085714285,-0.8607963785714287
478,1778426747820,-0.040429186,0.13781293,-1.1033571,-0.25259277,0.7759515599999999,-0.81245077
479,1778426747830,-0.0239038339999999,0.13177599,-1.1247607,-0.2846632,0.8556695,-0.8213083
480,1778426747840,-0.0579098816666666,0.1693594766666666,-1.2340150333333335,-0.39553526,1.1139128,-0.8807149500000001
481,1778426747850,-0.07896802,0.17409553,-1.2558659,-0.4213879485714286,1.1474885428571429,-0.8928231857142858
482,1778426747860,-0.07896802,0.17409553,-1.2558659,-0.4558582,1.1922562,-0.9089675
483,1778426747870,-0.14380412,0.20497385625,-1.2869272125,-0.54304013125,1.0884473,-0.81371069375
484,1778426747880,-0.25103091,0.2569865533333333,-1.3043850666666668,-0.7243844,0.7667376866666666,-0.5094107
485,1778426747890,-0.2082525785714286,0.2357541842857143,-1.2098527857142858,-0.7333873857142857,0.56088339,-0.2931280542857143
486,1778426747900,-0.17061971,0.21617115,-1.1606165,-0.6750061,0.44058657,-0.10842858
487,1778426747910,-0.12915388,0.21678093,-1.1298829,-0.6750061,0.44058657,-0.10842858
488,1778426747920,-0.09337943,0.2225231466666667,-1.11158915,-0.4955644333333333,0.2409099866666666,0.071394875
489,1778426747930,-0.0751785997142857,0.2211191742857143,-1.109646542857143,-0.3759002928571428,0.135459371,0.1282817014285714
490,1778426747940,-0.0116368571666666,0.2090060866666666,-1.1246896166666664,-0.068951412,-0.082161375,0.19112447
491,1778426747950,-0.0306376754285714,0.2271473928571428,-1.149622857142857,-0.0097956607142857,-0.1168061585714285,0.2037671971428571
492,1778426747960,-0.075919065,0.249862145,-1.1503415,0.0507781745,-0.17012597,0.27259861
493,1778426747970,-0.0914077702857143,0.2624543457142857,-1.1421920857142858,0.0889681602857142,-0.2056434214285714,0.3243258057142857
494,1778426747980,-0.096895896,0.26916206,-1.1380543,0.119729586,-0.23182335,0.3601050700000001
495,1778426747990,-0.1073756057142857,0.2701203,-1.1325225285714289,0.2108357722857143,-0.3809617442857143,0.46321039
496,1778426748000,-0.1071099133333333,0.2612245883333333,-1.1236326833333334,0.2363539433333333,-0.4322889666666666,0.5191845466666667
497,1778426748010,-0.0977292766666666,0.2253180166666666,-1.0796971666666666,0.2143627966666666,-0.3888157333333333,0.5858706800000001
498,1778426748020,-0.0948574471428571,0.2161188728571428,-1.0624052142857143,0.2005601514285714,-0.3529492185714286,0.6001751142857142
499,1778426748030,-0.09041178,0.21685209,-1.0373166166666667,0.18280143,-0.282881505,0.6206136333333333
500,1778426748040,-0.0724940666666666,0.227157575,-0.9940113066666666,0.2015600833333333,-0.215253645,0.64349565
501,1778426748050,-0.0504907499999999,0.234221,-0.96804434,0.2648101,-0.23472497,0.6363689
502,1778426748060,-0.035195143,0.2362333033333333,-0.969914295,0.3651956033333333,-0.28817568,0.59895339
503,1778426748070,-0.034819108,0.2409287,-0.98121583,0.418900835,-0.3401246883333333,0.5793293133333334
504,1778426748080,-0.0580434574285714,0.2532464757142857,-1.0120799857142857,0.45577091,-0.43799038,0.6067637228571429
505,1778426748090,-0.064170412,0.2574337166666666,-1.0218889,0.4468479233333333,-0.46323947,0.6340272333333333
506,1778426748100,-0.0660810906666666,0.2481648966666666,-1.0255477,0.40632721,-0.5141449166666666,0.6985753333333333
507,1778426748110,-0.06860156,0.2286718933333333,-1.0170918666666666,0.34188092,-0.5719226000000001,0.81983208
508,1778426748120,-0.06860156,0.2280621,-1.0050586,0.2883720285714286,-0.5830926714285714,0.9569858857142856
509,1778426748130,-0.040520658,0.212725835,-0.954202,0.222584025,-0.543441,1.12933715
510,1778426748140,0.0003920088571428,0.2112666885714285,-0.9298451857142858,0.1481348228571428,-0.4994041742857143,1.2482813571428573
511,1778426748150,0.0443928345714285,0.2154219757142857,-0.91189118,0.0804596798571428,-0.4668101257142857,1.2859149857142858
512,1778426748160,0.12659275,0.20867071,-0.8691970800000001,0.0072540255,-0.432950735,1.26968335
513,1778426748170,0.14403279,0.20165811,-0.8608429,-0.014813482,-0.42562035,1.2458596
514,1778426748180,0.14403279,0.20165811,-0.8608429000000001,-0.000712676,-0.453847415,1.2283990333333332
515,1778426748190,0.15858649,0.1940560366666666,-0.8389716799999999,-0.00870483,-0.46746463,1.1969905
516,1778426748200,0.1399675133333333,0.12921486,-0.8371423299999999,0.14966199,-0.7457138,1.120785
517,1778426748210,0.131979245,0.1121406943333333,-0.834408415,0.1665371416666666,-0.77808965,1.1544844
518,1778426748220,0.14000817,0.102688916,-0.82785314,0.2509129,-0.9399689,1.3229814
519,1778426748230,0.1642982033333333,0.0959303943333333,-0.8151999733333334,0.233885035,-0.928744235,1.388344
520,1778426748240,0.16915621,0.09457869,-0.8126693399999999,0.17562376,-0.90377516,1.6163495
521,1778426748250,0.2618140616666667,0.0934912275,-0.8020284866666666,0.173154845,-0.9097310833333332,1.6029104333333333
522,1778426748260,0.44417226,0.1283306575,-0.82687755,0.1783217499999999,-1.0189232,1.4385876333333334
523,1778426748270,0.47484478,0.1460451,-0.846025,0.18402316,-1.0574077,1.3942999
524,1778426748280,0.4951203449999999,0.1059004866666666,-0.9073191833333332,0.207439655,-1.3812935833333333,1.1583532
525,1778426748290,0.49624845,0.0646989,-0.9321885,0.18325958,-1.5888605,1.0315987
526,1778426748300,0.48252815,0.0370143565,-0.935877735,0.075976368,-1.5061646,1.06137835
527,1778426748310,0.5193189333333333,0.0190356638333333,-0.8855496616666666,-0.31635183,-1.0078513,1.26975975
528,1778426748320,0.6082062,0.0070126047,-0.845842,-0.40530908,-0.8558221999999999,1.3219124
529,1778426748330,0.7489286999999999,0.0505952878142857,-0.8116239928571428,-0.56398135,-0.5494733,1.3480269
530,1778426748340,0.78333837,0.06384519,-0.8042542300000001,-0.56398135,-0.5494733,1.3480269
531,1778426748350,0.7972939057142857,0.0676433171428571,-0.8101256771428572,-0.5724462,-0.5219407228571429,1.0884091571428571
532,1778426748360,0.8014492,0.07238227,-0.82187724,-0.4950553866666666,-0.6884451233333334,0.8043568333333333
533,1778426748370,0.7337013499999999,0.030123709,-0.84450054,-0.39202276,-0.91751957,0.6608035
534,1778426748380,0.6787692583333333,0.0197064348333333,-0.8481084233333333,-0.3275001266666666,-1.051146345,0.6683120416666667
535,1778426748390,0.6313783,0.029209021,-0.8474884000000001,-0.2926699,-1.121112242857143,0.7333001
536,1778426748400,0.6587405285714285,0.0306202527142857,-0.8468350857142858,-0.1530435571428571,-1.3349151285714285,1.1671889714285717
537,1778426748410,0.8620276642857144,0.056248926,-0.8922994571428572,-0.15193092,-1.1455905142857143,1.2857841285714289
538,1778426748420,0.9511733833333332,0.0879726124999999,-0.951579875,-0.217518935,-0.92434095,1.2201524
539,1778426748430,0.9826793,0.108298995,-1.0171325,-0.38831940875,-0.7109707762499999,0.9323140375
540,1778426748440,0.9428599,0.1073436566666666,-1.0584560333333333,-0.5623523733333333,-0.6222680416666666,0.665715875
541,1778426748450,0.8339162571428572,0.099474444,-1.1310328142857142,-0.8093528342857143,-0.5731225000000001,0.41135231
542,1778426748460,0.76065415,0.084578104,-1.1058571,-1.1855585714285712,-0.5645267371428572,0.2853831642857142
543,1778426748470,0.6992307285714284,0.0734973214285714,-0.96730388,-1.3222396571428572,-0.5452190185714285,0.4151702142857143
544,1778426748480,0.7952293714285714,0.1236744642857142,-0.7760034514285714,-1.1855585142857143,-0.4027565328571428,0.6618070714285714
545,1778426748490,0.825597,0.13567865,-0.7443117,-1.1313224,-0.35537085,0.708451
546,1778426748500,0.88043756,0.1585661566666666,-0.7369942333333334,-1.1313224,-0.35537085,0.708451
547,1778426748510,1.0297552,0.21982989,-0.8346219,-0.6001751000000001,-0.1243110749999999,0.39080104
548,1778426748520,0.9137220083333334,0.2020849633333333,-0.9358371083333332,-0.56143606,-0.1439096666666666,0.2050471
549,1778426748530,0.8149255999999999,0.1837912,-0.97883755,-0.48395798,-0.18310685,-0.16646078
550,1778426748540,0.76602031,0.1691562066666666,-0.98233372,-0.48721593,-0.2060651999999999,-0.1904372399999999
551,1778426748550,0.66820973,0.13988622,-0.98932606,-0.49373183,-0.2519819,-0.23839016
552,1778426748560,0.6080494099999999,0.1029328388571428,-0.9391488828571428,-0.3803726957142856,-0.2880229571428571,-0.1122901228571428
553,1778426748570,0.5731606142857143,0.0893606128571428,-0.8879002857142856,-0.1691878528571428,-0.2515673914285714,0.0638136014285714
554,1778426748580,0.6237559,0.1159010666666666,-0.9159681166666666,-0.1121701308333333,-0.2420044449999999,0.0670933671666666
555,1778426748590,0.6730271,0.13744704,-0.95023835,-0.049938235,-0.27076602,0.013133603
556,1778426748600,0.6824178999999999,0.1335850266666666,-0.9739389,-0.08857546,-0.2288708433333333,-0.0643444746666666
557,1778426748610,0.7024190714285714,0.12333472,-1.0225770285714284,-0.16584991,-0.14508049,-0.21930063
558,1778426748620,0.6693276766666667,0.111530895,-1.0256493000000002,-0.216984425,-0.0954222396666666,-0.2814052583333333
559,1778426748630,0.58787402,0.1013560842857142,-1.0209481471428572,-0.3490222142857143,0.0115628068571428,-0.3854559628571428
560,1778426748640,0.53283596,0.10616472,-0.99298483,-0.3979787000000001,0.043066,-0.37995818
561,1778426748650,0.53283596,0.10616472,-0.99298483,-0.3979787,0.043066,-0.37995818
562,1778426748660,0.49366991,0.098045784,-0.9639674371428572,-0.4046327714285714,0.0537779585714285,-0.3663664257142857
563,1778426748670,0.4398601457142857,0.0829055331428571,-0.9133720714285716,-0.4489641371428571,0.1832377585714285,-0.2081086942857143
564,1778426748680,0.4489387883333333,0.0815189816666666,-0.90480884,-0.4472806166666667,0.230754345,-0.16139569
565,1778426748690,0.4857426428571428,0.0862506785714285,-0.8886059057142858,-0.4029965257142857,0.3805472371428572,-0.1481348185714285
566,1778426748700,0.46332988,0.080858381,-0.8716361899999999,-0.3651956,0.4403829399999999,-0.10282898
567,1778426748710,0.44801394,0.084761046,-0.8767889700000001,-0.33785938,0.4596252,-0.074372842
568,1778426748720,0.4399647,0.085309856,-0.8831613,-0.3126102999999999,0.472657,-0.057268616
569,1778426748730,0.422738085,0.090127208,-0.8897775,-0.2603813199999999,0.4243986349999999,-0.03397937875
570,1778426748740,0.4036312616666667,0.1092238516666666,-0.8896352416666667,-0.1199586616666666,0.23844107,0.0558687180833333
571,1778426748750,0.4459580728571429,0.1212527182857142,-0.8803649514285714,-0.0368264467142857,0.1492911042857143,0.1225875657142857
572,1778426748760,0.4852722,0.124885336,-0.880966,0.078343466,0.05085453,0.22113322
573,1778426748770,0.5404148,0.1417939845714285,-0.8847990114285714,0.1021235754285714,0.1143190671428571,0.2381065499999999
574,1778426748780,0.6200768133333333,0.1783030866666667,-0.8901332666666667,0.111330192,0.26778805,0.19364429
575,1778426748790,0.62875617,0.18488884,-0.89212525,0.1208422342857142,0.3219914285714286,0.1667443962857142
576,1778426748800,0.6444889,0.19397473,-0.8843808,0.16783522,0.3828598,0.123547494
577,1778426748810,0.661563,0.19769447,-0.89072275,0.2510656,0.38881573,0.0917825
578,1778426748820,0.66331615,0.2012007725,-0.9042906125,0.30398181,0.3707188425,0.0700967846
579,1778426748830,0.7158547333333334,0.2007840733333333,-0.9432460666666668,0.36163224,0.3483967933333333,0.0522798794666666
580,1778426748840,0.7394943,0.19531627,-0.942372,0.31108314,0.3643810999999999,0.0759
581,1778426748850,0.7703759571428571,0.19022016,-0.98624225,0.6879433514285714,0.3002838942857143,-0.1598503485714285
582,1778426748860,0.7754111,0.17927876,-0.99298483,0.8017097166666667,0.2693152133333333,-0.2421062666666666
583,1778426748870,0.7717872000000001,0.1500348885714285,-1.0314800285714285,0.8587238,0.24984388,-0.2858849500000001
584,1778426748880,0.7656137733333334,0.1290115983333333,-1.07183085,0.9246972633333334,0.2409608816666666,-0.3419827366666666
585,1778426748890,0.77693557,0.123696242,-1.10107035,0.9521862,0.1704314,-0.4392121149999999
586,1778426748900,0.7801776166666666,0.118258936,-1.12459815,0.9270898066666668,0.1071559425,-0.5080617083333333
587,1778426748910,0.7662032,0.104945146,-1.1509209000000002,0.84742284,0.070249505,-0.5751296
588,1778426748920,0.7241276,0.0897816593333333,-1.1514493,0.5883905066666667,0.2286926708333333,-0.5894849833333333
589,1778426748930,0.7035369833333333,0.0784801889999999,-1.1354320666666666,0.3370449,0.4575380666666667,-0.5645922333333333
590,1778426748940,0.7185378666666667,0.0692926633333333,-1.0831729333333333,0.109726669,0.7286095499999999,-0.5073999666666666
591,1778426748950,0.8134316250000001,0.078571655,-1.01847402,-0.1637118829999999,1.0918453,-0.442495515
592,1778426748960,0.88011235,0.09134679,-0.99316764,-0.2367102799999999,1.1702651,-0.44211373
593,1778426748970,0.951275015,0.11336027,-0.948195605,-0.15200363,0.9421578533333334,-0.6891577999999999
594,1778426748980,0.90749198,0.09820695,-0.94468928,0.04810564,0.50075678,-0.9676869
595,1778426748990,0.84315898,0.076406898,-0.95673265,0.177074565,0.205250715,-1.0652726
596,1778426749000,0.7859198666666667,0.065705055,-0.9565802333333332,0.2635374533333333,0.0317140866666666,-0.9796750866666668
597,1778426749010,0.63377685,0.0693434766666666,-0.9288143666666668,0.3515020499999999,-0.1234711408333333,-0.7731263166666666
598,1778426749020,0.7093909833333334,0.11998668,-0.959182,0.275423855,-0.0193695208333333,-0.6770168716666666
599,1778426749030,0.7110374500000001,0.1914542633333333,-0.9295867833333332,0.0739146944,0.23495405,-0.6662248949999999
600,1778426749040,0.72028595,0.2166589799999999,-0.8732827,0.0033597588,0.321926,-0.66828656
601,1778426749050,0.7798625883333333,0.2074409666666666,-0.8005853466666667,-0.069027774,0.3941608,-0.6916522
602,1778426749060,0.8120392433333333,0.1880394199999999,-0.7639267,-0.0201076466666666,0.3638466333333334,-0.7993680833333333
603,1778426749070,0.8070796100000001,0.1529560733333333,-0.7626664999999999,0.0762308916666666,0.29884039,-0.9154070333333334
604,1778426749080,0.8037054500000002,0.14324006,-0.7682766,0.1863139,0.23533584,-1.0323622
605,1778426749090,0.7343721333333333,0.1292351833333333,-0.8060836233333334,0.2420044466666666,0.2229658166666666,-1.102509966666667
606,1778426749100,0.600431375,0.13564816,-0.863708915,0.24113905,0.23396139,-1.1119275
607,1778426749110,0.5313724666666667,0.1415631366666666,-0.8613612066666666,0.09743301,0.4666501466666666,-0.95198258
608,1778426749120,0.50119994,0.160863036,-0.838561132,0.0403171046,0.550420132,-0.8472090120000001
609,1778426749130,0.5049075,0.1764736999999999,-0.8199259,-0.018325957,0.6427829,-0.7144068999999998
610,1778426749140,0.577045875,0.199432355,-0.7951988,-0.018020526,0.5890268,-0.6556111
611,1778426749150,0.6208085916666667,0.2113741049999999,-0.78054345,0.05100725,0.34284812,-0.6621779
612,1778426749160,0.6146525857142857,0.2194466085714286,-0.7728848071428571,0.2038544528571428,-0.0165151802857142,-0.8083274285714285
613,1778426749170,0.5812128,0.2137116566666666,-0.76927255,0.2608394533333333,-0.1343903533333333,-0.9123272333333332
614,1778426749180,0.5145016,0.2046460733333333,-0.7568937666666667,0.2749911666666667,-0.1525126866666666,-0.9892962566666668
615,1778426749190,0.44531054,0.1926941666666667,-0.7365266666666667,0.2393064633333333,-0.0298814933333333,-0.9546296466666666
616,1778426749200,0.3424241571428571,0.1758290828571428,-0.6787068571428572,0.2083268671428571,0.1378155657142857,-0.8416196000000001
617,1778426749210,0.3235351333333333,0.166523955,-0.6498855116666666,0.2181552583333333,0.2747620999999999,-0.6898959333333333
618,1778426749220,0.3593299,0.1576921316666666,-0.61411105,0.3082324283333333,0.38550687,-0.4693481283333333
619,1778426749230,0.4423515714285714,0.1438846942857143,-0.5953831828571429,0.5337653257142857,0.4114395557142857,-0.3471896399999999
620,1778426749240,0.4615106499999999,0.1403333866666666,-0.6109909583333334,0.6813692916666666,0.3521128933333333,-0.3535382766666666
621,1778426749250,0.4625574733333333,0.1584137183333333,-0.6629858583333333,1.004771525,0.1490765638333333,-0.4456516333333333
622,1778426749260,0.4223678485714285,0.1690255414285714,-0.7249203571428572,1.1887437714285711,-0.0747873602857142,-0.5575890371428571
623,1778426749270,0.3632529,0.1506795299999999,-0.7959001,1.287704,-0.35124752,-0.68783426
624,1778426749280,0.33758066,0.1420306483333333,-0.8392664499999999,1.1606439333333334,-0.3522656333333334,-0.7178684666666667
625,1778426749290,0.3105146314285714,0.1224461657142857,-0.8747635714285714,0.9946412857142856,-0.1583013726428571,-0.7117234642857142
626,1778426749300,0.2908807966666666,0.1136245183333333,-0.88682005,0.66217789,0.19112446525,-0.67928216
627,1778426749310,0.230562225,0.1182690949999999,-0.876484075,0.302301925,0.515799335,-0.613385085
628,1778426749320,0.21562232,0.11305538,-0.86401385,0.13744467,0.65057147,-0.5726862
629,1778426749330,0.2121465099999999,0.1140920266666666,-0.8495516183333334,0.0943786716666666,0.6844999416666667,-0.5528076233333333
630,1778426749340,0.2201347933333333,0.1131671733333333,-0.7176536633333334,-0.1835650133333333,0.978097075,-0.366493705
631,1778426749350,0.2693551583333333,0.105311025,-0.64381805,-0.1102357186666666,1.1197668833333332,-0.2976949866666666
632,1778426749360,0.2677072428571428,0.1463500085714285,-0.6400983214285715,0.142178892,1.163218357142857,-0.3147919542857143
633,1778426749370,0.2655947366666666,0.1888423183333333,-0.6603129416666667,0.3924809266666667,1.0291043066666667,-0.36865718
634,1778426749380,0.27245492,0.21714681,-0.7028459000000001,0.46883908,0.96990126,-0.38927388
635,1778426749390,0.2575150116666666,0.2274116349999999,-0.7541192333333333,0.5669593466666666,0.8605818766666666,-0.4256712633333333
636,1778426749400,0.2495093271428571,0.2274784228571428,-0.8070244714285714,0.5902267428571429,0.8114690428571428,-0.4737478171428571
637,1778426749410,0.2208055599999999,0.2222690699999999,-0.88828355,0.5729916,0.7808385000000001,-0.54534996
638,1778426749420,0.1721528957142857,0.2007521271428571,-0.9515276571428573,0.4923573828571429,0.8356854714285714,-0.5646358428571429
639,1778426749430,0.1344997216666666,0.1638408666666666,-0.9945093000000002,0.2315179143333333,1.0174978833333337,-0.610712525
640,1778426749440,0.1169987033333333,0.1374877033333333,-0.9930051333333332,-0.1578068513333333,1.28017,-0.5854634333333334
641,1778426749450,0.1034032521428571,0.13035604,-0.9936468428571428,-0.2245802428571428,1.293834457142857,-0.5680174071428572
642,1778426749460,0.094517715,0.134642,-0.9978631,-0.2751948,1.2789991,-0.54260105
643,1778426749470,0.06384519,0.13537374,-1.0301211,-0.2750421,1.2043208,-0.5375614
644,1778426749480,0.0215561372216666,0.1435246283333333,-1.0778474,-0.2435825216666666,1.0376563900000002,-0.523791475
645,1778426749490,-0.0218000523349999,0.14659391,-1.1368346500000002,-0.25534168,0.8560258133333334,-0.4900157333333333
646,1778426749500,-0.0495760631428571,0.1406615142857143,-1.1634563857142857,-0.3136793028571429,0.6820528342857143,-0.4066835428571428
647,1778426749510,-0.05786923,0.1451914,-1.1746417,-0.3539964,0.6079636,-0.35476
648,1778426749520,0.0003571634285714,0.1539375542857143,-1.1745370714285712,-0.48024915,0.4434881771428571,-0.2366011985714285
649,1778426749530,0.0128666039999999,0.15324064,-1.1814713,-0.5001459,0.42928556,-0.23548855
650,1778426749540,0.0125007296666666,0.1509640866666667,-1.190252366666667,-0.5369251083333334,0.40268746,-0.267049925
651,1778426749550,0.01210436525,0.151045395,-1.19391115,-0.56953005,0.3711006266666667,-0.29606602
652,1778426749560,0.0133544378333333,0.1372641053333333,-1.2013505666666666,-0.5952118333333333,0.355345395,-0.3176244733333333
653,1778426749570,0.0157674701428571,0.1248156465714285,-1.2259773857142855,-0.5998478571428573,0.4148429385714285,-0.3309580642857143
654,1778426749580,0.024635583,0.1325280566666666,-1.2532032333333334,-0.5983425,0.42164972,-0.33933565
655,1778426749590,0.026769854,0.1349469,-1.2569636,-0.5983425,0.42164972,-0.33933565
656,1778426749600,0.0455412736666666,0.1328024616666666,-1.2334764166666667,-0.6238461,0.3529274,-0.35140023
657,1778426749610,0.0544369731428571,0.12727224,-1.1874299285714287,-0.5159847685714285,0.2866921471428571,-0.3526219614285714
658,1778426749620,0.0520152286666666,0.1241129373333333,-1.0308121666666663,-0.3885102966666666,0.222864,-0.3445789033333333
659,1778426749630,0.0437394861428571,0.1244062142857142,-1.0054855457142855,-0.2400482305714285,0.1725039799999999,-0.3158173314285714
660,1778426749640,0.0179888555,0.1290624025,-0.99374703,0.181426983,0.069714995,-0.15111279
661,1778426749650,0.006829667,0.13354437,-1.0115834,0.33040175,0.0429132833333333,-0.0478002028333333
662,1778426749660,-0.0071345618333333,0.1579665383333333,-1.0615557999999998,0.45300749,0.02967787,0.1146899553333333
663,1778426749670,-0.008557409,0.1674691233333333,-1.0757741333333333,0.5714135133333333,0.0036142856666666,0.2963714666666666
664,1778426749680,0.002103782,0.188852485,-1.10664995,0.6888014400000001,-0.0914770743333333,0.4563163533333332
665,1778426749690,0.013903251,0.19824328,-1.1208581,0.7589237099999999,-0.1703550449999999,0.5245805149999999
666,1778426749700,0.0382847553333333,0.1997474316666666,-1.1465506833333332,0.79702646,-0.21502456,0.552833
667,1778426749710,0.054820273,0.19873111,-1.16769,0.8420013699999999,-0.330096305,0.5580254
668,1778426749720,0.0516842004285714,0.1925983442857143,-1.1768194857142855,0.84391034,-0.37048978,0.5532912
669,1778426749730,0.03654685,0.1640542866666667,-1.1747230333333334,0.7696901966666667,-0.3864740733333333,0.5705481566666667
670,1778426749740,0.0288126575,0.1333614366666666,-1.1496097333333333,0.6725371916666667,-0.3574070749999999,0.609210825
671,1778426749750,0.033843435,0.11262852,-1.1128699,0.5868888,-0.28588495,0.6559166
672,1778426749760,0.0397584188333333,0.1023027216666666,-1.0635782833333332,0.52483504,-0.2093740666666666,0.7049894
673,1778426749770,0.0466229295714285,0.1154161457142857,-1.0197198142857142,0.5433427985714285,-0.19135354,0.7318819928571428
674,1778426749780,0.049258972,0.123653562,-1.00465618,0.57344973,-0.20112738,0.73746705
675,1778426749790,0.052360778,0.14010981,-1.0055870999999998,0.73191839,-0.3109304133333333,0.7397578400000001
676,1778426749800,0.048905294,0.14726469,-1.0189619,0.79901177,-0.3885102999999999,0.7318166
677,1778426749810,0.037664798,0.1527121566666666,-1.04178845,0.8507825800000001,-0.531223685,0.73410732
678,1778426749820,0.0229281671666666,0.151045395,-1.0626737833333333,0.8385143766666667,-0.5850816333333333,0.7414122333333334
679,1778426749830,0.00222573975,0.13939838,-1.06503165,0.75808376,-0.6249151,0.7619017
680,1778426749840,-0.00521371885,0.128056255,-1.03249925,0.6465244933333333,-0.6028221733333333,0.8055022
681,1778426749850,3.048966666666676e-05,0.1171409826666666,-0.9998956833333336,0.4167628,-0.56107974,0.9111055
682,1778426749860,0.0214646676666666,0.0943144486666666,-0.9338552666666669,0.28000536,-0.5429065000000001,1.0638218000000002
683,1778426749870,0.0443684446,0.0673210044,-0.87659992,0.2459343479999999,-0.53969944,1.15013706
684,1778426749880,0.081285232,0.061345045,-0.8280360999999999,0.33337971,-0.6766350833333333,1.2688180000000002
685,1778426749890,0.1265317749999999,0.05579594,-0.79041198,0.44358998,-0.8263479666666665,1.3164654666666669
686,1778426749900,0.14470357,0.04853942,-0.78400916,0.5729916,-0.9961685,1.3364204
687,1778426749910,0.189797655,0.0057930207,-0.8134011,0.74113226,-1.1711814,1.3539828
688,1778426749920,0.1991071366666666,-0.0036079343333333,-0.8355161916666667,0.8850419433333334,-1.2923872666666667,1.37279235
689,1778426749930,0.20238986,-0.020306063,-0.8900214750000001,0.935081975,-1.34611795,1.41064055
690,1778426749940,0.21548819,-0.0242209244,-0.91471196,0.8611672739999999,-1.34237634,1.44167248
691,1778426749950,0.25251475,-0.02695279,-0.9267613999999998,0.7759515599999999,-1.3350459,1.4534011
692,1778426749960,0.3075005285714285,-0.0400981591428571,-0.9280680971428572,0.58592888,-1.2750939285714284,1.417360042857143
693,1778426749970,0.356837878,-0.0406731048,-0.932212948,0.4664261859999999,-1.2311377799999998,1.3731028799999998
694,1778426749980,0.3801644466666666,-0.0296155483333333,-0.9329812733333332,0.32604933,-1.1960741,1.29198
695,1778426749990,0.40109049,-0.0126531775,-0.929962785,0.2228385466666667,-1.204473516666667,1.2023864166666665
696,1778426750000,0.4090076099999999,-0.0079272916666666,-0.9178787533333334,0.16974418,-1.21302565,1.1563679
697,1778426750010,0.4184390299999999,-0.004756375,-0.8980402,-0.18142697,-1.2304354,0.91706145
698,1778426750020,0.4521518157142857,-0.0157500484285714,-0.8375837199999999,-0.4116795671428571,-1.1113602171428572,0.8231627385714286
699,1778426750030,0.5114322366666667,-0.0138625976666666,-0.7616501333333333,-0.6081163833333333,-0.9223047066666666,0.7497352866666667
700,1778426750040,0.55503237,-0.015458219,-0.749830335,-0.752433275,-0.72288265,0.64873888
701,1778426750050,0.59180284,-0.017562,-0.74272627,-0.8164214,-0.6238461,0.5928447
702,1778426750060,0.6483508333333333,-0.0303676246666666,-0.7577271533333333,-0.8846092200000001,-0.51908277,0.34750597
703,1778426750070,0.658575,-0.0595461569999999,-0.7879728199999999,-0.8897252,-0.5119051,0.26618454
704,1778426750080,0.6588799,-0.072992064,-0.79785144,-0.8813476228571427,-0.5404412285714285,0.2170971514285714
705,1778426750090,0.6110374057142857,-0.1107904414285714,-0.8347873785714286,-0.8335038285714286,-0.5934555871428572,0.2215041099999999
706,1778426750100,0.58704644,-0.09134679,-0.84163445,-0.7623598333333333,-0.6490952083333333,0.3388266
707,1778426750110,0.6544690983333333,-0.0624223416666666,-0.8476002933333334,-0.6966918,-0.73563445,0.42562035
708,1778426750120,0.7264042,-0.038803078,-0.8738518000000001,-0.562479635,-0.796211925,0.4977533666666666
709,1778426750130,0.7700652666666666,-0.0141268403333333,-0.9163136533333331,-0.49197559,-0.8114581200000001,0.467388255
710,1778426750140,0.80513843,0.0140556985,-0.96164148,-0.4885394866666666,-0.7776823433333334,0.40490184
711,1778426750150,0.8142025485714285,0.0145740217142857,-0.97496105,-0.5237078742857143,-0.6988734585714286,0.3196352342857143
712,1778426750160,0.79852218,-0.0120128965,-0.981673175,-0.5443318466666667,-0.6270531566666667,0.22973624
713,1778426750170,0.77339876,-0.035428897,-0.9839599,-0.54443365,-0.605062,0.20891592
714,1778426750180,0.7191273349999999,-0.0551963111666666,-1.0004750666666666,-0.5579235749999999,-0.5315036666666667,0.1994984116666666
715,1778426750190,0.689700507142857,-0.0506127105714285,-1.0116531285714283,-0.5759804971428572,-0.5244714628571429,0.1990111728571428
716,1778426750200,0.6706590233333333,-0.0456225811666666,-1.02017135,-0.594321,-0.5575672733333333,0.2294817133333333
717,1778426750210,0.6733421233333333,-0.040683268,-1.0207303833333332,-0.5944736666666667,-0.5864306333333333,0.3123048566666666
718,1778426750220,0.6901622399999999,-0.025794188,-1.0045708,-0.5674938,-0.5348125,0.36025777
719,1778426750230,0.7005287,-0.0121958339999999,-0.9987778,-0.5524258000000001,-0.5172501333333334,0.3610213566666666
720,1778426750240,0.6994049214285714,-0.0017422619999999,-1.0026456142857143,-0.4881685999999999,-0.4534147314285714,0.3567889357142857
721,1778426750250,0.6912191750000001,0.0100513998499999,-1.0189212333333335,-0.3894774983333333,-0.4096360633333333,0.290033715
722,1778426750260,0.6165604,-0.00417707295,-1.0959785999999998,-0.3114903766666666,-0.48904854,0.1423825066666666
723,1778426750270,0.5753385,-0.007683375,-1.1174433,-0.31230485,-0.52671856,0.09117164
724,1778426750280,0.5388017833333333,-0.0049393125,-1.1479836333333333,-0.325158475,-0.53081645,0.0903571533333333
725,1778426750290,0.5448227471428572,0.0147046905714285,-1.1703470142857142,-0.5688464542857143,-0.5184500828571429,0.1104357128571428
726,1778426750300,0.5572581200000001,0.0104579269999999,-1.1688182,-0.8371908,-0.376292985,0.09399689
727,1778426750310,0.5528371166666667,-0.0001931008333333,-1.1552198333333334,-1.005866,-0.226936435,0.0795651949999999
728,1778426750320,0.5246749666666667,-0.0137711291666666,-1.1241815166666669,-1.0802898,-0.143655146,0.0781398443333333
729,1778426750330,0.4752542142857143,-0.0179278752857142,-1.069835942857143,-1.1612112,-0.0376118449285714,0.0722784487142857
730,1778426750340,0.439578505,-0.0099802575,-1.0423169333333333,-1.1787662666666667,0.0110973850833333,0.075289145
731,1778426750350,0.4076457533333333,0.0145536949999999,-1.008128,-1.1716396,0.013133603,0.075289145
732,1778426750360,0.3950143399999999,0.0382252271428571,-0.9809196285714288,-1.1260864857142858,-0.0118246052857142,0.100880032
733,1778426750370,0.39557186,0.03878275,-0.9764594,-1.1004738,-0.022296581,0.116980694
734,1778426750380,0.3993119066666666,0.0392502566666666,-0.9663775,-1.08466765,0.0447458809999999,0.1397863276666666
735,1778426750390,0.4029764528571428,0.0410651128571428,-0.9424591285714286,-1.0471758,0.29046643,0.2125811
736,1778426750400,0.3733754433333334,0.0555316933333333,-0.9144842333333332,-1.00006275,0.4030692516666667,0.2409608883333333
737,1778426750410,0.3701028799999999,0.06697545,-0.8996256533333332,-0.9266825666666666,0.4478660299999999,0.2560543533333333
738,1778426750420,0.3728062833333332,0.0832568916666666,-0.8717175433333333,-0.8123489866666667,0.4323907766666666,0.2674062633333333
739,1778426750430,0.391283,0.1029531633333333,-0.8455981600000001,-0.72418076,0.41447207,0.27565295
740,1778426750440,0.4028284,0.11653119,-0.82974356,-0.72418076,0.41447207,0.27565295
741,1778426750450,0.41282896,0.1267234242857143,-0.8418174285714286,-0.2323469622857143,0.3013747314285714,0.2702424228571428
742,1778426750460,0.4170974999999999,0.12951976,-0.85133016,-0.122783914,0.27275133,0.26710084
743,1778426750470,0.41484126,0.14366692,-0.89584494,0.04734206,0.22983804,0.25977045
744,1778426750480,1.1428019085714287,0.2905047571428572,-1.2617286914285717,0.0936805514285714,0.17599464,0.2634356442857143
745,1778426750490,1.2926059666666667,0.3756215166666667,-1.3630978666666669,0.152181805,0.12507466,-0.0479529199999999
746,1778426750500,1.0941188083333333,0.4273318633333333,-1.3825604,0.1026508116666666,0.1666389483333333,-0.4979060999999999
747,1778426750510,0.1770021883333333,0.2814696666666667,-1.2063203833333331,-0.3110322333333333,0.334525095,-1.0428234066666666
748,1778426750520,-0.23531862,0.3085546,-1.2067778,-0.547488,-0.12858713,-0.37201694
749,1778426750530,-0.0703293116666666,0.2063738383333333,-1.1146382,-0.6533713333333334,-0.4347833383333333,0.087404635
750,1778426750540,0.2070242749999999,0.1277005366666666,-0.9928017566666668,-0.7141015,-0.5149594,0.4775438999999999
751,1778426750550,0.5364947285714285,0.10917884,-0.8691883571428571,-0.7617925914285715,-0.0891426885714285,0.6249151714285714
752,1778426750560,0.71562103,0.0666502269999999,-0.84233575,-0.7771733150000001,0.294360695,0.5204572
753,1778426750570,0.7413237333333335,0.0994976773333333,-0.8356178666666666,-0.7530441400000001,0.4755586,0.3797036666666666
754,1778426750580,0.6557089685714287,0.130599958,-0.8131397857142858,-0.6618507085714286,0.7173739571428571,0.0863283514285714
755,1778426750590,0.5505300700000001,0.1456690716666666,-0.7816716333333332,-0.54305923,0.6453791,-0.0418442699999999
756,1778426750600,0.458288925,0.1478439949999999,-0.71729795,-0.1437824135,0.33032538,0.021838432
757,1778426750610,0.4783989785714286,0.1472385585714286,-0.7055899428571429,0.1479821092857143,0.1421570685714285,0.0612828735714285
758,1778426750620,0.5587216,0.15314917,-0.71970663,0.616821175,-0.1085049349999999,0.03680463155
759,1778426750630,0.614334585,0.15839338,-0.738000365,0.9159924,-0.22327124,-0.0343102646
760,1778426750640,0.62900007,0.1636071,-0.7470557699999999,1.1371256,-0.2837469,-0.10598512
761,1778426750650,0.6444481533333334,0.164623425,-0.7873020199999999,1.3093132666666667,-0.2838741833333333,-0.1763618866666666
762,1778426750660,0.6342791714285714,0.1262094468571428,-0.8679513428571427,1.4846207285714286,-0.2140428242857142,-0.2838777957142857
763,1778426750670,0.5955530750000001,0.094121344,-0.9343228,1.5767958999999998,-0.14569137,-0.35002577
764,1778426750680,0.5781348000000001,0.0736976797142857,-0.9856063142857144,1.5473435,-0.0289506523285714,-0.3559380785714285
765,1778426750690,0.5860707833333333,0.0672092083333333,-1.00494685,1.4981725166666664,0.0811432685,-0.3577634066666667
766,1778426750700,0.61345042,0.06357078,-1.0123762,1.4385113,0.110872043,-0.3781255699999999
767,1778426750710,0.62589014,0.06415008,-1.0121323,1.4268285000000005,0.1151481,-0.3933972
768,1778426750720,0.62589014,0.06415008,-1.0121323,1.4268285,0.1151481,-0.3933972
769,1778426750730,0.6017119249999999,0.0384778545,-1.0524394499999998,1.3873768,0.1876883466666666,-0.4307109133333333
770,1778426750740,0.5733261,0.029452939,-1.0777458,1.2916746,0.29886582,-0.38530326
771,1778426750750,0.56393538,0.0181108135,-1.0839962,1.0649163166666666,0.586939695,-0.2587268783333333
772,1778426750760,0.5746067257142856,0.0136419114285714,-1.0819446714285714,0.789717857142857,0.9596693142857144,-0.1088212725714285
773,1778426750770,0.641317905,0.0297578324999999,-1.06600725,0.40454553,1.4316391,0.045204028
774,1778426750780,0.69583327,0.04530752,-1.0539029,0.17088956,1.6951510999999997,0.12461651
775,1778426750790,0.7535602116666666,0.0862143783333333,-1.0326619,0.0708603683333333,1.6642260166666667,0.0676024208333333
776,1778426750800,0.7775555166666667,0.1142648,-1.00417445,0.1306742583333333,1.3138948,-0.1768200345
777,1778426750810,0.6841601299999999,0.0999274328571428,-0.9740637985714288,0.29886582,0.8741481999999999,-0.39752057
778,1778426750820,0.6232884133333333,0.0651867323333333,-0.9887162133333334,0.4839579866666666,0.58419082,-0.4064799233333333
779,1778426750830,0.5699113,0.029574897,-1.0177423,0.59880066,0.4431827399999999,-0.32543847
780,1778426750840,0.5488735,0.022867188,-1.0898806,0.5502369,0.4572326199999999,-0.111635625
781,1778426750850,0.5613132571428572,0.0133021699285714,-1.106737042857143,0.4259476285714286,0.5618869257142857,0.0039488099999999
782,1778426750860,0.66302647,-0.01100673985,-1.0903075,0.0105883333333333,0.9985610333333332,0.29626966
783,1778426750870,0.8019980333333333,0.1077501891,-1.00215196,-0.7963646666666667,1.9341010333333333,0.5595526
784,1778426750880,0.8707622333333332,0.1955805133333333,-0.9584095933333332,-0.9604838,2.0814977,0.4913393083333333
785,1778426750890,0.83910385,0.27340008,-0.89953423,-0.981278675,1.8267670666666664,0.0612646916666666
786,1778426750900,0.7349615666666667,0.2657675266666666,-0.8558020066666666,-0.82818055,1.1340714,-0.5479461
787,1778426750910,0.6506477,0.22373258,-0.8363293,-0.82818055,1.1340714,-0.5479461
788,1778426750920,0.6004821783333334,0.14097368,-0.8319692883333333,-0.6061310366666667,0.5225952466666667,-0.794023
789,1778426750930,0.5179367133333334,-0.05579594,-0.8333819533333333,-0.4335615966666666,0.25910867,-0.6986007550000001
790,1778426750940,0.51795704,-0.089432049,-0.83753668,-0.527665402,0.6060699439999999,-0.3912897379999999
791,1778426750950,0.5371959566666668,-0.089354805,-0.8422849499999999,-0.57818395,0.7759515599999999,-0.24266621
792,1778426750960,0.55411774,-0.033355605,-0.8235847,-0.5766568,0.8573494,-0.07544186
793,1778426750970,0.5884387966666667,0.067930789,-0.8138076866666667,-0.487648645,0.64532824,-0.0936151018333333
794,1778426750980,0.5983784249999999,0.1401199583333333,-0.8141227216666667,-0.3773620066666667,0.3179553666666666,-0.1994475033333333
795,1778426750990,0.5547762799999999,0.192938092,-0.8197551220000001,-0.302103396,0.043799036,-0.317161222
796,1778426751000,0.503535475,0.20650595,-0.8275178049999999,-0.297644075,-0.224034825,-0.39385536
797,1778426751010,0.48423555,0.20159712,-0.8304143500000001,-0.3213151,-0.3417791,-0.41309762
798,1778426751020,0.49004892,0.1493379816666666,-0.8115209233333333,-0.4231514333333333,-0.350585745,-0.4196389683333333
799,1778426751030,0.4860039742857142,0.10173068,-0.7901418857142858,-0.5508040714285715,-0.1753837764285714,-0.4091488142857143
800,1778426751040,0.4534410999999999,0.06780884,-0.758154,-0.6566190539999999,0.08536842,-0.36199874
801,1778426751050,0.4214357457142857,0.1065393199999999,-0.7167752857142856,-0.7129233642857142,0.3330742857142857,-0.2857976771428571
802,1778426751060,0.3816787666666666,0.1617269166666666,-0.6794807333333334,-0.6908886,0.3200934,-0.24740042
803,1778426751070,0.32562876,0.2250131199999999,-0.6314799166666667,-0.6042984349999999,0.1607848233333333,-0.2006692273333333
804,1778426751080,0.3008625014285714,0.2493960685714285,-0.6093473785714286,-0.4293510042857143,-0.15653422,-0.1149953825714285
805,1778426751090,0.30209078,0.232086705,-0.622200925,-0.24271713,-0.47764572,-0.0671951793333333
806,1778426751100,0.30544463,0.2086097299999999,-0.6383299,-0.14355333,-0.6580546,-0.06505715
807,1778426751110,0.2960335133333333,0.1802340899999999,-0.6378014133333333,-0.1685988033333333,-0.5808819500000001,-0.0563014143333333
808,1778426751120,0.2584384157142857,0.1254428528571428,-0.6346537685714286,-0.2576978628571428,-0.29099002,-0.0067195174285714
809,1778426751130,0.242392185,0.146563425,-0.6364396,-0.3198134116666666,-0.0589739516666666,0.0481310916666666
810,1778426751140,0.2345766866666666,0.18047801,-0.6402203,-0.37033707,0.19746219,0.1085813
811,1778426751150,0.2399326933333333,0.25777928,-0.6454441666666667,-0.3718642300000001,0.3492622,0.086132
812,1778426751160,0.24111163,0.2803517333333333,-0.6520604166666667,-0.36147952,0.4531093,-0.0267253539999999
813,1778426751170,0.2204600133333333,0.3016232866666666,-0.70044738,-0.3651192533333333,0.5325472333333333,-0.1170061476666666
814,1778426751180,0.2023288799999999,0.30666426,-0.7196761400000001,-0.38988474,0.7733554000000001,-0.3686571699999999
815,1778426751190,0.1915617,0.30836296,-0.736628342857143,-0.4629267857142857,0.9621127428571428,-0.45295657
816,1778426751200,0.175376085,0.31346341,-0.790960775,-0.6149885949999999,1.32901365,-0.550465935
817,1778426751210,0.184401,0.3141037,-0.78900945,-0.75487673,1.664455,-0.6339254
818,1778426751220,0.1818195483333333,0.3162379666666666,-0.7901680583333333,-0.75487673,1.664455,-0.6339254
819,1778426751230,0.08713923,0.37746105,-0.8373659999999999,-0.70325863,2.0393736,-0.68279463
820,1778426751240,-0.0297491208571428,0.4333702442857143,-0.9245835885714284,-0.55771998,1.9475257,-0.5811073628571428
821,1778426751250,-0.0732969566666666,0.4675882733333333,-0.9830858666666668,-0.3701334333333333,1.5905913,-0.36947166
822,1778426751260,-0.0550845133333333,0.49454106,-1.0896367333333332,-0.20927226,1.0930415266666669,-0.1178969913333333
823,1778426751270,-0.0175619999999999,0.4947239966666667,-1.1465099666666667,-0.17755817,0.8747590399999999,-0.033343062
824,1778426751280,0.03439225,0.49313855,-1.2017165,-0.18936823,0.72295904,-0.001985312
825,1778426751290,0.1135635373333333,0.4432575866666666,-1.2612931333333333,-0.3571016333333333,0.6690501666666666,-0.0803287826666666
826,1778426751300,0.1463195166666666,0.3950433883333333,-1.2756638833333331,-0.5805255833333334,0.7348454666666666,-0.18901189
827,1778426751310,0.137264105,0.3521851916666667,-1.2763041,-0.7289150000000001,0.8530733,-0.26358834
828,1778426751320,0.0872873239999999,0.3259685014285714,-1.2350110571428572,-0.9436558942857144,0.9981101428571428,-0.3721914714285714
829,1778426751330,0.0508972783333333,0.3333934466666666,-1.1944192333333332,-0.9630799566666668,0.9959648333333332,-0.38311433
830,1778426751340,0.0249404816833333,0.3506505333333333,-1.1486544333333333,-0.8960629333333333,0.87506445,-0.3754021566666666
831,1778426751350,0.0032928751,0.3769731999999999,-1.0915881,-0.7200574,0.6383542,-0.3533855399999999
832,1778426751360,0.005732042,0.37892455,-1.0803679,-0.4535420033333333,0.34910949,-0.32215506
833,1778426751370,0.0135025294285714,0.3861026757142857,-1.0688515285714286,-0.2710496414285714,0.1968949528571428,-0.2779000485714285
834,1778426751380,0.0219525,0.38855925,-1.0614034,-0.20097467,0.15989397,-0.2519819
835,1778426751390,0.0503891216666666,0.3813230566666667,-1.0267062333333332,-0.1607339133333333,0.235463105,-0.17875444
836,1778426751400,0.1062562,0.365875,-0.96459895,-0.114155438,0.35078937,-0.115148095
837,1778426751410,0.12647079,0.3632529,-0.9426159,-0.001603523,0.409737855,-0.086666505
838,1778426751420,0.1450607242857143,0.3839683914285713,-0.9362218485714286,0.1457568057142857,0.3833615642857143,-0.0719948314285714
839,1778426751430,0.14287418,0.39477912,-0.94139636,0.30589077,0.2941316,-0.05955936
840,1778426751440,0.123116943,0.41295093,-1.0168886,0.5195917883333333,0.0915025213333333,0.0030034223333333
841,1778426751450,0.1138045512857142,0.4267496428571428,-1.0734163142857145,0.7092145428571428,-0.1581486462857143,0.0951422628571428
842,1778426751460,0.1116426958333333,0.438379225,-1.1082252333333331,0.7571674833333333,-0.2772310083333333,0.1449277783333333
843,1778426751470,0.12193801,0.44395882,-1.12762675,0.78376556,-0.4240932,0.2155081716666667
844,1778426751480,0.12640981,0.44594067,-1.1227485,0.7488771300000001,-0.4502513114285714,0.2567161257142857
845,1778426751490,0.144764545,0.450940935,-1.0879293,0.68714705,-0.39645155,0.25083654
846,1778426751500,0.15629832,0.4510280457142857,-1.0593910999999998,0.6701628328571428,-0.36006144,0.2234239614285714
847,1778426751510,0.1615948,0.4495994,-1.0418291,0.66767573,-0.30665436,0.14370605
848,1778426751520,0.1574278833333333,0.4435523166666666,-1.02145185,0.7122179883333334,-0.2651664266666667,0.0222965816666666
849,1778426751530,0.1456182499999999,0.4388365916666666,-1.0165125666666666,0.7902305733333334,-0.2569960983333333,-0.1039234478333333
850,1778426751540,0.1400691448571428,0.4378652771428571,-1.0254779714285711,0.8202393228571428,-0.2632392857142857,-0.1593921957142857
851,1778426751550,0.120921694,0.43484247,-1.0651231,0.91736686,-0.3005457,-0.3698789199999999
852,1778426751560,0.1089697745714285,0.4366195728571428,-1.0754720714285717,0.9271407,-0.32146785,-0.43218717
853,1778426751570,0.100005835,0.4379524000000001,-1.0832338,0.9271407000000002,-0.32146785,-0.43218717
854,1778426751580,0.0916923418333333,0.4353506166666667,-1.0893114166666666,0.9271407000000002,-0.32146785,-0.43218717
855,1778426751590,0.050124876,0.4223417,-1.1196995,0.9271407,-0.32146785,-0.43218717
856,1778426751600,0.050124876,0.4223417,-1.1196995,0.8823184999999999,-0.3191770949999999,-0.472504285
857,1778426751610,0.050124876,0.4223417,-1.1196995,0.8374963,-0.31688634,-0.5128214
858,1778426751620,0.050124876,0.4223417,-1.1196995,0.8374963000000001,-0.31688634,-0.5128214
859,1778426751630,0.050124876,0.4223417,-1.1196995,0.7247916133333333,-0.2555962,-0.5007058866666667
860,1778426751640,0.0356466788571428,0.4172455828571428,-1.1219731142857143,0.66843927,-0.22495113,-0.49464813
861,1778426751650,0.016342416,0.41045076,-1.1250046,0.66843927,-0.22495113,-0.49464813
862,1778426751660,0.016342416,0.41045076,-1.1250046,0.66843927,-0.22495113,-0.49464813
863,1778426751670,0.016342416,0.41045076,-1.1250046,0.66843927,-0.22495113,-0.49464813
864,1778426751680,-0.0080928068571428,0.4041350742857142,-1.112765242857143,0.66843927,-0.22495113,-0.49464813
865,1778426751690,-0.017866896,0.4016088,-1.1078695,0.66843927,-0.22495113,-0.49464813
866,1778426751700,0.0035876074999999,0.3524494266666667,-0.9712151933333334,0.41851904,-0.5900449483333333,0.084579395
867,1778426751710,0.3129857333333333,0.21345758,-0.7304186333333332,-0.0741183166666666,-0.9579894,1.5191709
868,1778426751720,0.3992305999999999,0.22611076,-0.6940649,-0.0976875333333333,-0.9406560833333334,1.6761378166666667
869,1778426751730,0.5316773542857142,0.2162321342857143,-0.6672776285714285,0.0208785025714285,-1.0097602714285714,1.646936314285714
870,1778426751740,0.5537416333333334,0.1595621499999999,-0.6703643333333335,0.1239547353333333,-1.0116947,1.5706364
871,1778426751750,0.5543006,0.15183812,-0.6709538,0.14752395,-1.0080804,1.5506815000000005
872,1778426751760,0.5406413,0.10653061,-0.6808324,0.14752395,-1.0080804,1.5506815
873,1778426751770,0.6126663857142857,0.0985510442857142,-0.6868606285714286,0.1968731399999999,-0.900699,1.4204143857142857
874,1778426751780,0.6666852,0.09256637,-0.6913817999999999,0.22632557,-0.8529206,1.3350459
875,1778426751790,0.6666852,0.09256637,-0.6913818,0.22632557,-0.8529206,1.3350459
876,1778426751800,0.6666852,0.09256637,-0.6913817999999999,0.22632557,-0.8529206,1.3350459
877,1778426751810,0.6666852,0.09256637,-0.6913817999999999,0.22632557,-0.8529206,1.3350459
878,1778426751820,0.6796737685714286,0.0955717742857142,-0.6874094271428571,0.30955598,-1.0308352,1.2119566
879,1778426751830,0.6969918600000001,0.09957898,-0.6821129300000001,0.30955598,-1.0308352,1.2119566
880,1778426751840,0.705407012,0.1024084119999999,-0.679405478,0.30955598,-1.0308352,1.2119566
881,1778426751850,0.71802974,0.10665256,-0.6753443,0.38820487,-1.2541064,1.1001683
882,1778426751860,0.71802974,0.10665256,-0.6753443,0.38820487,-1.2541064,1.1001683
883,1778426751870,0.71802974,0.10665256,-0.6753443,0.38820487,-1.2541064,1.1001683
884,1778426751880,0.80768942,0.0707663268666666,-0.67582195,0.4704171399999999,-1.5477798166666668,0.8157596300000001
885,1778426751890,0.9735527383333332,0.0449822990333333,-0.7098280166666667,0.3689371616666666,-0.7181993483333334,0.2892955948333333
886,1778426751900,0.71601737,0.020793896,-1.0181081,0.51334058,-0.76168784,-0.4709465460000001
887,1778426751910,0.6652217333333333,-0.0026424303333333,-1.0408736666666667,0.4494695433333333,-0.9526952416666666,-0.4721479166666666
888,1778426751920,0.56363046,-0.049515083,-1.0864048,0.3220787,-1.1449142,-0.3266602
889,1778426751930,0.547349,-0.06780884,-1.042378,0.24663684,-1.135904,-0.14080444
890,1778426751940,0.6820316866666666,-0.0259161459999999,-0.9422907533333332,0.2169844283333333,-0.9153306883333332,0.2311870466666666
891,1778426751950,0.73931146,0.008963938,-0.92529786,0.27275133,-0.81122905,0.3678936
892,1778426751960,0.8066324250000001,0.037166802,-1.00011932,0.43012549,-1.04144888,0.154548905
893,1778426751970,0.7774031,0.0315059026666666,-1.0334139666666669,0.45875978,-1.1317806,0.03863723
894,1778426751980,0.7408969,0.020489,-1.0414633,0.3572034583333334,-1.303739166666667,-0.209094075
895,1778426751990,0.6781580428571429,0.002299786,-1.0349820142857142,0.22012966,-1.3181599285714287,-0.2803871428571428
896,1778426752000,0.6238779,-0.023659917,-1.0226816,0.15851954,-1.2895365,-0.2846632
897,1778426752010,0.5954717500000001,-0.0600543161666666,-0.9724754166666668,-0.1009963916666666,-0.9198612666666666,-0.1276453854999999
898,1778426752020,0.6144261142857143,-0.0783233857142857,-0.9086331857142858,-0.2216786342857142,-0.4759294857142856,0.0354520021428571
899,1778426752030,0.6342443533333334,-0.0648208541666666,-0.9046768333333332,-0.259185025,-0.2085086833333333,0.09875655
900,1778426752040,0.6613190916666666,-0.0055389406666666,-0.94765695,-0.3102431933333333,0.1578322966666666,0.123751114
901,1778426752050,0.6352505,0.073266471,-1.0622266,-0.4427755066666667,0.23966279,0.0376191166666666
902,1778426752060,0.5839162,0.087688042,-1.1290903,-0.676686,0.1788817066666666,-0.053756142
903,1778426752070,0.5696064,0.08555377,-1.1396397,-0.9165015,0.1043052378333333,-0.1063669116666666
904,1778426752080,0.5639963,0.062686585,-1.1028692,-1.075581,0.059253927,-0.11438452
905,1778426752090,0.5727772999999999,0.036709459,-1.0242874000000002,-1.2249375999999998,0.1319468889999999,-0.07620544
906,1778426752100,0.5931037266666667,-0.0171351466666666,-0.8765552066666666,-1.2854640333333334,0.3893756833333333,-0.0237219327666666
907,1778426752110,0.54899547,-0.01210436525,-0.8169379,-1.10429165,0.7010442,0.0267253542
908,1778426752120,0.5248477,0.0069516255,-0.8088277,-1.0206031,0.79000145,0.04841107
909,1778426752130,0.5189849714285714,0.0600122102857142,-0.8437339285714286,-0.8494517714285715,0.7775005485714287,0.08303404
910,1778426752140,0.5339336,0.078480184,-0.8762097,-0.7486153999999999,0.73624533,0.09743301
911,1778426752150,0.55538811,0.0979833614999999,-0.9137524916666668,-0.6893105666666667,0.611654305,0.0416915533333333
912,1778426752160,0.55018455,0.0892430125,-0.923620935,-0.5939901,0.36957347,-0.0910189225
913,1778426752170,0.54076326,0.07591906,-0.9240173,-0.5719226,0.32055154,-0.12629639
914,1778426752180,0.4983014466666666,0.0440066333333333,-0.9086302533333334,-0.52941655,0.29178996,-0.12204579
915,1778426752190,0.47643024,0.036160648,-0.8881005600000001,-0.4362596,0.334270545,-0.0495564483333333
916,1778426752200,0.4537111228571429,0.0630350357142857,-0.8649372071428572,-0.3866340742857143,0.4889321742857143,0.0730856628571428
917,1778426752210,0.48427622,0.09337943,-0.8623877166666666,-0.3672318333333333,0.5788711833333333,0.1600212399999999
918,1778426752220,0.5114323,0.10903075,-0.86669695,-0.3539964,0.6227771,0.20265454
919,1778426752230,0.8802240866666665,0.1938934216666666,-1.1072800983333335,-0.5082399,0.6238206533333334,-0.0922915633333333
920,1778426752240,1.0423778499999998,0.2566787314285714,-1.2457521714285715,-0.8002335,0.6462954,-0.61254513
921,1778426752250,0.424841865,0.22708642,-0.98841135,-0.91736686,0.8724683,-0.7609854
922,1778426752260,0.25586858,0.1750712,-0.9059065,-0.9108001,0.6105598,-0.14782938
923,1778426752270,0.25586858,0.1750712,-0.9059065,-0.9108001,0.6105598,-0.14782938
924,1778426752280,0.5577154428571428,0.1743220228571428,-0.8054041442857143,-0.7467827714285714,0.2631083771428571,0.1609629937142857
925,1778426752290,0.70065063,0.1836082799999999,-0.7566905049999999,-0.6370815333333333,0.1373174083333333,0.2472731666666666
926,1778426752300,0.8094476433333333,0.19449305,-0.7677582166666667,-0.2969314066666667,0.1928807066666666,0.2295835366666666
927,1778426752310,0.9400809742857144,0.2166851214285714,-0.8982318571428571,-0.2009528485714285,0.4430736657142857,-0.1267981671428571
928,1778426752320,0.9211208,0.2214458616666666,-0.9360302166666666,-0.1961386483333333,0.5569563999999999,-0.3227150166666667
929,1778426752330,0.8310241,0.2280011199999999,-0.9820695,-0.21624629,0.6554584,-0.5175556
930,1778426752340,0.6367008857142856,0.2185319242857142,-1.0095884571428573,-0.2384774285714285,0.59417553,-0.5936737585714286
931,1778426752350,0.5998521,0.21476863,-1.0074978,-0.24801129,0.5497787,-0.61743206
932,1778426752360,0.6028139257142857,0.1813868871428571,-0.9220921428571428,-0.2194315257142857,0.4074252857142856,-0.4939500171428571
933,1778426752370,0.6403727300000001,0.17891288,-0.87184965,-0.0800997065,0.2950479083333333,-0.2927062549999999
934,1778426752380,0.6829057000000001,0.18973668,-0.84605545,0.048563786,0.28512135,-0.21838433
935,1778426752390,0.7111187166666667,0.19799935,-0.83650205,0.18203785,0.2742785,-0.1768454899999999
936,1778426752400,0.7450841166666667,0.2130103866666666,-0.8372337766666668,0.3414482183333333,0.2573778883333333,-0.1739947866666666
937,1778426752410,0.7741130928571429,0.2381672085714286,-0.8433244942857143,0.4739441714285714,0.2535090785714285,-0.1939933499999999
938,1778426752420,0.78608245,0.25891754,-0.8472445,0.5332854,0.2657264,-0.2368629999999999
939,1778426752430,0.7696442285714287,0.2585255414285714,-0.8264419257142858,0.6151413114285714,0.2727731542857143,-0.3017674271428571
940,1778426752440,0.7645568,0.25190493,-0.81943804,0.7006624300000001,0.28512135,-0.34101552
941,1778426752450,0.776569705,0.2160491966666666,-0.8163687783333332,0.7805839433333333,0.33103805,-0.3060943866666666
942,1778426752460,0.78766793,0.18574256,-0.81547445,0.8205447,0.3539964,-0.28863382
943,1778426752470,0.8541700671428573,0.1690778157142857,-0.8369390428571428,0.8201738571428571,0.4345651614285714,-0.2400700442857143
944,1778426752480,0.90377223,0.19568215,-0.8969426,0.78155118,0.4297437066666666,-0.3442734766666666
945,1778426752490,0.86401385,0.2125734,-0.9341399,0.73807794,0.39522982,-0.45005497
946,1778426752500,0.8046549428571428,0.2301353942857143,-0.9880803114285712,0.5429501228571428,0.3456406628571428,-0.5633050485714286
947,1778426752510,0.7259569433333333,0.2448313633333333,-1.0162991,0.24500786,0.34065918,-0.5897903800000001
948,1778426752520,0.7175723416666667,0.2428190483333333,-0.9889703,0.0943023216666666,0.3661118916666666,-0.56204694
949,1778426752530,0.7005287166666667,0.2353795833333333,-0.8580175666666667,-0.2574797033333333,0.6557638166666666,-0.3980805266666666
950,1778426752540,0.7015043499999999,0.23452587,-0.7783381,-0.31749722,0.7305947999999999,-0.35262197
951,1778426752550,0.7283961,0.2417214399999999,-0.6813202500000001,-0.38621956,0.8888089,-0.25289822
952,1778426752560,0.8258408533333333,0.25633608,-0.5641182466666667,-0.23711752,0.9439395333333334,-0.3015638133333333
953,1778426752570,0.90563205,0.2650561083333334,-0.4953845833333334,-0.0540106666666666,0.84365581,-0.4220060666666667
954,1778426752580,0.9035892714285714,0.2352663414285714,-0.4910042971428571,0.4024074828571428,0.6324854985714286,-0.7245734285714286
955,1778426752590,0.83921565,0.20595714,-0.5547275166666666,0.5655085,0.5693264,-0.82818055
956,1778426752600,0.6908126666666666,0.18283586,-0.7179484133333333,0.77908225,0.4663701766666666,-0.8983791499999999
957,1778426752610,0.5965185166666666,0.1760062,-0.8273653599999999,0.8191703,0.39293906,-0.8584184
958,1778426752620,0.5142111542857143,0.1928858257142857,-0.8583863142857143,0.6253078314285715,0.5042038185714286,-0.6443973714285713
959,1778426752630,0.46590115,0.21642524,-0.8355365666666666,0.4075743666666667,0.6530149583333333,-0.3999640149999999
960,1778426752640,0.5001511,0.23080614,-0.7510803999999999,0.2753475,0.7423540000000001,-0.15867224
961,1778426752650,0.5899995571428571,0.2316424285714285,-0.6829231171428571,0.3008729571428571,0.7174830571428571,-0.0307832437142857
962,1778426752660,0.7631949266666668,0.2053371733333333,-0.6206662866666667,0.5069672666666666,0.5316054866666666,-0.0538579506666666
963,1778426752670,0.8206068166666666,0.1844924633333333,-0.62858345,1.07848265,0.006872235,-0.2498438899999999
964,1778426752680,0.8106222142857142,0.1232650357142857,-0.7245719114285715,1.321912457142857,-0.24589508,-0.4275402285714285
965,1778426752690,0.76760575,0.067544592,-0.8309631166666667,1.4122441,-0.37224601,-0.5398521500000001
966,1778426752700,0.6686569033333334,0.0253876599999999,-0.98743561,1.2934308,-0.3325397699999999,-0.5325981249999999
967,1778426752710,0.6439400300000001,0.022501312,-1.0225596,1.1850786,-0.28848112,-0.50701815
968,1778426752720,0.6149342383333333,0.037512351,-1.0662511833333337,0.7201592250000001,-0.0751873283333333,-0.3736713583333333
969,1778426752730,0.59314435,0.0775350114999999,-1.0907953,0.3421863383333333,0.0839176166666666,-0.2859358266666666
970,1778426752740,0.5907662,0.102445,-1.0880512,0.08307768,0.10720685,-0.27779096
971,1778426752750,0.55417866,0.14391084,-1.0518296,-0.1501710349999999,-0.111788335,-0.3460042466666666
972,1778426752760,0.54082425,0.1041219325,-0.990545585,-0.5074763,-0.5167919799999999,-0.4499022533333334
973,1778426752770,0.5520444,0.084029295,-0.9649952699999998,-0.6243806416666666,-0.6880378666666668,-0.4724024666666667
974,1778426752780,0.5255881657142857,0.0174748872857142,-0.8536299371428571,-0.8546004928571429,-0.7740098942857143,-0.5167483542857143
975,1778426752790,0.5012284333333333,0.0021545972666666,-0.8136653699999999,-0.9118691,-0.75411314,-0.52519137
976,1778426752800,0.4627810583333334,0.0069211353333333,-0.7766612,-1.0980302833333333,-0.5293910783333333,-0.53448165
977,1778426752810,0.409261705,0.0407340835,-0.7279388,-1.21134575,-0.38728857,-0.527940285
978,1778426752820,0.3743162857142857,0.0809890471428571,-0.705337292857143,-1.2223413,-0.38912117,-0.52610767
979,1778426752830,0.31857552,0.1479151366666666,-0.6705472333333334,-1.2036336,-0.5613088,-0.54817518
980,1778426752840,0.31215236,0.15580177,-0.6647339,-1.1974486,-0.5876524,-0.5535966
981,1778426752850,0.28705506,0.2303444514285714,-0.6572073314285714,-1.1956814857142857,-0.7097163157142857,-0.6571382685714287
982,1778426752860,0.298554,0.2429918183333333,-0.6646526166666668,-1.22129785,-0.6953173583333333,-0.7239771
983,1778426752870,0.2348104466666666,0.2520675433333333,-0.6865644733333333,-1.31946895,-0.5430592,-0.835434575
984,1778426752880,0.1757216333333333,0.26877584,-0.68916624,-1.45103405,-0.322078705,-0.87025389
985,1778426752890,0.087322165,0.30550562,-0.6743686000000001,-1.5688547000000002,-0.1198823025,-0.83291474
986,1778426752900,0.046197816,0.332519388,-0.64885492,-1.6522683400000002,0.033261611,-0.78303759
987,1778426752910,-0.011708,0.38471758,-0.591193,-1.7001907,0.14065172,-0.7473936
988,1778426752920,-0.0457517992857142,0.4422209271428571,-0.5325572142857143,-1.6449946857142856,0.2929317071428571,-0.7304202857142857
989,1778426752930,-0.0934810625,0.514816585,-0.4773753999999999,-1.4266758,0.41340305,-0.73006035
990,1778426752940,-0.1003005674999999,0.54215555,-0.46638898,-1.2067643,0.4096869566666667,-0.7374670666666666
991,1778426752950,-0.11392651,0.5526019142857143,-0.4791133171428571,-0.806953,0.3084651271428571,-0.7451465142857143
992,1778426752960,-0.13012955,0.5491174,-0.5008219,-0.729984,0.28817567,-0.742354
993,1778426752970,-0.185022998,0.51259088,-0.57265536,-0.29846876,0.307723374,-0.46685376
994,1778426752980,-0.21202457,0.503444,-0.6097917,-0.1363974785714285,0.3496549128571428,-0.2928008
995,1778426752990,-0.22763525,0.50594413,-0.65906286,-0.06414085,0.39904773,-0.1525636
996,1778426753000,-0.2203264514285714,0.5057612042857144,-0.6884635257142857,0.016667894,0.5767222642857143,0.1663953285714285
997,1778426753010,-0.156208302,0.5148267933333334,-0.7641299333333333,0.07360926,0.75976366,0.4537201499999999
998,1778426753020,-0.0995092947142857,0.5445265485714286,-0.8091238785714285,0.1418080028571428,0.8715520085714284,0.6168211928571428
999,1778426753030,-0.0161594799714285,0.5860446571428571,-0.9122483557142856,0.3236713085714285,0.8712247285714285,0.7290240499999999
1000,1778426753040,-0.0064028124,0.5876562,-0.94151837,0.40210205,0.8353582,0.73823065
