id,timestamp,acc_x,acc_y,acc_z,gyro_x,gyro_y,gyro_z
0,1778427216790,-0.33806852,0.3061764,0.73309153,0.22510384,0.07651087,0.15378532
1,1778427216800,-0.3366050216666666,0.30649146,0.7342298083333333,0.2228894533333333,0.0714203266666666,0.1582904516666666
2,1778427216810,-0.279071175,0.3312998299999999,0.7885521,0.19417879,0.0436768649999999,0.240146395
3,1778427216820,-0.191096514,0.35592322,0.8685019199999999,0.215299454,0.0809701876,0.257510238
4,1778427216830,-0.1628956783333333,0.3586997999999999,0.8948185,0.24113905,0.107359566,0.22953261
5,1778427216840,-0.1522243266666666,0.36790765,0.9199622,0.3517565733333334,0.2725477,0.08760825
6,1778427216850,-0.1834166285714285,0.3625560142857143,0.8941201285714285,0.4791146814285714,0.4639303228571428,-0.0580540171428571
7,1778427216860,-0.2130002366666666,0.3540958766666666,0.82645069,0.5039638083333333,0.5176573833333333,-0.1004873366666666
8,1778427216870,-0.2991550742857143,0.4144841257142856,0.4512719714285714,0.3438080542857142,0.4702571485714286,-0.1522145171428571
9,1778427216880,-0.3026497633333333,0.419628155,0.4106642033333332,0.252440065,0.3453679299999999,-0.1782962849999999
10,1778427216890,-0.3128536333333333,0.388203555,0.3332816383333333,0.1161152999999999,-0.2416481133333333,-0.44582982
11,1778427216900,-0.2464081185714285,0.3896568857142857,0.3697863814285714,0.1071414014285714,-0.4375322285714286,-0.5531166814285714
12,1778427216910,-0.16342417,0.36724704,0.362460165,0.0897208325,-0.8165741000000001,-0.7890088199999999
13,1778427216920,-0.12573905,0.33904418,0.36563107,0.06856962,-1.1209377,-0.9805914
14,1778427216930,-0.0623207111428571,0.2525060271428571,0.3819125142857142,0.0467748242857142,-1.3273228857142858,-1.1980376714285714
15,1778427216940,0.0082118613333333,0.11175449,0.2987776,-0.0700713358333333,-1.713731516666667,-1.3153201833333334
16,1778427216950,-0.023659917,0.023476979,0.23068418,-0.2254747228571428,-2.0784908,-1.217519842857143
17,1778427216960,-0.0224911496666666,0.0264751215,0.2280519166666666,-0.301716525,-2.24925675,-1.1446850666666666
18,1778427216970,0.0124600763333333,0.057117154,0.2151345133333333,-0.72189,-3.1040354000000003,-0.752891435
19,1778427216980,0.0353069378571428,0.0712672242857142,0.21910687,-1.0141454142857145,-3.5616716285714283,-0.5687155728571428
20,1778427216990,-0.0446774041666666,0.1561879666666666,0.308209045,-1.2564735,-3.7622427,-0.49029573
21,1778427217000,-0.1728556176666666,0.2399835016666666,0.41699588,-1.5272903833333331,-3.470681733333333,-0.4661156433333333
22,1778427217010,-0.2204658328571428,0.2810007114285714,0.4202858571428572,-1.6197092285714283,-3.1799899714285713,-0.4642139614285714
23,1778427217020,-0.2642938866666667,0.3121422,0.3895247766666667,-1.7490345166666668,-2.798501083333333,-0.4401284133333333
24,1778427217030,-0.31007907,0.2876997,0.33764166,-1.9588921,-2.3715315,-0.33628133
25,1778427217040,-0.3400909833333334,0.1510250663333333,0.32207164,-2.29209365,-1.8947003333333337,0.090306245
26,1778427217050,-0.1349469,-0.1557408,0.33008024,-2.8127290142857144,-1.6327992000000002,0.8431030971428571
27,1778427217060,0.1122219916666666,-0.24116245,0.4126053733333333,-3.0681470999999996,-1.5771013500000002,1.1184179
28,1778427217070,0.1844184242857142,-0.26445794,0.4412975285714285,-3.3150567,-1.470069,1.336660442857143
29,1778427217080,0.371556225,-0.3212890666666666,0.5832759083333333,-3.7311649,-1.1643855,1.4207962499999998
30,1778427217090,0.4176288714285713,-0.3551513971428571,0.6654656385714286,-4.1755695,-1.1591167,1.3984233
31,1778427217100,0.42362225,-0.36014298,0.6768687400000001,-4.1755695,-1.1591167,1.3984233
32,1778427217110,0.4758610933333333,-0.4651084333333333,0.7962659333333333,-4.327750966666667,-1.4094697333333333,1.28780575
33,1778427217120,0.55092064,-0.60033116,1.0393550714285715,-4.2527349857142855,-2.309812442857143,1.0377073714285714
34,1778427217130,0.6036022849999999,-0.64528155,1.17192815,-4.0470334333333335,-2.748817316666667,0.9612982933333334
35,1778427217140,0.7179890566666667,-0.7002440999999999,1.3091414,-2.8431196,-4.213443,0.7270824
36,1778427217150,0.8069024714285715,-0.7402261142857143,1.3604887571428572,-2.675502485714286,-4.415683114285715,0.6594726857142857
37,1778427217160,0.90374175,-0.7763258,1.44846865,-2.3420318166666667,-4.835940283333334,0.5130758916666667
38,1778427217170,0.9189037714285714,-0.7738517714285714,1.574290485714286,-1.5407549,-5.8018456,0.25793785
39,1778427217180,0.9194032,-0.7592109666666667,1.6768865000000002,-1.4538084333333334,-5.8095322,0.2693406666666667
40,1778427217190,0.9889397666666668,-0.7596785,1.8815834,-1.0528772066666667,-5.4512596,0.3764457
41,1778427217200,1.0083413,-0.7608879216666667,1.9111989666666669,-0.9030115733333334,-5.18148625,0.4266893633333333
42,1778427217210,1.1283324285714285,-0.7295547185714285,1.9477095,-0.5895940457142858,-4.341833714285714,0.4621195528571428
43,1778427217220,1.1309806,-0.5579594,1.8612671,-0.2698497266666667,-3.038698333333333,0.34961855
44,1778427217230,1.0891488666666669,-0.46872656,1.8507787666666669,-0.1891136883333333,-1.7079029166666666,0.1665371416666666
45,1778427217240,1.0487196733333333,-0.411335,1.825259,-0.27453302,-0.9479101533333332,0.0638354193333333
46,1778427217250,0.9147833685714284,-0.3317353928571429,1.7206143571428572,-0.3574434457142857,-0.4862051028571428,-0.0048651047142857
47,1778427217260,0.8153525,-0.29019985,1.8257772,-0.45677447,0.3831651999999999,-0.10705414
48,1778427217270,0.8039290333333334,-0.29617583,1.8850083333333336,-0.311693995,0.7855727,-0.0574213341666666
49,1778427217280,0.8087057,-0.2927406733333333,1.9432027666666667,-0.1600466985,1.0573314,-0.0212275673
50,1778427217290,0.8261457499999999,-0.2679119849999999,1.9724321,0.0419715308333333,1.3262903,0.0118864198333333
51,1778427217300,0.8437426285714286,-0.2351792357142857,1.9912050285714284,0.5918847842857142,1.7889625142857142,0.0457712601428571
52,1778427217310,0.8637612,-0.2199170185714285,1.9902641857142855,1.12080682,1.9367265142857144,0.0188931892857142
53,1778427217320,0.9163136,-0.2305215766666667,1.9935106333333332,1.69410745,2.108452333333333,-0.0373136865
54,1778427217330,0.9634200083333332,-0.2639991216666666,1.9415259333333337,1.95331795,2.26050685,-0.06826419
55,1778427217340,0.9588974,-0.26775953,1.8354731,2.4398720666666667,2.4386505,-0.1444441866666666
56,1778427217350,0.961946335,-0.278308925,1.8221186000000005,2.6342799500000003,2.5032494,-0.176921855
57,1778427217360,0.9534527914285714,-0.2958273628571429,1.7513566,2.9903161714285713,2.671881,-0.24358251
58,1778427217370,0.939536525,-0.2948545966666666,1.7133011833333331,3.19485075,2.7513371,-0.2932916716666666
59,1778427217380,0.916943735,-0.294895245,1.6963795,3.3891313666666663,2.7310767333333335,-0.3510439
60,1778427217390,0.87652325,-0.3104536628571429,1.6818664428571428,3.722416557142857,2.647293714285714,-0.4268857357142857
61,1778427217400,0.8656907416666667,-0.319662975,1.6810025333333334,3.7910298,2.63069125,-0.438092205
62,1778427217410,0.8084008,-0.3421541,1.6603407,4.126242085714286,2.566114,-0.4610723514285714
63,1778427217420,0.8003109,-0.3397962433333333,1.6512142,4.2334235,2.54168305,-0.464563
64,1778427217430,0.7690286,-0.3206487966666667,1.6126754666666667,4.5610253,2.37366965,-0.4826599
65,1778427217440,0.73220735,-0.2749245899999999,1.5358823499999998,4.8748572999999995,2.1280255,-0.5364924
66,1778427217450,0.7130206928571429,-0.2435595142857142,1.4612699142857142,4.999932,2.008525,-0.572228
67,1778427217460,0.6861782666666666,-0.21064237,1.3929064,5.186118866666667,1.7083100833333331,-0.7152723166666667
68,1778427217470,0.6448750333333333,-0.1586068033333333,1.3261139333333334,5.328119399999999,1.3580043666666668,-0.9437359
69,1778427217480,0.6026469333333333,-0.1430164666666666,1.2737125,5.3566775,1.2896893,-0.9981538
70,1778427217490,0.5626547685714286,-0.1392851271428571,1.2468933285714283,5.4058956714285715,1.1621929000000002,-1.207331542857143
71,1778427217500,0.50798695,-0.131775985,1.2226628,5.4148114666666665,1.1433360666666668,-1.2662727666666669
72,1778427217510,0.4554940249999999,-0.1182589399999999,1.1975698333333331,5.4155495,1.17377755,-1.3261121
73,1778427217520,0.44395448,-0.1155032574285714,1.1812187571428574,5.4156255714285715,1.2624839714285714,-1.3467396857142857
74,1778427217530,0.4319154299999999,-0.1126894949999999,1.0676233,5.4130295,1.461037,-1.35810615
75,1778427217540,0.4274726614285714,-0.097688625,0.9938732714285716,5.397474428571429,1.7857772857142855,-1.3882567
76,1778427217550,0.4151054999999999,-0.0895987233333333,0.9413760333333334,5.380806500000001,1.9136371666666667,-1.4165455666666666
77,1778427217560,0.3770037,-0.0566496465,0.80614463,5.3076045,2.1037181,-1.5001323
78,1778427217570,0.3418695466666666,-0.018456361,0.7219323866666666,5.250081349999999,2.1294763,-1.55251405
79,1778427217580,0.23647723,0.016525354,0.63863486,5.055826,2.0609066,-1.7130189
80,1778427217590,0.1696033966666666,0.021119118,0.63631762,4.977737066666667,1.9383263333333336,-1.7305303666666667
81,1778427217600,0.13616648,0.023416,0.635159,4.9280898,1.856397685714286,-1.7327411142857143
82,1778427217610,0.0729717366666666,0.0212004233333333,0.6707301833333333,4.853222766666667,1.7012088333333333,-1.6550885
83,1778427217620,0.0420146464999999,0.0137812918,0.706840025,4.84240515,1.63368275,-1.54350375
84,1778427217630,0.0316786788333333,-0.0390774820666666,0.7433868833333332,4.9968775,1.73233745,-1.402037566666667
85,1778427217640,0.028111396,-0.049576063,0.67906404,5.12525084,1.81973698,-1.35065364
86,1778427217650,0.0096347084285714,-0.0406643932857142,0.6290175685714285,5.187292957142857,1.8413878,-1.3323626
87,1778427217660,-0.015000875,-0.028782167,0.56228894,5.3120078,1.803656,-1.27838825
88,1778427217670,-0.015000875,-0.028782167,0.56228894,5.344002,1.7534887,-1.2513574
89,1778427217680,-0.14817938,0.005366167,0.28147984,5.37744697142857,1.5555901285714284,-1.0794425
90,1778427217690,-0.18744996,0.019330395,0.21501255,5.364720216666666,1.4340570666666668,-0.9425396166666666
91,1778427217700,-0.1969931999999999,0.01667780225,0.178912875,5.34163465,1.39185645,-0.8365035949999999
92,1778427217710,-0.212481915,0.0290667349166666,0.0796997708333333,5.296099866666666,1.3701198,-0.7070765200000001
93,1778427217720,-0.2123991557142857,0.0454033428571428,0.0427202627142857,5.178391985714286,1.3819735142857144,-0.5415102142857143
94,1778427217730,-0.20692264,0.0877896716666666,-0.0323087975,4.87333,1.4553864,-0.27107146
95,1778427217740,-0.1892996666666666,0.1434433333333333,-0.1162466233333333,4.784755,1.4585679833333334,-0.2180025266666666
96,1778427217750,-0.1599570671428571,0.1782856642857142,-0.1821360628571428,4.5872927,1.4089607,-0.15210545
97,1778427217760,-0.0975666716666666,0.2194132133333333,-0.3250494316666666,4.458858,1.346347,-0.18982637
98,1778427217770,-0.0902593341666666,0.2259481483333333,-0.3603868583333333,4.441295616666667,1.3348678166666668,-0.205250715
99,1778427217780,-0.093359105,0.23641624,-0.4466724,4.3534837,1.2774719,-0.28237244
100,1778427217790,-0.1442767125,0.259191955,-0.5924736,4.0843212499999995,1.1760683,-0.35590535
101,1778427217800,-0.2362681485714285,0.3146350842857143,-0.8323134000000001,3.3476942,1.039998,-0.40943244
102,1778427217810,-0.25065487,0.334501225,-0.88776522,2.994308733333334,1.0865256666666667,-0.3662646333333333
103,1778427217820,-0.2386985942857142,0.34342596,-0.9071522285714284,2.646530071428572,1.1664690142857144,-0.3258966199999999
104,1778427217830,-0.2139149299999999,0.34873986,-0.9110288,2.0949115,1.31839995,-0.2957606066666667
105,1778427217840,-0.18045478,0.4195889585714286,-0.9396628014285716,1.8134626285714288,1.2536482142857144,-0.33798301
106,1778427217850,-0.17946169,0.41856104,-0.9647513599999998,1.5850426000000002,1.0978775,-0.39400807
107,1778427217860,-0.177601825,0.41288997,-0.98908208,1.5012777,1.032820375,-0.42065707
108,1778427217870,-0.17574196,0.4072189,-1.0134128,1.4175127999999997,0.96776325,-0.44730607
109,1778427217880,-0.183455825,0.41465835,-1.1507683999999998,1.133994985,0.8797223383333334,-0.500858585
110,1778427217890,-0.1803153933333333,0.4193131,-1.2165750333333334,0.8814276566666667,0.8250753666666667,-0.5455535333333333
111,1778427217900,-0.1757681028571428,0.42074754,-1.2860332714285716,0.4731369571428571,0.7534150142857142,-0.6173665999999999
112,1778427217910,-0.17196126,0.4179512,-1.3122412,0.3053308166666666,0.7354817499999999,-0.6411030833333333
113,1778427217920,-0.2031012783333333,0.3998200866666666,-1.3519487333333335,-0.1373174083333333,0.6752351750000001,-0.689208725
114,1778427217930,-0.22803595,0.4006244314285714,-1.3462718857142857,-0.3812453771428571,0.6141595542857142,-0.6808093285714286
115,1778427217940,-0.25574663,0.40173078,-1.3031858,-0.7080946466666668,0.53842678,-0.6407467333333333
116,1778427217950,-0.2463558499999999,0.40953606,-1.244219,-1.0957395,0.4404338300000001,-0.57757306
117,1778427217960,-0.2471398657142857,0.4150503342857142,-1.2147660285714286,-1.1937179142857144,0.3873540114285714,-0.5663157057142857
118,1778427217970,-0.24818522,0.4224026999999999,-1.1754954,-1.3243558,0.31658092,-0.5513059
119,1778427217980,-0.2579505857142857,0.4364104971428571,-1.0832251857142856,-1.574832385714286,0.0269435228571428,-0.5259113428571428
120,1778427217990,-0.2660521,0.43350092,-1.0331701,-1.672090833333333,-0.1033889416666666,-0.5107851666666666
121,1778427218000,-0.2672019857142857,0.4313405085714286,-0.9955371857142856,-1.7708546857142855,-0.2525927799999999,-0.48456885
122,1778427218010,-0.2671497249999999,0.422433185,-0.94554295,-1.9427042,-0.497167945,-0.43363796
123,1778427218020,-0.2661334166666666,0.4101052266666666,-0.91430131,-2.0476202666666663,-0.6045529533333333,-0.3970115
124,1778427218030,-0.2675853071428571,0.3795517614285714,-0.8666097514285713,-2.2635174714285715,-0.6945974142857143,-0.3070688742857143
125,1778427218040,-0.26178357,0.360112465,-0.826968925,-2.4507149333333333,-0.682514655,-0.2172135066666667
126,1778427218050,-0.2395348842857143,0.3399762628571428,-0.7548698328571428,-2.6955955,-0.6314819500000001,-0.0954477
127,1778427218060,-0.2154393966666666,0.3419101933333333,-0.7016872766666666,-2.8392762499999997,-0.6160830333333333,-0.0403425608333333
128,1778427218070,-0.1948807057142857,0.3511093457142857,-0.6509526142857143,-2.935032971428571,-0.64948065,-0.0214675507142857
129,1778427218080,-0.1819269914285714,0.3498461914285714,-0.6049481928571429,-3.0439414857142855,-0.7433357514285713,-0.0161006622857142
130,1778427218090,-0.1773884,0.3430077999999999,-0.5909491,-3.0879238,-0.7932085399999999,-0.016493361
131,1778427218100,-0.1732824733333333,0.3358122666666667,-0.5814770333333333,-3.2523483333333334,-0.9656761133333336,-0.018325957
132,1778427218110,-0.1695830671428571,0.3284512142857143,-0.56270706,-3.529470257142857,-1.1371256714285711,-0.0178023587142857
133,1778427218120,-0.1710465628571428,0.3147309028571428,-0.5129741671428572,-3.6930512571428578,-1.1561061,-0.0049305554285714
134,1778427218130,-0.17257104,0.297822255,-0.422067315,-3.99521135,-1.1324678,0.0290160995
135,1778427218140,-0.16921718,0.29251707,-0.37252176,-4.1225767,-1.1024591,0.046120327
136,1778427218150,-0.13687791,0.2760933633333333,-0.13090194,-4.4159448,-0.995404935,0.0552069475
137,1778427218160,-0.12869219,0.2708781685714286,-0.0087635771428571,-4.515995671428572,-0.9767516914285714,0.0049523714285714
138,1778427218170,-0.1340220533333333,0.284772705,0.138514185,-4.48207085,-1.0507646000000002,-0.036957347
139,1778427218180,-0.1478135,0.2858296833333333,0.1997067866666666,-4.314541133333333,-1.3034846333333334,-0.0945313966666666
140,1778427218190,-0.1575963,0.28241195,0.2191068771428571,-4.231048971428572,-1.4313445142857144,-0.1099557442857142
141,1778427218200,-0.1942593066666667,0.2604420366666666,0.1885476,-4.100254766666667,-1.8226691333333336,-0.02827797
142,1778427218210,-0.2148557285714285,0.24885598,0.1786689571428571,-4.2233696,-1.9049833,0.07925977
143,1778427218220,-0.2365382,0.242941,0.28196767,-4.367271942857143,-1.9315122714285715,0.15762505
144,1778427218230,-0.2074714583333333,0.2273913083333333,0.4227278866666666,-4.600528033333333,-1.9945768,0.3045672366666667
145,1778427218240,-0.20165811,0.22428137,0.45087993,-4.663192700000001,-2.0161607,0.34865135
146,1778427218250,-0.14381937,0.2069328,0.649611075,-4.710076533333333,-2.1302907,0.4362596066666666
147,1778427218260,-0.12360478,0.20638399,0.7483973,-4.659451166666666,-2.28170895,0.4753804366666667
148,1778427218270,-0.098568474,0.2071288085714285,0.8130526714285714,-4.615676114285714,-2.3255858,0.4843943285714285
149,1778427218280,-0.0088419795,0.2037009149999999,0.89849755,-4.4796277,-2.39062105,0.479911
150,1778427218290,0.0804053928571428,0.2241855428571428,0.8952612642857142,-4.444633785714286,-2.327963814285714,0.3903647071428571
151,1778427218300,0.1234320083333333,0.2356438133333333,0.874309095,-4.49479725,-2.220520666666667,0.1998801999999999
152,1778427218310,0.1178524,0.212695325,0.8740144,-4.635907333333333,-2.1340069,0.0357356166666666
153,1778427218320,0.0473706483333333,0.1770530133333333,0.93377395,-4.883816666666666,-2.0345884333333335,-0.1298343083333333
154,1778427218330,0.0115250621428571,0.1362623071428571,0.9956242714285716,-4.953069914285714,-2.0189313714285713,-0.1468476342857143
155,1778427218340,-0.017988855,0.09012721,1.0623181,-5.0352097,-2.0102048,-0.14248432
156,1778427218350,-0.0129711404142857,0.0529124950428571,1.1190548285714286,-4.946263257142857,-2.1008528857142856,-0.0966694257142857
157,1778427218360,0.0141166763499999,-0.00128056245,1.20110665,-4.7232864999999995,-2.3318254499999997,0.006795875
158,1778427218370,0.0752787835,6.0979200000000136e-05,1.1996737,-4.5021533499999995,-2.59984255,0.084452118
159,1778427218380,0.11604336,0.0059759584,1.1918379,-4.3822164428571435,-2.7630308285714285,0.1228711785714285
160,1778427218390,0.11604336,0.0059759583999999,1.1918379,-4.3742533,-2.7762299,0.13072516
161,1778427218400,0.164552285,-0.0540885208,1.18769125,-4.486932483333334,-2.5775459166666668,0.1261691233333333
162,1778427218410,0.21644555,-0.11808616,1.1877217,-4.671286433333333,-2.2596414,0.1253800913333333
163,1778427218420,0.2350137085714285,-0.1271415671428571,1.2220573714285714,-4.808120442857144,-2.2127065999999997,0.0989819831428571
164,1778427218430,0.2719264333333333,-0.15346424,1.2920266,-4.884580433333333,-2.223702166666667,0.0523816904333333
165,1778427218440,0.3217260733333333,-0.23127366,1.386341066666667,-4.907589766666667,-2.2124011666666665,-0.0299833028999999
166,1778427218450,0.32995826,-0.25068536,1.4037405000000005,-4.9035683,-2.198504,-0.0418442699999999
167,1778427218460,0.329348468,-0.260320064,1.4201073000000002,-4.8611742399999995,-2.2146614,-0.0366824584
168,1778427218470,0.3559354,-0.32001868,1.5691769,-4.5033638571428565,-2.4186992,0.0461421434285714
169,1778427218480,0.36479771,-0.3266755699999999,1.5854177,-4.420093416666666,-2.4637214166666666,0.071013085
170,1778427218490,0.4246386,-0.3626837733333333,1.6903629666666669,-4.032957666666666,-2.6144015,0.1628973966666666
171,1778427218500,0.44623683,-0.3727917928571428,1.7343608,-3.658886428571429,-2.6924758857142854,0.1849176385714286
172,1778427218510,0.4460538685714285,-0.3884460114285714,1.7305452285714285,-3.1630820285714285,-2.745904757142857,0.2382374328571428
173,1778427218520,0.4386536466666667,-0.3874717966666667,1.7201510666666666,-2.927877066666667,-2.7411814500000005,0.2836450716666667
174,1778427218530,0.4362885342857142,-0.3858500428571428,1.718297,-2.4876396714285716,-2.678425971428571,0.4066835257142857
175,1778427218540,0.41944523,-0.371698525,1.71400245,-2.0752618666666667,-2.5723535833333333,0.5589416783333333
176,1778427218550,0.39274651,-0.3115933833333333,1.7375200833333333,-1.753157766666667,-2.535370783333333,0.7401905083333333
177,1778427218560,0.39496209,-0.255655155,1.782604,-1.5694655,-2.5466208,0.852767885
178,1778427218570,0.465454,-0.124336526,1.9774325,-1.24654685,-2.5429556,1.019992215
179,1778427218580,0.4795140571428571,-0.113029246,1.9954649285714283,-0.970948457142857,-2.506838257142857,1.1311915142857143
180,1778427218590,0.59704703,0.041343875,2.0820727,-0.09330966,-2.349235,1.3261884
181,1778427218600,0.6544487433333334,0.0895987249999999,2.0995940999999996,0.30235284,-2.23762475,1.3674218166666667
182,1778427218610,0.7129887500000001,0.12266976,2.1004885333333334,0.5065600066666667,-2.1588486,1.3697125666666663
183,1778427218620,0.8157183250000001,0.15442974,2.04249735,0.94783377,-1.87810515,1.31381845
184,1778427218630,0.8930050571428572,0.1801063285714285,1.9635639857142857,1.2398383142857143,-1.5422820142857143,1.2217523142857143
185,1778427218640,0.9379031428571428,0.1868140371428571,1.9132126428571428,1.395172657142857,-1.1745629857142856,1.1010845714285715
186,1778427218650,1.0553867666666668,0.1788518933333333,1.710669,1.645976433333333,-0.1442660066666666,0.6885978333333332
187,1778427218660,1.0733814428571429,0.1652448314285714,1.6270113428571429,1.6623607571428571,0.3203988142857143,0.4323398714285714
188,1778427218670,1.044808314285714,0.1244584828571428,1.5245924285714287,1.627454142857143,0.8249735014285715,0.083383108
189,1778427218680,1.00377802,0.089425947,1.48655015,1.604743,1.1152872,-0.131234214
190,1778427218690,0.85991082,0.0125268635714285,1.4211979714285712,1.6018632000000002,1.4339843142857145,-0.3412118685714285
191,1778427218700,0.7978601785714287,-0.0066902859285714,1.391684,1.6128369714285715,1.8851301714285715,-0.5862124785714286
192,1778427218710,0.73790895,-0.0144215735,1.3657504000000005,1.6168076000000002,1.9526308000000003,-0.61544675
193,1778427218720,0.6980547,-0.0183111727142857,1.3676233714285717,1.6307483571428574,2.0426026,-0.6914121714285714
194,1778427218730,0.6748477857142857,-0.0288692801428571,1.4005869714285717,1.6738580714285711,2.0508055142857144,-0.7620107428571429
195,1778427218740,0.6321304,-0.0533161206666666,1.4696589,1.8396206666666668,2.028836233333333,-0.8254062000000001
196,1778427218750,0.61114339,-0.0690487466666666,1.516186,2.0326031,1.9755637,-0.8301913166666667
197,1778427218760,0.61107224,-0.08744413,1.5552737,2.065488,1.9657644,-0.829555
198,1778427218770,0.61107224,-0.08744413,1.5552737,2.3741279,1.8385516,-0.8330675
199,1778427218780,0.6059238428571428,-0.09469194,1.5228588714285711,2.706460314285714,1.6730725999999998,-0.8732537028571429
200,1778427218790,0.5918739583333333,-0.092302135,1.4860623833333333,2.9322040833333336,1.5535830333333334,-0.9148979916666669
201,1778427218800,0.5731780442857143,-0.0863116557142857,1.4888325428571427,3.016823471428572,1.5142040714285714,-0.9168433
202,1778427218810,0.5638743685714286,-0.0828445528571428,1.5027357857142858,3.1436652857142855,1.4698727285714288,-0.9050623142857144
203,1778427218820,0.559270415,-0.080370542,1.52204005,3.3260086,1.4186582,-0.89591025
204,1778427218830,0.5558250866666666,-0.077992356,1.5242962666666664,3.487277066666666,1.3709343333333333,-0.9003135666666666
205,1778427218840,0.5580900428571428,-0.0636796728571428,1.4796595428571426,3.7982947428571423,1.2978705142857143,-0.9398161571428572
206,1778427218850,0.5739461266666667,-0.0476857083333333,1.4008236333333333,3.9632175,1.2822062,-0.99792473
207,1778427218860,0.5786226428571428,-0.0418142857142857,1.3655152285714285,4.074384142857143,1.311876742857143,-1.0956522857142856
208,1778427218870,0.5839365,-0.03292875,1.3089788,4.071875,1.4194981,-1.2301298
209,1778427218880,0.5754705416666667,-0.0143605946366666,1.26462665,4.0611848833333335,1.4394784833333334,-1.2448414833333334
210,1778427218890,0.5478542285714285,0.0009233988257142,1.226700557142857,3.995756971428572,1.5680474285714283,-1.3315771428571428
211,1778427218900,0.4858558714285714,0.0033799880571428,1.2148705285714283,3.919311428571429,1.8003726,-1.4256940285714286
212,1778427218910,0.4548436066666666,-0.0009756666,1.2060866,3.9174788,1.8245018,-1.4317154
213,1778427218920,0.40532854,-0.009268833,1.18824,4.017508,1.9703459,-1.42973
214,1778427218930,0.3902667,-0.009207855,1.1360419,4.114177,1.9937115,-1.4213306999999995
215,1778427218940,0.32953143,0.0078053335,0.97731316,4.2106943,2.0599904,-1.4202617
216,1778427218950,0.3153407057142857,0.0108368692857142,0.9517803185714284,4.211457942857143,2.1124594,-1.4143712
217,1778427218960,0.29641974,0.014878917,0.91773653,4.2117634,2.133447,-1.412015
218,1778427218970,0.2149922166666666,0.03528661,0.8305362733333334,4.1967968,2.1229093999999997,-1.3935873
219,1778427218980,0.19537725,0.03872177,0.81504756,4.1935897,2.1114557,-1.3886495
220,1778427218990,0.149429445,0.0484174585,0.789100915,4.1967206,2.09312975,-1.3665819499999998
221,1778427219000,0.091814296,0.0605116596666666,0.7627884233333333,4.241797533333333,1.8774943666666664,-1.2278392
222,1778427219010,0.0748301497142857,0.0617980331428571,0.7427436928571429,4.314715857142857,1.7959438142857145,-1.1796463
223,1778427219020,0.0646727628571428,0.0752134457142857,0.7008248528571429,4.426329571428572,1.6771741,-1.1220504142857144
224,1778427219030,0.0704483614285714,0.0815204337142857,0.6630700428571429,4.475547828571428,1.647438042857143,-1.1099858285714286
225,1778427219040,0.06621466,0.0950752325714285,0.5929178428571429,4.5130723999999995,1.6840899714285713,-1.1354021857142855
226,1778427219050,0.06250364,0.099274084,0.5744847,4.5109344,1.6907222,-1.1455251
227,1778427219060,-0.0115511974285714,0.1239880714285714,0.5034527285714285,4.452007857142857,1.7298831285714285,-1.1509137428571428
228,1778427219070,-0.116836086,0.14238635,0.43892804,4.340656,1.7962493,-1.0528263
229,1778427219080,-0.1299770979999999,0.142477825,0.4152681200000001,4.3322056,1.804495966666667,-1.0137309133333334
230,1778427219090,-0.1662466385714285,0.1619955214285714,0.3781928,4.2928337999999995,1.760884514285714,-0.8541641114285714
231,1778427219100,-0.1896858633333333,0.1786689633333333,0.3740462133333333,4.3030874500000005,1.7020232999999998,-0.7615962199999999
232,1778427219110,-0.1994454414285714,0.1697398742857143,0.3634706714285714,4.3223295,1.667204,-0.7015787399999999
233,1778427219120,-0.189126895,0.169095235,0.3459958,4.481154766666667,1.5672257333333333,-0.5669847533333333
234,1778427219130,-0.17836407,0.17068069,0.33038515,4.6027171,1.4854206666666665,-0.4869614066666667
235,1778427219140,-0.19381792,0.1920495428571428,0.2434288485714285,4.7564805,1.354680914285714,-0.4334089
236,1778427219150,-0.2053981566666666,0.1955093833333333,0.2040566366666666,4.817766916666667,1.3017283666666666,-0.4056145316666666
237,1778427219160,-0.21348806,0.17061971,0.053783625,4.8757953857142855,1.2952961,-0.3613922457142857
238,1778427219170,-0.2399123766666666,0.1703148183333333,-0.0441895708333333,4.969694283333333,1.37531225,-0.2468659133333333
239,1778427219180,-0.24519724,0.17025384,-0.06378421,4.9739704,1.3833044,-0.23671028
240,1778427219190,-0.2774552171428571,0.1817266257142857,-0.2014838914285714,4.9496884,1.4214834,-0.15118915
241,1778427219200,-0.29371632,0.2022679066666667,-0.33983692,4.86376,1.40840075,-0.0608319953333333
242,1778427219210,-0.2970121185714285,0.2200651099999999,-0.5002469571428572,4.757593,1.3620549142857143,-0.0089448125714285
243,1778427219220,-0.3168216228571428,0.2633080614285714,-0.6631658714285714,4.450306,1.110553,0.07009678
244,1778427219230,-0.3235757933333333,0.2781056666666666,-0.71979811,4.375373233333334,1.0390308666666666,0.0764599619999999
245,1778427219240,-0.3338609333333333,0.31672578,-0.8609038766666668,4.052836433333333,0.7504988666666667,0.0856229486666666
246,1778427219250,-0.33550736,0.3280679,-0.8982231,3.9665008,0.677755,0.0838412599999999
247,1778427219260,-0.3415646333333333,0.3239619733333334,-0.9632472333333334,3.732488533333333,0.61595579,0.0837394466666666
248,1778427219270,-0.3445729399999999,0.31920562,-1.1202889,3.0134746499999996,0.530231035,0.09888381
249,1778427219280,-0.3243046314285714,0.3291219928571429,-1.143333257142857,2.477647585714286,0.6533640142857143,0.1162389279999999
250,1778427219290,-0.28023992,0.34562992,-1.1635435333333335,2.0418679666666666,0.7620035000000001,0.085164798
251,1778427219300,-0.26410076,0.35081315,-1.1700683,1.8084665714285717,0.7878852785714285,0.0290815514285714
252,1778427219310,-0.2434186683333333,0.3509656083333333,-1.1891751333333334,1.6453656,0.7925976499999999,-0.02397646
253,1778427219320,-0.2301963533333333,0.3493293483333333,-1.2211180333333334,1.28538775,0.7174866666666667,-0.21240293
254,1778427219330,-0.2156397471428571,0.3229282642857142,-1.2998232714285716,0.8562367428571428,0.6369797342857143,-0.4501640428571428
255,1778427219340,-0.2150938399999999,0.3047942233333333,-1.351176333333333,0.649349765,0.63873597,-0.53084191
256,1778427219350,-0.21550037,0.29727346,-1.3716043000000002,0.49373183,0.647059,-0.5876524
257,1778427219360,-0.2377577699999999,0.2727191633333333,-1.4208146666666668,0.1376482966666666,0.6904304533333333,-0.65265861
258,1778427219370,-0.28324825,0.25781992,-1.4556947,-0.32925636,0.7518224,-0.68035114
259,1778427219380,-0.3208114166666666,0.27030032,-1.440531166666667,-0.7037167866666666,0.7451029,-0.63606342
260,1778427219390,-0.3400111314285715,0.2860532685714285,-1.3976163142857143,-1.0486156857142857,0.7003133857142857,-0.5781185071428572
261,1778427219400,-0.32941817,0.2962193728571428,-1.3363061,-1.3929691714285717,0.5841617,-0.4987060271428571
262,1778427219410,-0.31422567,0.31709167,-1.2166563,-1.7463111,0.28710666,-0.43982297
263,1778427219420,-0.3233725,0.32751912,-1.1655558,-1.86912035,0.0675769683333333,-0.41157047
264,1778427219430,-0.3251757471428571,0.3281027771428571,-1.159431757142857,-1.9098483142857143,-0.0074612799999999,-0.3990041028571429
265,1778427219440,-0.3344504099999999,0.3241652399999999,-1.0982144333333337,-2.1222985333333333,-0.3380121133333333,-0.3065016466666667
266,1778427219450,-0.3330159428571428,0.3171003714285714,-1.0727193,-2.2046126285714287,-0.4250967857142856,-0.2695879285714286
267,1778427219460,-0.3160143583333333,0.3017757583333333,-0.9720383833333334,-2.4645358,-0.54321195,-0.144698705
268,1778427219470,-0.30513975,0.29937724,-0.9314263,-2.6545913000000003,-0.57925295,-0.0490982949999999
269,1778427219480,-0.27257687,0.2895291,-0.7866922,-2.898403,-0.6079636,0.07941248
270,1778427219490,-0.2662248783333333,0.276926725,-0.7386203666666667,-2.9338331666666666,-0.6091344333333334,0.1038979966666666
271,1778427219500,-0.2609472771428571,0.2729775957142857,-0.719650042857143,-3.0155145428571433,-0.61215242,0.1616174928571428
272,1778427219510,-0.22942395,0.2731053599999999,-0.6767874766666666,-3.1332805333333336,-0.6488916066666667,0.25004749
273,1778427219520,-0.2102561766666666,0.27292242,-0.6640834466666666,-3.1865785,-0.6902777200000001,0.2754238499999999
274,1778427219530,-0.1904785999999999,0.2697921666666666,-0.6674576333333334,-3.3233105333333337,-0.8354600266666666,0.2848668333333333
275,1778427219540,-0.1542424457142857,0.2546751428571428,-0.6899793142857142,-3.484702642857143,-1.0050479114285715,0.2723586285714286
276,1778427219550,-0.1522243266666666,0.248042925,-0.6951625333333333,-3.5431711833333335,-1.0611239,0.2659809
277,1778427219560,-0.15232596,0.2366601499999999,-0.6954674,-3.6225836,-1.1224649,0.2611449
278,1778427219570,-0.14994777,0.2265985828571428,-0.6895349857142856,-3.691764071428571,-1.1639600857142856,0.2660536371428571
279,1778427219580,-0.1101385374999999,0.1492566766666666,-0.4835444583333333,-4.449211616666666,-1.4890858333333332,0.3531564616666667
280,1778427219590,-0.0917431575,0.124031628,-0.365539625,-4.7584112,-1.55778275,0.401796615
281,1778427219600,-0.066772185,0.089700356,-0.15964346,-5.130788085714286,-1.5158403000000005,0.4741187
282,1778427219610,-0.02786748,0.0851879,0.026769854,-5.3753085,-1.3924674,0.5233588
283,1778427219620,-0.0122161599999999,0.0887246866666666,0.1025059846666666,-5.385744166666666,-1.3871477666666667,0.5233333433333334
284,1778427219630,0.00085370836,0.11762882,0.36550912,-5.417502214285713,-1.4349006285714283,0.4905684085714286
285,1778427219640,-0.0011281146066666,0.1214400158333333,0.43177317,-5.300325,-1.6094772,0.44440445
286,1778427219650,0.0066467289,0.1143969174999999,0.5028952050000001,-5.2016702,-1.66392055,0.440891975
287,1778427219660,0.00914687485,0.121318055,0.584302395,-5.003139,-1.7998381,0.43142357
288,1778427219670,-0.0224838905571428,0.1552790957142857,0.6165864971428572,-4.8758390857142855,-1.9442750571428573,0.4240931942857143
289,1778427219680,-0.10738432,0.1998287399999999,0.74138474,-4.837696333333333,-2.0712913833333335,0.4392884716666667
290,1778427219690,-0.0979238354285714,0.1847755971428571,0.8075819685714285,-4.834911014285715,-2.2622085000000003,0.6129160314285714
291,1778427219700,-0.085309856,0.16470474,0.89584494,-4.8417177,-2.2296581,0.7309003
292,1778427219710,-0.0536006891428571,0.1634154599999999,0.9925753171428572,-4.780456728571429,-1.977981642857143,0.8676468371428571
293,1778427219720,-0.0142386361,0.161076465,1.0707637,-4.687474300000001,-1.6972127,0.99746657
294,1778427219730,0.0370404910285714,0.1749927814285714,1.0587377714285715,-4.536830628571429,-1.4900748142857143,1.031664114285714
295,1778427219740,0.1291538733333333,0.2553909166666666,0.9550455666666666,-4.281096333333333,-1.4494813666666666,0.9604838
296,1778427219750,0.1315320599999999,0.2913584666666666,0.9246881,-4.197560433333334,-1.6800321333333337,0.8747081333333334
297,1778427219760,0.08348048,0.3481097399999999,0.9099311333333334,-4.14357515,-2.4210117,0.7413613200000001
298,1778427219770,0.0601254614285714,0.3168738914285714,0.9447415428571428,-4.142342571428571,-2.9065622285714285,0.7120070571428572
299,1778427219780,0.05668014,0.183272898,1.05987895,-4.1402155,-3.2122349000000003,0.87094115
300,1778427219790,0.0832539842857142,0.0281026857142857,1.2434000714285711,-4.018511514285715,-3.0930507142857144,1.2694434142857145
301,1778427219800,0.1348452633333333,-0.0001219586666666,1.3008278666666666,-3.8664715,-2.928717,1.4670692
302,1778427219810,0.2452930571428571,0.0090336271428571,1.273619557142857,-3.5293394,-2.634225428571429,1.7445220571428572
303,1778427219820,0.27989438,0.01603752,1.2547683,-3.4478762,-2.5692992,1.7945694
304,1778427219830,0.3325905216666667,0.0434273316666666,1.1817965499999998,-3.4478762,-2.5692992,1.7945694
305,1778427219840,0.4003630714285714,0.0891951054285714,1.0066528142857143,-3.5993925714285715,-2.124720214285714,1.7021541857142857
306,1778427219850,0.4884024833333333,0.155669655,1.06525526,-4.095342666666666,-2.0656917,1.4771739666666666
307,1778427219860,0.4997939714285714,0.15609796,1.1090542714285714,-4.301560642857142,-2.1185678857142856,1.3717415285714287
308,1778427219870,0.49926693,0.060430355,1.2952585,-4.443280949999999,-2.25890335,1.2166145000000002
309,1778427219880,0.5471051133333333,-0.01542773,1.435002433333333,-4.3954298,-2.269211766666667,1.1671089
310,1778427219890,0.5960626514285714,-0.0512312142857142,1.5035023428571428,-4.292528171428571,-2.1797199142857147,1.1371255714285715
311,1778427219900,0.6754459066666666,-0.0856350773333333,1.5980606666666668,-4.0965899,-1.8963038333333333,1.0324386
312,1778427219910,0.7181517,-0.103115775,1.6364369999999997,-3.9488948857142856,-1.5101461714285715,0.9004371657142858
313,1778427219920,0.7139876828571428,-0.1015477392857142,1.6272204285714285,-3.9058724285714286,-1.3515175714285714,0.8421213571428572
314,1778427219930,0.64270014,-0.094222975,1.5529055833333334,-3.81284275,-0.8150469583333333,0.6139196
315,1778427219940,0.63052464,-0.09354204,1.5426509,-3.8006291,-0.7324056185714286,0.5676683714285714
316,1778427219950,0.5739969266666667,-0.077890722,1.5598877833333331,-3.7373754,-0.7153232133333334,0.4445062866666666
317,1778427219960,0.54083439,-0.07420149,1.66864405,-3.5652133,-0.86531605,0.3613267799999999
318,1778427219970,0.5405803,-0.07530928,1.6849153,-3.5359936,-0.8906415,0.35201108
319,1778427219980,0.5590265,-0.10162178,1.83315575,-3.0129400166666667,-1.1001174,0.3315980183333333
320,1778427219990,0.5628783666666667,-0.1127708066666666,1.9096031666666664,-2.6759206666666664,-1.1644364333333332,0.3360522316666666
321,1778427220000,0.53765331,-0.1166531516666666,1.9773917666666665,-2.0560197,-1.0659852666666667,0.4399756916666666
322,1778427220010,0.52213412,-0.090737005,2.0076477,-1.7166331333333336,-0.9688322533333332,0.51424672
323,1778427220020,0.5095419285714285,-0.0277803671428571,2.0078872571428574,-1.273654,-0.81397796,0.6218608
324,1778427220030,0.485211225,0.107567255,2.0182885,-0.7883470316666666,-0.8793659966666666,0.7179448316666667
325,1778427220040,0.5262807,0.1885780783333333,2.087265933333333,-0.273362188,-0.9886854,0.814970615
326,1778427220050,0.63217103,0.2157443,2.113355,0.122071246,-1.0649926333333335,0.84065241
327,1778427220060,0.7053968383333333,0.2263140166666667,2.0702120833333333,1.1447614,-1.0645854,0.7348709000000001
328,1778427220070,0.7619550266666666,0.22688316,1.989099633333333,1.4825189833333334,-0.8605819,0.6097708166666667
329,1778427220080,0.79824346,0.2272606514285714,1.8853974714285715,1.6346971571428572,-0.7074692357142858,0.5257150214285714
330,1778427220090,0.81512889,0.2304606,1.8151263333333336,1.7475327,-0.55771995,0.4470006499999999
331,1778427220100,0.83980509,0.2316801866666666,1.7322352666666667,1.9254727,-0.049683705,0.2183588716666666
332,1778427220110,0.8422442666666666,0.2042192433333333,1.6625361,2.0489439,0.3945680433333332,-0.0287615733333333
333,1778427220120,0.8253182271428571,0.1747662971428571,1.6233438714285715,2.0984094285714288,0.5836599314285714,-0.1549416042857143
334,1778427220130,0.7955342866666667,0.1410244866666666,1.6052563,2.2135211666666668,0.8451320933333334,-0.3667227799999999
335,1778427220140,0.7675447857142856,0.1166095957142857,1.5933421571428572,2.2851814714285714,0.9287769971428572,-0.4490950485714285
336,1778427220150,0.7484176333333333,0.1113886166666666,1.5885886666666666,2.448195166666667,0.98812544,-0.5689191466666667
337,1778427220160,0.7204078800000001,0.1132383149999999,1.586434,2.6262624666666667,0.9802350766666666,-0.6664030666666667
338,1778427220170,0.7090657533333333,0.0966723133333333,1.5681809333333334,2.8896470666666665,0.93106045,-0.7789040666666667
339,1778427220180,0.6984858799999999,0.0726566815,1.54454135,3.1278336,0.9003135666666666,-0.8730791333333334
340,1778427220190,0.6860330314285713,0.0569109865714285,1.513198057142857,3.2803900285714285,0.8843801714285714,-0.9175195857142856
341,1778427220200,0.6744818857142857,0.070866504,1.459013742857143,3.4754523857142856,0.8376707999999999,-0.9758136
342,1778427220210,0.6703439833333333,0.0784801866666666,1.4396979,3.5573229000000004,0.8104145333333334,-1.0095566333333337
343,1778427220220,0.671756675,0.1017335816666666,1.3956200333333333,3.648265349999999,0.8208247000000001,-1.0992774166666666
344,1778427220230,0.6728702414285715,0.1179337128571428,1.3660988285714286,3.6915242142857143,0.8554731400000001,-1.1921689714285717
345,1778427220240,0.67186843,0.1307088475,1.35797555,3.7052796,0.864832465,-1.245936
346,1778427220250,0.6675694666666666,0.1471630533333333,1.35466235,3.7407097,0.8657742166666668,-1.3694071333333333
347,1778427220260,0.6703091428571428,0.1516464728571428,1.3671268428571428,3.803443485714286,0.8648760942857143,-1.4980814714285715
348,1778427220270,0.6590221833333333,0.1522751466666666,1.36943965,3.866675333333333,0.89405222,-1.5836681
349,1778427220280,0.6254125,0.1529662349999999,1.3411859333333334,3.94466235,0.948444675,-1.67293085
350,1778427220290,0.608023255,0.152539385,1.32093065,4.020613133333334,1.0077749666666669,-1.7528269333333333
351,1778427220300,0.58586748,0.14807775,1.2855830666666668,4.126954666666666,1.1150835666666667,-1.8624518166666664
352,1778427220310,0.5554505428571429,0.1413497171428571,1.2302198714285717,4.1460951999999995,1.1513064285714287,-1.8899953142857144
353,1778427220320,0.4893273416666666,0.1515637333333333,1.1401478833333334,4.169333333333333,1.2977322333333334,-1.9646699833333336
354,1778427220330,0.45919927,0.1560282742857142,1.0987749857142857,4.175438428571428,1.362425785714286,-1.9887591714285715
355,1778427220340,0.4282770283333333,0.16043619,1.0550108166666667,4.180507333333334,1.4409293,-2.013361
356,1778427220350,0.394951905,0.1636172783333333,1.00431675,4.1711407,1.6026049999999998,-2.042428
357,1778427220360,0.35299968,0.16449567,0.9052618928571428,4.163221257142857,1.6262324,-2.0477294285714285
358,1778427220370,0.2999666866666666,0.1779981916666666,0.8123441250000001,4.088012,1.7330756833333334,-2.10175825
359,1778427220380,0.23613166,0.1803560533333333,0.7531333666666667,4.03407775,1.75608495,-2.1105394499999997
360,1778427220390,0.1903595342857142,0.1804722057142857,0.7229864428571429,3.9930735,1.7640262,-2.1099286
361,1778427220400,0.14336202,0.18055932,0.7016873,3.944204000000001,1.7690657,-2.0647244
362,1778427220410,0.0406934300333333,0.17697171,0.6739925750000001,3.896098516666666,1.66338605,-1.914858883333333
363,1778427220420,-0.0106365096285714,0.1668564257142857,0.66766961,3.919551557142857,1.5526448857142856,-1.7074556428571428
364,1778427220430,-0.005427146,0.16500962,0.65637976,4.020918666666667,1.4420491666666664,-1.5242615666666666
365,1778427220440,-0.0045734376285714,0.1673442514285714,0.6473025714285715,4.072398514285714,1.399164957142857,-1.4681710714285714
366,1778427220450,-0.0024391667,0.17318083,0.6246096,4.171089666666666,1.3378712,-1.3910165833333334
367,1778427220460,-0.018598645,0.1897933071428571,0.5628464457142857,4.22734,1.2932016999999998,-1.341002
368,1778427220470,-0.0449721365,0.202969155,0.5038099,4.2494331999999995,1.2997176333333331,-1.1679234333333337
369,1778427220480,-0.0663859926666666,0.2199721833333333,0.4594373666666667,4.272137166666667,1.3093897,-1.0489065666666668
370,1778427220490,-0.0821215185714285,0.2202567471428571,0.4336228528571428,4.334459971428571,1.272585085714286,-0.9548696714285716
371,1778427220500,-0.0938469399999999,0.20775602,0.39889522,4.4477863,1.20745155,-0.8580366
372,1778427220510,-0.09762765,0.19873111,0.37605852,4.5226936,1.1684325,-0.8078693
373,1778427220520,-0.0981967899999999,0.2083251633333333,0.2732069866666666,4.693837866666667,0.9775371266666668,-0.7348709000000001
374,1778427220530,-0.0944160766666666,0.2118009816666667,0.189716345,4.8141525,0.8505280316666667,-0.6931538666666667
375,1778427220540,-0.0975231114285714,0.2173384657142857,0.1261746048571428,4.783402142857143,0.8399397214285714,-0.6935065857142858
376,1778427220550,-0.10842096,0.24044085,-0.0089029609999999,4.608010916666667,0.94694295,-0.6846272166666667
377,1778427220560,-0.1164876314285714,0.2593705285714286,-0.0768250442857142,4.548284228571428,0.9887508428571428,-0.6809402071428572
378,1778427220570,-0.14202048,0.2856874,-0.17683959,4.2272638,1.23539855,-0.65263316
379,1778427220580,-0.1418898085714285,0.2946600642857143,-0.2229224114285714,3.860406571428571,1.5541284142857144,-0.6000660057142857
380,1778427220590,-0.151838125,0.3252831966666666,-0.2938484483333333,3.7072902666666665,1.6655240666666666,-0.5810855666666667
381,1778427220600,-0.15452121,0.3411784499999999,-0.3504472699999999,3.49010215,1.7602082,-0.5633705
382,1778427220610,-0.15452121,0.34117845,-0.35044727,3.3970215,1.7846428,-0.5560401
383,1778427220620,-0.15921661,0.3572159399999999,-0.4086213699999999,3.2284482833333334,1.7333046166666666,-0.5619196666666666
384,1778427220630,-0.1924502516666666,0.3992915733333333,-0.5032915283333333,3.0346257666666667,1.6222544666666667,-0.5822055
385,1778427220640,-0.23208672,0.41965863,-0.6106453499999999,2.6883961142857147,1.5567246428571428,-0.5631086571428571
386,1778427220650,-0.2359589,0.4211221149999999,-0.625280375,2.4336108,1.56854925,-0.526107675
387,1778427220660,-0.23983108,0.4225855999999999,-0.6399154,2.2837198,1.5905404,-0.49861875
388,1778427220670,-0.2009162016666666,0.41639625,-0.6641546166666666,1.8877263333333336,1.7780760333333332,-0.3990477233333333
389,1778427220680,-0.17122951,0.41209725,-0.6802836,1.8072448,1.8246545,-0.37797287
390,1778427220690,-0.17122951,0.41209725,-0.6802836,1.8072448,1.8246545,-0.37797287
391,1778427220700,-0.119787478,0.413487564,-0.7487387999999999,1.68901186,1.87660856,-0.35698965
392,1778427220710,-0.08549279,0.41441444,-0.7943756,1.6420058,1.8858937,-0.3510948
393,1778427220720,-0.08317558,0.4253297,-0.83398155,1.6616043833333334,1.7868826166666667,-0.3712024333333333
394,1778427220730,-0.0871290676666666,0.4561749799999999,-0.9993773966666666,1.6708437500000002,1.6000596500000002,-0.4293873533333333
395,1778427220740,-0.1240403451428571,0.4824584571428572,-1.160302857142857,1.5493069714285714,1.3164145714285715,-0.42245696
396,1778427220750,-0.1254544806666666,0.4846624133333333,-1.1991756333333334,1.4532993333333335,1.2362385333333334,-0.4041382766666666
397,1778427220760,-0.1124049326666666,0.4882805066666666,-1.2961325,1.242321795,1.104113516666667,-0.3703370649999999
398,1778427220770,-0.095066522,0.49176649,-1.3416026499999998,0.79420117,0.9420306,-0.33620496
399,1778427220780,-0.0827661534285714,0.4938964171428571,-1.3624052714285717,0.4480914771428571,0.8496699571428571,-0.3391610942857143
400,1778427220790,-0.079638794,0.4994194,-1.3428832,0.0121409483333333,0.7774532666666666,-0.3743840366666666
401,1778427220800,-0.0859399739999999,0.5178147750000001,-1.3137657,-0.3115158316666667,0.6587672833333333,-0.4203516583333333
402,1778427220810,-0.08720021,0.52149385,-1.3079422,-0.36147952,0.6372852,-0.42821655
403,1778427220820,-0.0849526905714285,0.51011687,-1.256981,-0.6604107600000001,0.3899720171428571,-0.5128650157142857
404,1778427220830,-0.0847813686666666,0.50354566,-1.2185060333333333,-0.83647815,0.21787527,-0.5724825333333333
405,1778427220840,-0.0885010983333333,0.5047652400000001,-1.1933013,-0.9199630666666666,0.0980947733333333,-0.6136141233333333
406,1778427220850,-0.1005749783333333,0.5020414666666667,-1.1438675,-1.1096366666666666,-0.1929825133333333,-0.7071783233333333
407,1778427220860,-0.1040827314285714,0.4934347,-1.1280622714285713,-1.1531608,-0.25595254,-0.7257079
408,1778427220870,-0.10665256,0.4795402,-1.1129917,-1.3158038,-0.3652974,-0.75961095
409,1778427220880,-0.11065686,0.4711454,-1.0969948333333333,-1.4296283666666667,-0.3768020333333333,-0.7684685
410,1778427220890,-0.11866546,0.4543557999999999,-1.0650011,-1.6572775,-0.3998112999999999,-0.7861835999999999
411,1778427220900,-0.1322638033333333,0.44079808,-0.9938385,-2.1187860666666665,-0.351094795,-0.8118908166666667
412,1778427220910,-0.1509495685714285,0.4308265428571429,-0.9384781142857144,-2.2920974,-0.3414300285714285,-0.8210029028571428
413,1778427220920,-0.163302215,0.4281144283333333,-0.8876534416666666,-2.5033257,-0.3733914,-0.82970774
414,1778427220930,-0.16525355,0.4278298599999999,-0.87895375,-2.5033257,-0.3733914,-0.82970774
415,1778427220940,-0.1657413816666666,0.4271895766666667,-0.875284825,-2.5169683666666667,-0.3836233899999999,-0.8307004
416,1778427220950,-0.1674487999999999,0.40356013,-0.81291324,-2.784323800000001,-0.611323385,-0.8600219149999999
417,1778427220960,-0.1755793533333333,0.3769732033333333,-0.7896192133333333,-2.9754227666666666,-0.7168503433333333,-0.8631017033333332
418,1778427220970,-0.1884866085714285,0.3499158971428571,-0.7412540071428572,-3.2129984285714284,-0.7644105714285715,-0.8396342828571429
419,1778427220980,-0.196048025,0.33422683,-0.70065063,-3.3738086999999997,-0.7580074,-0.80970187
420,1778427220990,-0.2002759133333333,0.32074026,-0.6594287533333334,-3.5145367833333334,-0.7401905000000001,-0.7758751999999999
421,1778427221000,-0.1996196614285714,0.3040856771428571,-0.5717319642857143,-3.769954842857143,-0.7046330857142857,-0.7011642285714286
422,1778427221010,-0.1542773,0.322031,-0.42057332,-3.951229,-0.7684685,-0.6724099
423,1778427221020,-0.150567725,0.3237079166666666,-0.3697573616666667,-3.974391083333334,-0.90845845,-0.7035894833333334
424,1778427221030,-0.1529618857142857,0.3236774285714285,-0.3439138085714285,-3.9836050142857142,-1.006815037142857,-0.7185302428571428
425,1778427221040,-0.16269243,0.30715206,-0.29898086,-3.9897137,-1.1006265,-0.7301367
426,1778427221050,-0.1699286233333333,0.3014200199999999,-0.2843052066666666,-4.091142916666667,-1.4561754666666669,-0.7126761250000001
427,1778427221060,-0.1922469866666666,0.28095136,-0.21277664,-4.165642900000001,-1.5698727666666663,-0.6796894
428,1778427221070,-0.2092195283333333,0.2451159316666666,-0.0772199533333333,-4.407036233333334,-1.8490382333333333,-0.5442809533333334
429,1778427221080,-0.2120347333333333,0.23357054,-0.0372887621666666,-4.459927,-1.890628,-0.50747633
430,1778427221090,-0.2165776633333333,0.19881241,0.1785876656666666,-4.5266134,-1.9019289333333331,-0.43244169
431,1778427221100,-0.21562232,0.19677977,0.23842856,-4.5822531,-1.9191094833333333,-0.344960685
432,1778427221110,-0.1824903266666666,0.2214356833333333,0.5223069166666666,-4.6142214,-2.056579566666666,-0.0240782706666666
433,1778427221120,-0.12949943,0.2380626566666666,0.6939023,-4.309883216666667,-2.2689315666666667,0.0321976873333333
434,1778427221130,-0.10319708,0.2500958833333333,0.7635811533333333,-4.1470622666666666,-2.3637938999999997,0.028354327
435,1778427221140,-0.1177507683333333,0.278532505,0.7918855933333333,-3.71841315,-2.5659394499999997,-0.0040469825
436,1778427221150,-0.1401736785714285,0.2811488085714285,0.7882428142857144,-3.4133622142857143,-2.6323927714285715,0.0012435468571428
437,1778427221160,-0.2093516383333333,0.301277725,0.7335183750000001,-3.33814945,-2.54898785,0.08422305
438,1778427221170,-0.2183664,0.3076805566666666,0.7098991333333333,-3.3570098666666666,-2.3578381,0.2397646
439,1778427221180,-0.2143621033333333,0.3023448916666666,0.7040959600000001,-3.3848042,-2.3009768,0.28038713
440,1778427221190,-0.1690850616666666,0.2486323916666666,0.7346363433333334,-3.710904616666667,-1.6949473833333333,0.5083416966666666
441,1778427221200,-0.12697895,0.2593037466666666,0.7639876533333334,-3.7678169,-1.5905403500000002,0.53397258
442,1778427221210,-0.0561356785714285,0.28859698,0.8045329857142857,-3.760857371428571,-1.633170042857143,0.4728315071428571
443,1778427221220,-0.0286846019999999,0.31121329,0.82563352,-3.6746905,-2.01212894,0.243002194
444,1778427221230,-0.0442708779999999,0.3031071333333333,0.8267962133333334,-3.6539669,-2.25745245,0.119042365
445,1778427221240,-0.0686503471999999,0.258258988,0.835963432,-3.67746992,-2.3374148000000003,0.0936456372
446,1778427221250,-0.10642607,0.1534671385714285,0.8776295742857142,-3.7715257142857146,-2.330625428571429,0.1467385597142857
447,1778427221260,-0.08805392,0.09793254,0.9236514,-3.89948886,-2.0875404000000004,0.34260378
448,1778427221270,-0.0513647866666666,0.0760308566666666,0.949872525,-3.9923098,-1.9075794,0.47632217
449,1778427221280,-0.04402696,0.07165052,0.9551167499999998,-3.9988257,-1.887115433333333,0.5019276133333334
450,1778427221290,-0.0084273207599999,0.065662368,0.9888382,-4.0043438799999995,-1.94395642,0.558636276
451,1778427221300,0.0307944788,0.0721993349999999,1.0327127,-3.9958732,-2.1079940666666666,0.5470807400000001
452,1778427221310,0.085706218,0.077870395,1.12320575,-3.936924666666666,-2.5777496,0.5036075000000001
453,1778427221320,0.10604277,0.0670161,1.1835446,-3.856036,-2.8207722000000004,0.480191
454,1778427221330,0.229749165,0.0274406261666666,1.2941304,-3.798182,-2.83749455,0.4471788083333333
455,1778427221340,0.2614525342857142,-0.0022997858571428,1.317655257142857,-3.815791514285714,-2.5971371857142853,0.3997240471428571
456,1778427221350,0.26983282,-0.012561709,1.3247114,-3.84008218,-2.4534791599999997,0.38499783
457,1778427221360,0.2477583599999999,-0.045978294,1.3210832,-3.96924975,-1.96851325,0.36651915
458,1778427221370,0.2242203933333333,-0.0641500826666666,1.3116213,-4.1303145,-1.4848098,0.3574579733333333
459,1778427221380,0.2135287233333333,-0.0895174216666666,1.3316427333333332,-4.1834343,-1.3645711833333334,0.3571270866666666
460,1778427221390,0.2437032766666667,-0.0939384133333333,1.4033542500000002,-4.284735966666666,-1.2278901,0.34045557
461,1778427221400,0.26403982,-0.092590772,1.4556337200000002,-4.26047952,-1.29353774,0.326293672
462,1778427221410,0.3166444933333333,-0.0955340333333333,1.6119436666666669,-3.9852848,-1.75807005,0.25037838
463,1778427221420,0.3554170733333333,-0.1021096191666666,1.7211269,-3.6362772,-2.1625138,0.1900809
464,1778427221430,0.36851744,-0.10803476,1.763294,-3.4702491666666666,-2.2672009,0.168293375
465,1778427221440,0.36361876,-0.122507155,1.8329729,-2.850908066666667,-2.397493266666667,0.1157080566666666
466,1778427221450,0.3521242,-0.1255865975,1.8217832,-2.6263387,-2.29356985,0.1350012175
467,1778427221460,0.3436785899999999,-0.1096100566666666,1.7860494166666667,-2.2849159666666665,-1.9092339166666663,0.2246202416666666
468,1778427221470,0.346117765,-0.09607268,1.7786099000000002,-2.1562525333333333,-1.6632333,0.2505056633333333
469,1778427221480,0.353740175,-0.070278492,1.7798599,-2.0350976,-1.3641384,0.2639701499999999
470,1778427221490,0.37691224,-0.026586918,1.8122399,-1.8653534,-0.9703594416666668,0.2502256783333333
471,1778427221500,0.37691224,-0.026586918,1.8122399,-1.8471038,-0.93279123,0.24602598
472,1778427221510,0.3479471328571429,0.02740578,1.8844915428571427,-1.5941619285714286,-0.6313510428571428,0.1815796985714285
473,1778427221520,0.31980525,0.070308976,1.9094407,-1.3283773333333333,-0.5156720666666667,0.1854485066666666
474,1778427221530,0.297517375,0.120952175,2.0168555500000003,-1.05488788,-0.5047274,0.24556782
475,1778427221540,0.33971494,0.122751065,2.1914694,-0.55115316,-0.4528474999999999,0.3504403042857142
476,1778427221550,0.346503955,0.1202509183333333,2.1966932333333333,-0.2563597766666667,-0.3817398733333333,0.38530326
477,1778427221560,0.3943522825,0.108093195625,2.1855161,0.3866013375,-0.151895455125,0.4162473974999999
478,1778427221570,0.4209392,0.1095795666666666,2.1061188333333334,0.9856310916666668,0.1279253588333333,0.40647991
479,1778427221580,0.4317237857142856,0.1161827371428571,2.0332806714285714,1.1121238142857144,0.2222676857142857,0.3800890742857143
480,1778427221590,0.4474244666666667,0.125393494,1.8843985666666667,1.4515684999999998,0.5415829333333334,0.2780964066666667
481,1778427221600,0.4551485066666667,0.119864714,1.828988866666667,1.5671238333333335,0.771421,0.1966477033333333
482,1778427221610,0.4786342057142857,0.1068267871428571,1.7457900714285712,1.650186942857143,0.9827512714285714,0.0804378605714285
483,1778427221620,0.4860039733333334,0.094497382,1.7318287666666663,1.7276796,1.151481,-0.053145275
484,1778427221630,0.4748970642857143,0.0774871,1.7404499857142857,1.819113042857143,1.1975577000000002,-0.1434660628571428
485,1778427221640,0.4225856533333333,0.0528791,1.7899114166666668,2.0658443666666666,1.2458596999999998,-0.3258965933333333
486,1778427221650,0.3974622299999999,0.0363435823333333,1.8128700666666668,2.180457933333334,1.2353986166666666,-0.3658573599999999
487,1778427221660,0.36172843,-0.017143857,1.8395323714285712,2.648558914285714,1.202750057142857,-0.4191190057142857
488,1778427221670,0.36172843,-0.035124,1.8357168,2.8038714,1.1928672,-0.42546764
489,1778427221680,0.3718945257142857,-0.0405337234285714,1.7870554285714284,3.0398181,1.1992812428571429,-0.4455607442857143
490,1778427221690,0.3816685999999999,-0.0374208826666666,1.6547714000000002,3.4651839,1.2682071666666668,-0.49709161
491,1778427221700,0.3767118742857143,-0.0303066462857142,1.5939955571428572,3.525957714285714,1.3139711571428572,-0.5107270057142858
492,1778427221710,0.3792396166666666,-0.0358557493333333,1.5339005,3.56198075,1.5698219166666665,-0.5086471416666666
493,1778427221720,0.378985545,-0.036648478125,1.5174056375,3.553326875,1.69885445,-0.5005277124999999
494,1778427221730,0.3782538,-0.036282603,1.5122834,3.5496871,1.7796541,-0.49169562
495,1778427221740,0.3988995914285714,-0.022030901,1.478736157142857,3.5471853571428573,1.9076885285714285,-0.48452522
496,1778427221750,0.4162742883333333,-0.0229789828333333,1.454485316666667,3.5772522833333333,2.0449477166666665,-0.5640067916666667
497,1778427221760,0.4101545857142857,-0.0236163598571428,1.4157707428571429,3.6090572857142855,2.143264342857143,-0.63924866
498,1778427221770,0.40667006,-0.023598937,1.401972,3.6282341,2.1998785,-0.6844745
499,1778427221780,0.40667006,-0.023598937,1.401972,3.6282341,2.1998785,-0.6844745
500,1778427221790,0.3096696314285714,-0.0112724341428571,1.2715202142857145,3.6252888142857143,2.279291,-0.7711955714285715
501,1778427221800,0.27086946,-0.006341833,1.2193395,3.5949637714285716,2.323251442857143,-0.8233154428571429
502,1778427221810,0.2358267666666667,-0.0006097916833333,1.1688486833333334,3.54989065,2.2906684,-0.8784242
503,1778427221820,0.2220512857142857,0.0001219582142857,1.1473143142857145,3.5640279428571424,2.2236586,-0.9068730857142856
504,1778427221830,0.1498258166666666,-0.0204076956666666,1.1102477333333334,3.5943312666666665,2.1461223,-0.9484192
505,1778427221840,0.0185275035,-0.0249303174999999,1.0457623,3.631848533333333,2.2357159333333336,-0.8786278666666667
506,1778427221850,0.0199576101428571,-0.0119083612857142,1.0090658828571428,3.6303067857142857,2.3051872857142857,-0.7783077885714286
507,1778427221860,0.10931532,0.015529361,0.9401971266666668,3.5666385999999997,2.3132448333333335,-0.61193424
508,1778427221870,0.11736457,0.0105290696666666,0.9025120066666666,3.4943528,2.2029837,-0.5569563999999999
509,1778427221880,0.078401788,-0.0265085167142857,0.876183517142857,3.5176456714285713,2.2074488000000003,-0.5063854742857143
510,1778427221890,0.078815577,-0.04981998,0.8622454300000001,3.57119455,2.22301495,-0.48838674
511,1778427221900,0.07829725,-0.0121958339999999,0.8812099,3.9278636,1.918575,-0.56153786
512,1778427221910,0.08835881,-0.023659917,0.7803504,4.172864242857143,1.8100373571428572,-0.5998260314285714
513,1778427221920,0.08835881,-0.023659917,0.7803504,4.2708645,1.7666223,-0.6151413
514,1778427221930,0.0766304866666666,-0.0133646009666666,0.7311605499999999,4.421137333333333,1.6673567,-0.6613634333333334
515,1778427221940,0.0425024815,-0.00856757295,0.61070637,4.7290133333333335,1.4696399833333331,-0.7570911049999999
516,1778427221950,-0.0206719379999999,-0.0134967223333333,0.5340555433333333,4.767294000000001,1.4930055666666666,-0.7474954533333333
517,1778427221960,-0.1604710314285714,0.0016899940571428,0.3758581671428571,4.714810571428572,1.5861334714285715,-0.5715517
518,1778427221970,-0.1689529466666667,0.0074191319666666,0.32323025,4.636492616666667,1.65157605,-0.44893504
519,1778427221980,-0.1585458357142857,0.03586446,0.2831524185714286,4.3563857,1.8697058,-0.08368854
520,1778427221990,-0.134093185,0.064485467,0.28538251,4.3018149,1.8845701333333331,-0.0177150926666666
521,1778427222000,-0.100554645,0.11708001,0.28641915,4.282929,1.9704986,0.04795292
522,1778427222010,-0.1059614683333333,0.1274871166666666,0.2450346166666666,4.309807,1.9794579333333333,0.0471384353333333
523,1778427222020,-0.1169783733333333,0.137314925,0.2121871716666666,4.330271,1.9557869,0.0480547339999999
524,1778427222030,-0.15854584,0.1604362,0.15141128,4.344321,1.8994854999999995,0.050701816
525,1778427222040,-0.1698879633333333,0.1646844066666666,0.095554355,4.349615,1.7484999,0.0885754586666666
526,1778427222050,-0.2052761966666666,0.1685870666666666,-0.03091644,4.352262,1.6730071000000002,0.10751228
527,1778427222060,-0.2396074833333333,0.1837912166666666,-0.1707213433333333,4.311919499999999,1.7060957666666667,0.3060434966666667
528,1778427222070,-0.2559731328571428,0.2090017542857143,-0.2516174771428571,4.252974714285714,1.7037250428571429,0.4030838028571429
529,1778427222080,-0.25507587,0.24361177,-0.3566062,4.1097487,1.6603317666666666,0.5057455166666667
530,1778427222090,-0.262759235,0.253429405,-0.37618049,3.998571233333333,1.6183856666666667,0.5651012666666667
531,1778427222100,-0.294681825,0.27635759,-0.4796011549999999,3.9118793,1.5952237,0.62802039
532,1778427222110,-0.2923646116666666,0.2995601583333333,-0.5652260716666667,3.6697474166666666,1.57264715,0.8108727033333333
533,1778427222120,-0.2951478857142857,0.3251060785714285,-0.63353,3.5208745,1.543351,0.8907942
534,1778427222130,-0.3074061416666667,0.3618605416666666,-0.7619855166666666,3.3896657500000003,1.453630166666667,0.9665160333333334
535,1778427222140,-0.3098351466666666,0.37036714,-0.8055551466666667,3.2415055,1.3499103333333335,1.05127365
536,1778427222150,-0.2828417133333333,0.4027674066666666,-0.93231048,3.2171217999999997,1.3327552,1.0651963
537,1778427222160,-0.264966684,0.421536788,-0.99241154,3.12701918,1.24821146,1.08675984
538,1778427222170,-0.224342355,0.4650881,-1.1334198,2.6535986499999997,0.8168031849999999,1.1507174
539,1778427222180,-0.1804547828571428,0.4993932357142857,-1.2670599857142857,2.2844615285714287,0.6042329628571429,1.0626436571428572
540,1778427222190,-0.1605581499999999,0.5110257466666667,-1.3200973666666669,2.1259129,0.5425501166666667,1.0215193333333332
541,1778427222200,-0.119043528,0.520847464,-1.37945858,1.5153123000000002,0.422352228,0.8412836
542,1778427222210,-0.094456725,0.52289635,-1.4098993999999998,1.4327844,0.40973786,0.8147414999999999
543,1778427222220,-0.062544299,0.5016756233333334,-1.4480723333333334,0.6976080666666666,0.4883867833333333,0.5732461333333333
544,1778427222230,-0.0287516785,0.4896424016666666,-1.4874851333333332,0.3097595666666666,0.5746715166666667,0.45400015
545,1778427222240,-0.0243713413333333,0.48998794,-1.4933391666666669,0.139226362,0.6060801666666666,0.4020511499999999
546,1778427222250,-0.028934615,0.5025597949999999,-1.4918859,-0.251981917,0.63354362,0.28076894
547,1778427222260,-0.0395551533333333,0.5230183166666666,-1.4752283666666666,-0.77488256,0.5169447,0.106595986
548,1778427222270,-0.0483042127142857,0.5400576471428571,-1.4398314,-0.9942485885714286,0.3897538428571429,0.0188931895714285
549,1778427222280,-0.0711931788333333,0.5601851383333333,-1.3439300166666666,-1.3632985,0.12156218,-0.14004086
550,1778427222290,-0.0799741799999999,0.551952965,-1.30010635,-1.4689781999999998,0.02641992,-0.1744783899999999
551,1778427222300,-0.0886433858333333,0.5393302816666666,-1.2513738666666667,-1.7352137,-0.2076941799999999,-0.2362012266666666
552,1778427222310,-0.090919934,0.4926507,-1.071099,-1.959655733333333,-0.3802127133333333,-0.25432356
553,1778427222320,-0.089852797,0.4795401749999999,-1.0231999,-2.151569266666667,-0.5069672466666667,-0.2481131
554,1778427222330,-0.0879319599999999,0.4531361833333333,-0.9267207,-2.3141103333333333,-0.6050620266666668,-0.2232203433333333
555,1778427222340,-0.08750511,0.44648945,-0.90243065,-2.4049256,-0.6573419066666667,-0.2059124933333333
556,1778427222350,-0.082240575,0.42652895,-0.8320607266666666,-2.5515841333333333,-0.7231117333333333,-0.1791871366666666
557,1778427222360,-0.0764882025,0.4051760716666666,-0.7729414333333334,-2.7072529333333333,-0.7697411333333334,-0.1520036366666666
558,1778427222370,-0.0654509733333333,0.3892706733333333,-0.73272568,-2.873306466666667,-0.7721845666666667,-0.1445714433333333
559,1778427222380,-0.0554910416666666,0.3670946,-0.6953047899999999,-3.0818660333333328,-0.7351253999999999,-0.1462513233333333
560,1778427222390,-0.052990895,0.35959417,-0.68564975,-3.1471777,-0.7163922,-0.14874569
561,1778427222400,-0.044596098,0.3451014183333333,-0.6522738166666667,-3.3133332,-0.6793584899999999,-0.16093754
562,1778427222410,-0.0258464548571428,0.3400982328571428,-0.5872467571428572,-3.5347499428571427,-0.6741988671428573,-0.1983348542857142
563,1778427222420,-0.009634708,0.3134939,-0.5321042,-3.780187,-0.783282,-0.28863382
564,1778427222430,-0.0171554721666666,0.2940821916666666,-0.5043078666666666,-3.90757775,-0.8303694999999999,-0.31294117
565,1778427222440,-0.018659625,0.29019985,-0.4987486,-3.9330559,-0.839787,-0.31780264
566,1778427222450,-0.0582960833333333,0.2485307666666666,-0.3883560033333333,-4.216853716666667,-0.89224505,-0.3058398499999999
567,1778427222460,-0.0895885633333333,0.2196977833333333,-0.2089857666666666,-4.523355433333333,-0.9604838,-0.2273945933333333
568,1778427222470,-0.0907166733333333,0.2126546933333333,-0.0407950633333333,-4.616512333333333,-1.0506373,-0.16885334
569,1778427222480,-0.09100531,0.201719094,0.1474354259999999,-4.580725599999999,-1.2144306,-0.118782748
570,1778427222490,-0.0922701942857142,0.1894535714285714,0.2993467428571428,-4.4906666,-1.354397285714286,-0.0815723257142857
571,1778427222500,-0.10210962,0.1933649499999999,0.365387185,-4.27888205,-1.5646549500000002,-0.0024434599999999
572,1778427222510,-0.12529187,0.2224011866666666,0.4150445616666666,-4.119166166666666,-1.7397697333333335,0.08959357
573,1778427222520,-0.1251495758333333,0.26760708,0.5129465833333334,-4.093611566666667,-1.8786652333333336,0.1413643999999999
574,1778427222530,-0.07835823,0.3038592,0.6630265,-4.07490405,-2.2746076166666667,0.2343940833333333
575,1778427222540,-0.0688193477142857,0.3164034857142857,0.7227164114285713,-4.038975714285714,-2.3521584,0.2258456085714285
576,1778427222550,-0.0553690865,0.33364752,0.8310850799999999,-3.9030725,-2.3681464,0.1908699383333333
577,1778427222560,-0.0597595835714285,0.3244788571428571,0.8671847428571429,-3.868195,-2.2975515428571427,0.1886046442857142
578,1778427222570,-0.0679917733333333,0.3022534066666666,0.8464518333333334,-3.8688131,-1.9505946,0.2453642166666666
579,1778427222580,-0.0675039405,0.31544524,0.8012357649999999,-3.938706266666667,-1.666185866666667,0.30365094
580,1778427222590,-0.0577298499999999,0.3354899685714286,0.7767961928571429,-4.148931142857143,-1.3267774857142858,0.3604759342857143
581,1778427222600,-0.02420873,0.31050593,0.91712666,-4.380641616666667,-1.1214977166666666,0.3411427716666667
582,1778427222610,-0.02420873,0.31050593,0.91712666,-4.4881797,-0.9868528,0.29901853
583,1778427222620,-0.02420873,0.31050593,0.91712666,-4.4881797,-0.9868528,0.29901853
584,1778427222630,-0.02420873,0.31050593,0.91712666,-4.4881797,-0.9868528,0.29901853
585,1778427222640,-0.0218305419999999,0.30428603,0.99085045,-4.4958153,-0.926988,0.24510968
586,1778427222650,-0.021830542,0.30428603,0.99085045,-4.410381585714286,-1.0005536000000002,0.2020000514285714
587,1778427222660,-0.0453075219999999,0.2769470466666666,1.031300075,-4.3463063,-1.0557278,0.16966783
588,1778427222670,-0.051679845,0.266204555,1.0397558666666666,-4.3463063,-1.0557278,0.16966783
589,1778427222680,-0.06006448,0.23983108,1.0415852,-4.290310366666667,-1.1079567666666668,0.1685479066666666
590,1778427222690,-0.06006448,0.23983108,1.0415852,-4.1783185,-1.2124147,0.16630806
591,1778427222700,-0.03433127,0.23172083,1.004083,-3.9255729,-1.4143058,0.2302962
592,1778427222710,-0.03433127,0.23172083,1.004083,-3.9255729,-1.4143058,0.2302962
593,1778427222720,-0.03433127,0.23172083,1.004083,-3.9255729,-1.4143058,0.2302962
594,1778427222730,0.015061855,0.2570779883333333,0.9059573333333332,-3.9255729,-1.4143058,0.2302962
595,1778427222740,0.02494048,0.26214942,0.8863322,-3.9255729,-1.4143058,0.2302962
596,1778427222750,0.0707256716666666,0.2538664366666667,0.8242351166666667,-3.99289515,-1.4491759666666668,0.2131156166666666
597,1778427222760,0.07988271,0.25220984,0.8118157,-4.0063596,-1.45615,0.2096795
598,1778427222770,0.07988271,0.25220984,0.8118157,-4.0063596,-1.4561499999999998,0.2096795
599,1778427222780,0.07988271,0.25220984,0.8118157,-4.297793266666667,-1.2595277500000002,0.0993419666666666
600,1778427222790,0.1135737016666666,0.2152158066666666,0.7934202833333334,-4.406781783333334,-1.1814642666666668,0.0608829083333333
601,1778427222800,0.1203118999999999,0.207817,0.7897412,-4.6602907,-0.9877691,-0.0210748499999999
602,1778427222810,0.1203119,0.207817,0.7897412,-4.6602907,-0.9877690999999998,-0.02107485
603,1778427222820,0.10224174,0.1390934816666666,0.841197485,-4.6602907,-0.9877691,-0.0210748499999999
604,1778427222830,0.12043386,0.17366867,0.81053513,-4.6602907,-0.9877691,-0.0210748499999999
605,1778427222840,0.12043386,0.17366867,0.81053513,-4.792608628571429,-0.8951575500000001,-0.0518362785714285
606,1778427222850,0.12043386,0.17366867,0.81053513,-4.8455358,-0.85811293,-0.06414085
607,1778427222860,0.084354518,0.1022417386666666,0.8777341866666667,-4.8932088333333335,-0.8169304333333334,0.0046323956666666
608,1778427222870,0.0121958339999999,-0.040612124,1.0121323,-4.862182,-0.9005680699999999,0.11942416
609,1778427222880,0.3304664356666666,-0.267800164,1.4984106,-4.610530983333333,-1.743638528333333,0.4468988266666667
610,1778427222890,0.6216927499999999,-0.24558343,1.9507439,-1.321785166666667,-2.2736404833333332,0.0537306876666666
611,1778427222900,0.5589451916666667,-0.2189660366666666,1.7847282166666665,-0.71471236,-1.7971146333333332,-0.03884085
612,1778427222910,0.55009305,-0.21824445,1.7645543,-0.6330091399999999,-1.6471981,-0.03359759
613,1778427222920,0.5462920333333333,-0.19696272,1.7242267333333334,-0.6465499833333334,-1.3745994899999998,0.0384845066666666
614,1778427222930,0.5479893166666666,-0.151238505,1.6460717166666667,-0.6969463566666666,-0.59808797,0.2162462933333333
615,1778427222940,0.64936714,-0.1099047833333333,1.7117462333333335,-0.6822346733333333,-0.23258694,0.2151263833333333
616,1778427222950,0.700711605,-0.094182322,1.76269435,-0.58620155,-0.0183259569999999,0.1411098775
617,1778427222960,0.723121475,-0.094121344,1.7978183,-0.39400807,0.067195178,-0.0040469804999999
618,1778427222970,0.69004023,-0.12836114,1.8254113,-0.1240492771428571,-0.0311323102857142,-0.1416116551428571
619,1778427222980,0.69004023,-0.12836114,1.8254113,0.032986725,-0.0481056385,-0.184252235
620,1778427222990,0.6976931299999999,-0.184309525,1.8348632,0.4395684466666666,0.0118609653333333,-0.28858292
621,1778427223000,0.6660551433333334,-0.1939950566666667,1.7730505833333334,0.8516988466666667,0.1176933776666666,-0.36534832
622,1778427223010,0.6476336057142857,-0.1967536414285714,1.7326185285714286,1.2726286057142857,0.2106176142857143,-0.4098033199999999
623,1778427223020,0.6247518866666667,-0.21102857,1.6881473,1.5474489,0.200160185,-0.4203770916666667
624,1778427223030,0.5986411928571428,-0.1982781185714285,1.6719790857142858,1.5796975,0.19364429,-0.42058071
625,1778427223040,0.5364540666666667,-0.2051339266666666,1.6534094666666668,1.6439401666666666,-0.0447967733333333,-0.2349285833333333
626,1778427223050,0.5307278285714286,-0.4187700628571428,1.6766048285714288,1.8855882142857143,-0.21458824,-0.0347102357142857
627,1778427223060,0.6582962200000001,-0.4103897914285714,1.7450320857142858,2.215215485714286,-0.2122538628571428,0.19451695
628,1778427223070,0.7664369600000001,-0.3559455733333332,1.77222745,2.66594305,-0.0273362208333333,0.1078686216666666
629,1778427223080,0.7980343171428571,-0.3966956171428571,1.7556251142857142,2.954711571428571,0.1160207608571428,-0.0153588971428571
630,1778427223090,0.8302008466666667,-0.4375661833333333,1.7005463666666667,3.4331644499999996,0.49831333,-0.2660827166666666
631,1778427223100,0.8343880916666667,-0.440960695,1.6871614499999998,3.5348225833333333,0.591164845,-0.3201951999999999
632,1778427223110,0.8568357171428571,-0.4539899214285713,1.6112961571428577,3.925812714285714,1.096721287142857,-0.5619087428571429
633,1778427223120,0.7995182216666668,-0.4293340183333333,1.48926375,4.2361978,1.502194,-0.7921394999999999
634,1778427223130,0.7607761142857142,-0.4196150828571428,1.4544664,4.384201714285714,1.6668112714285714,-0.9167996785714284
635,1778427223140,0.7182736214285714,-0.4092486,1.4277923571428572,4.4377832,1.7206547,-0.95615685
636,1778427223150,0.6619695416666667,-0.3760483733333333,1.4031103499999995,4.608876366666666,1.8620191,-0.9485210166666668
637,1778427223160,0.6558832428571428,-0.3632616228571428,1.402564457142857,4.780500599999999,1.8815086,-0.958513
638,1778427223170,0.6460640916666667,-0.3238908666666666,1.3771128333333331,5.071556,1.7035504999999995,-1.0761919
639,1778427223180,0.64491564,-0.3179454,1.3717873,5.071556,1.7035504999999995,-1.0761919
640,1778427223190,0.6036763285714286,-0.2299175842857142,1.2688197285714284,5.246700028571428,1.6140150714285717,-1.2196579
641,1778427223200,0.5798000766666667,-0.1909054449999999,1.2055073666666667,5.366705800000001,1.5653421666666667,-1.3575970999999998
642,1778427223210,0.5349702,-0.13665432,1.0975641,5.3339224,1.5897768,-1.5699236
643,1778427223220,0.48295498,-0.12153149,1.0496345,5.279861,1.5587754,-1.6762141999999998
644,1778427223230,0.4350660266666666,-0.1041727473333333,1.0296333000000002,5.2463654,1.4981979333333335,-1.7273232666666667
645,1778427223240,0.3923922285714285,-0.0921830788571428,1.0115746285714289,5.229748228571429,1.3659383428571428,-1.8049759714285711
646,1778427223250,0.3585778333333333,-0.0845069683333333,0.99976365,5.2548918,1.3286319,-1.8398498
647,1778427223260,0.3237384,-0.066345334,0.9700566,5.3748251,1.2930490166666668,-1.8977291833333332
648,1778427223270,0.3140630333333333,-0.061385696,0.9485513333333334,5.476966866666667,1.2654582333333335,-1.9194403666666664
649,1778427223280,0.30922535,-0.058905877,0.9377987,5.518556600000001,1.25319,-1.9271271
650,1778427223290,0.2927914833333333,-0.0613145558333333,0.8520313766666666,5.625839850000001,1.2265919166666668,-1.9821813166666669
651,1778427223300,0.23647723,-0.06780884,0.71101713,5.6665387,1.2235631,-2.0360138
652,1778427223310,0.1613160357142857,-0.0675997657142857,0.6026658471428572,5.617778542857144,1.2072660714285717,-2.042755185714286
653,1778427223320,0.1004631783333333,-0.0651257483333333,0.5297260500000001,5.454899166666666,1.1917726999999998,-2.001729116666666
654,1778427223330,0.0810819666666666,-0.0632557246666666,0.487813,5.4007103333333335,1.2028446333333334,-1.9619974
655,1778427223340,0.0632963733333333,-0.0540275433333333,0.4436437733333333,5.200957666666667,1.2724831666666667,-1.8170186666666663
656,1778427223350,0.0455006216666666,-0.0455920891666666,0.41018656,5.0567425,1.3373366999999998,-1.7382934
657,1778427223360,0.0389961775,-0.0461713918333333,0.4102780233333333,4.9299115,1.4634040666666666,-1.6793194333333332
658,1778427223370,0.0065247699999999,-0.0607352529999999,0.41060322,4.619388166666666,2.3837743166666665,-1.4424819333333332
659,1778427223380,-0.0244729716666666,-0.08726119,0.3427435866666666,4.541936,2.966056,-1.2765557
660,1778427223390,-0.0480951402857142,-0.10701844,0.2797550071428571,4.4952483999999995,3.291821828571429,-1.157349642857143
661,1778427223400,-0.0630524583333333,-0.1215314783333333,0.2235089733333333,4.440481166666667,3.7251072,-0.9764171666666668
662,1778427223410,-0.0791161151428571,-0.1195104505714285,0.1291364528571428,4.429427514285715,3.992113542857143,-0.8106836285714285
663,1778427223420,-0.051039565,-0.10634767,0.042380523,4.454454916666667,4.355393,-0.4850270166666666
664,1778427223430,-0.03945352,-0.07530928,-0.023659917,4.580115,4.355469,-0.30405816
665,1778427223440,-0.0499012866666666,-0.0492914953333333,-0.0898832989999999,4.695772066666667,4.1834088,-0.2074396533333333
666,1778427223450,-0.06187353,-0.0301033816666666,-0.1712091766666666,4.787045466666666,3.9807034,-0.1192714409999999
667,1778427223460,-0.11311636,-0.0209666701666666,-0.312040545,4.8675269666666665,3.5804847666666664,0.0273871279999999
668,1778427223470,-0.1327745175,-0.00951275,-0.3786044149999999,4.8833522125,3.1331660875000003,0.2342286425
669,1778427223480,-0.1462367571428571,0.0681747071428571,-0.5428452671428572,4.812745414285715,2.9114274,0.3789546171428571
670,1778427223490,-0.1509640933333333,0.1196004733333333,-0.64639952,4.527071333333333,2.3517039333333334,0.7158322333333333
671,1778427223500,-0.15080148,0.16147284,-0.72705466,4.4883323,2.2945626,0.7473936
672,1778427223510,-0.1297433433333333,0.2543441133333333,-0.9017802333333332,4.159636066666667,2.0073031666666665,0.8979210066666666
673,1778427223520,-0.10878684,0.336483045,-1.0279258,3.74300035,1.7085901,1.032515
674,1778427223530,-0.059576645,0.4219148799999999,-1.1642143,3.1010575,1.2840388,1.1630874
675,1778427223540,-0.044331854,0.433409455,-1.18647165,2.8866437499999997,1.17003605,1.1953869
676,1778427223550,-0.0225535807142857,0.4444161914285714,-1.2093475142857142,2.6266551,1.032733157142857,1.2345804571428574
677,1778427223560,0.016647313,0.44148916,-1.2130586,2.3532057,0.8929323,1.2759448
678,1778427223570,0.067077081,0.4450259533333333,-1.226413,2.026494583333333,0.6890305566666667,1.3098223666666666
679,1778427223580,0.1569603742857142,0.4352605571428571,-1.2518412714285714,1.6930784857142858,0.4784602057142857,1.3036519142857144
680,1778427223590,0.23457669,0.419953325,-1.2779200666666666,1.4552591666666668,0.340150125,1.262022166666667
681,1778427223600,0.27263784,0.4113654500000001,-1.3058689,1.2338969333333332,0.3169881499999999,1.177697233333333
682,1778427223610,0.35459386,0.4535386799999999,-1.4342666,0.925185976,0.31511483,1.012784052
683,1778427223620,0.38096735,0.486339365,-1.4903004,0.795652005,0.22395847,0.90545502
684,1778427223630,0.41514617,0.55277616,-1.674732,0.5109124349999999,0.0657443755,0.66958465
685,1778427223640,0.3919741,0.5749116,-1.7256494,0.0464693957142857,-0.0289288324285714,0.36708636
686,1778427223650,0.3919740999999999,0.5749116,-1.7256494,-0.42707114,-0.039629882,0.1294270685
687,1778427223660,0.3527035,0.59149796,-1.695038,-0.6979135,-0.032070424,0.004276057
688,1778427223670,0.346068968,0.591193058,-1.67972,-1.11146934,-0.062247168,-0.1890017086
689,1778427223680,0.2198095733333333,0.55484944,-1.2967321666666665,-1.8591428833333332,-0.23566672,-0.580958275
690,1778427223690,0.19074284,0.53533614,-1.205924,-2.0449222,-0.3246748866666666,-0.6985752999999999
691,1778427223700,0.1518686233333333,0.50825124,-1.1057149166666669,-2.221742416666667,-0.454280125,-0.8139524833333334
692,1778427223710,0.1078721485714285,0.4749231685714285,-1.0056510485714285,-2.327811042857143,-0.5200644885714285,-0.8629344314285714
693,1778427223720,0.07988271,0.4536443266666667,-0.95153928,-2.4083361333333335,-0.54255017,-0.8732827566666668
694,1778427223730,0.05089728,0.4335415433333333,-0.8887917333333334,-2.5970936,-0.5560401,-0.84742284
695,1778427223740,0.0281636648571428,0.42113082,-0.8369129757142858,-2.6719681714285715,-0.5483606428571429,-0.8292713885714286
696,1778427223750,0.017866896,0.41624376,-0.8138889700000002,-2.7483081000000005,-0.5462916916666667,-0.8111526666666666
697,1778427223760,0.0008943611666666,0.4227583816666667,-0.7662235666666667,-2.89565395,-0.59047762,-0.7806094
698,1778427223770,-0.011708,0.4278908,-0.7364454,-2.9420797999999997,-0.61621034,-0.7725918
699,1778427223780,-0.0191474588,0.4253540759999999,-0.7206152100000001,-2.99730204,-0.6394842919999999,-0.7597636400000001
700,1778427223790,-0.0664368073333333,0.4109894466666666,-0.6166416583333333,-3.2634459,-0.7358380666666666,-0.6957755333333333
701,1778427223800,-0.0817033757142857,0.4015739571428571,-0.5423923,-3.508155442857143,-0.7055711714285715,-0.62225354
702,1778427223810,-0.08366342,0.4001453,-0.5313725,-3.5338554,-0.6994406999999999,-0.61422503
703,1778427223820,-0.0897700442857142,0.3944306771428572,-0.4107644057142857,-3.7787469857142857,-0.5833326999999999,-0.5189081914285715
704,1778427223830,-0.0902840085714285,0.39826365,-0.3143563014285714,-3.872013042857143,-0.5707009,-0.4906338900000001
705,1778427223840,-0.0969060583333333,0.3931530266666667,-0.25280946,-3.9302306,-0.5768095166666666,-0.4761949166666666
706,1778427223850,-0.08726119,0.42215878,-0.2022679,-3.9792067,-0.653534168,-0.467617336
707,1778427223860,-0.0855842566666666,0.46169363,-0.1355465291666666,-4.036292,-0.9213375,-0.52656585
708,1778427223870,-0.095920225,0.475637515,-0.0898223174999999,-4.035986666666667,-1.0553206333333334,-0.5587380833333334
709,1778427223880,-0.1148237685714285,0.4856119471428571,-0.0439572721428571,-4.087757357142857,-1.3630584857142858,-0.5618433
710,1778427223890,-0.1733231199999999,0.50842395,0.0691503716666666,-4.17444945,-1.5838208333333332,-0.5399794066666667
711,1778427223900,-0.2002207371428571,0.4436844,0.2711046557142857,-4.228605671428571,-1.6104153571428572,-0.4197298671428571
712,1778427223910,-0.2084964771428571,0.3790290742857142,0.42520773,-4.1824417,-1.4892895,-0.26190847
713,1778427223920,-0.2063534966666666,0.3365237,0.5204165333333334,-4.129805466666666,-1.4192945,-0.2099849246666666
714,1778427223930,-0.16757075,0.3167258,0.6109909333333333,-3.8125626666666665,-1.0917689,0.0284561393333333
715,1778427223940,-0.13384927,0.3547361433333333,0.5773914333333333,-3.4965925833333333,-0.8587747333333334,0.1685478959999999
716,1778427223950,-0.11998958,0.3976974285714285,0.5159883142857142,-3.421608928571429,-0.8088728642857143,0.1856593957142857
717,1778427223960,-0.0988065766666666,0.4903538166666667,0.35941122,-3.416009366666667,-0.7803803566666666,0.1597412566666667
718,1778427223970,-0.0919464166666666,0.5078040066666667,0.32375873,-3.53561165,-0.79633922,0.0962876315
719,1778427223980,-0.0678088328571428,0.5094809400000001,0.3041727942857143,-3.8006289571428566,-0.8138034114285714,-0.0301723812857142
720,1778427223990,-0.0593124033333333,0.4906993666666667,0.3233318599999999,-3.882404916666667,-0.8127816499999999,-0.0677551383333333
721,1778427224000,-0.0678698161666666,0.3994643499999999,0.4386942966666667,-3.962072000000001,-0.8037459,-0.100334615
722,1778427224010,-0.0744149116666666,0.3517075,0.4883415,-4.172693249999999,-0.6990079833333334,-0.2135992108333333
723,1778427224020,-0.0747299725,0.32410426,0.5260368,-4.3257657499999995,-0.6070473,-0.2461786849999999
724,1778427224030,-0.0578997215,0.304011625,0.58155835,-4.5209118,-0.5042692333333333,-0.2748384466666667
725,1778427224040,-0.034737799,0.2992857433333333,0.6230851,-4.6061784333333335,-0.5294165633333333,-0.3126102833333333
726,1778427224050,-0.0099396045,0.3023956833333333,0.7149603999999999,-4.713283466666666,-0.7544440450000001,-0.4452953166666666
727,1778427224060,0.00033538535,0.284406825,0.7651666,-4.7297768499999995,-0.864068895,-0.5256495499999999
728,1778427224070,0.0064637917,0.26611307,0.7979734,-4.710229428571429,-0.9707521271428572,-0.6206172714285714
729,1778427224080,0.0064637917,0.26611307,0.7979734,-4.696027,-0.9992228,-0.64934975
730,1778427224090,0.0350368888142857,0.2016493942857143,0.7848628685714286,-4.684747428571429,-1.0485065571428571,-0.7277804857142857
731,1778427224100,0.0601457873333333,0.1345403733333333,0.7589060533333334,-4.7175085999999995,-1.0599785,-0.8088873833333333
732,1778427224110,0.0647860108571428,0.0701434668571428,0.7552444285714286,-4.963869085714285,-0.8335910657142858,-0.9545860285714286
733,1778427224120,0.055358922,-0.037400556,0.7946703666666667,-5.2833734,-0.4833471200000001,-1.0490084
734,1778427224130,0.046953958,-0.107506275,0.8819417399999999,-5.540089599999999,-0.16401732,-1.1305588
735,1778427224140,0.0652883593333333,-0.1229136783333333,0.9360505533333332,-5.612553600000001,-0.1065196285,-1.17469385
736,1778427224150,0.10006681,-0.1495819,1.01865698,-5.7206513333333335,-0.0753909546666666,-1.3014484000000002
737,1778427224160,0.1295807266666666,-0.1952552933333333,1.1010805333333331,-5.782959333333333,-0.2870557633333333,-1.6356934666666667
738,1778427224170,0.1490853528571428,-0.2572188514285714,1.1236195857142857,-5.779439542857142,-0.4583670985714286,-1.7747380428571429
739,1778427224180,0.164491305,-0.310383975,1.1541222,-5.7927843999999995,-0.9814568283333333,-2.0610084
740,1778427224190,0.1661885566666666,-0.3739242533333333,1.2060866,-5.778429033333333,-1.1819733666666667,-2.1403190999999997
741,1778427224200,0.1516116385714285,-0.5004124714285715,1.3057382000000002,-5.707575742857143,-1.697245542857143,-2.2655465714285716
742,1778427224210,0.1902549999999999,-0.61223084,1.4528896,-5.552612166666667,-2.2858067666666666,-2.3205753
743,1778427224220,0.2100732357142857,-0.6725566685714286,1.5770693142857144,-5.344590857142857,-2.5104379714285714,-2.3254548285714285
744,1778427224230,0.2057233833333333,-0.7205501999999999,1.6886960000000002,-4.82845725,-2.7743971,-2.2780691166666664
745,1778427224240,0.19186485,-0.7406041800000001,1.7200394,-4.64498884,-2.82235008,-2.24450216
746,1778427224250,0.1618692016666666,-0.7531333833333332,1.665808483333333,-4.110792083333333,-2.9025516166666665,-2.0650299833333334
747,1778427224260,0.1419086916666666,-0.7528284983333333,1.61954575,-3.8615847,-2.9527952833333333,-1.901801716666667
748,1778427224270,0.15998495,-0.7483485599999999,1.60336192,-3.61244318,-3.06422236,-1.6645162
749,1778427224280,0.22779785,-0.7339554333333332,1.59235915,-3.4156021333333335,-3.188691166666666,-1.4966198666666666
750,1778427224290,0.275229465,-0.721475005,1.61863105,-3.2911892,-3.27561215,-1.4250723
751,1778427224300,0.359106304,-0.69968714,1.7154781800000003,-2.7973046,-3.3669364,-1.2924381
752,1778427224310,0.38544932,-0.6872961733333334,1.7813438333333331,-2.67925485,-3.3250922000000003,-1.26632365
753,1778427224320,0.3687003766666667,-0.6752223066666666,1.7989668333333333,-2.29143175,-3.0812043,-1.10223
754,1778427224330,0.3558947366666666,-0.6294879333333333,1.8285213,-1.774130816666667,-2.5886177666666668,-0.7962628833333333
755,1778427224340,0.3646554083333333,-0.60932415,1.8283688166666667,-1.7246253000000002,-2.5305092,-0.7626653
756,1778427224350,0.36953375,-0.5740579,1.7931534000000002,-1.3776538,-1.9894354000000003,-0.5395467
757,1778427224360,0.3588929133333333,-0.55229848,1.7454880333333334,-1.1477394166666668,-1.4951436333333332,-0.3025819133333333
758,1778427224370,0.3704281366666667,-0.51151358,1.7380282666666669,-0.8084292666666667,-0.7137960533333333,0.0431169066666666
759,1778427224380,0.4057147166666666,-0.4695599,1.7546146,-0.5866851866666667,-0.2582432733333333,0.2168571733333333
760,1778427224390,0.41843905,-0.45652053,1.7583344,-0.4849252083333333,-0.0946586516666666,0.27618746
761,1778427224400,0.4308584866666667,-0.44148918,1.7864457666666669,-0.0918334093333333,0.3061962166666667,0.4209879733333333
762,1778427224410,0.42947628,-0.4363669166666666,1.820370466666667,0.1560251586666666,0.4444553799999999,0.4592179566666667
763,1778427224420,0.40560293,-0.4503006666666667,1.8450873,0.494724485,0.5272530649999999,0.4939609049999999
764,1778427224430,0.392596068,-0.4551607119999999,1.82632598,1.11293544,0.6064364720000001,0.5483126479999999
765,1778427224440,0.3904496,-0.45563635,1.8209598,1.201572,0.61361414,0.5551238
766,1778427224450,0.3741478466666666,-0.45968128,1.7252634,1.7963510333333332,0.7198538066666668,0.6200282333333332
767,1778427224460,0.3776643216666666,-0.4646510866666666,1.68905195,2.0309234333333333,0.7895433533333334,0.6673702833333334
768,1778427224470,0.4281957214285715,-0.47672642,1.6038304714285714,2.1728040571428573,0.8686721785714286,0.6916739714285715
769,1778427224480,0.447367564,-0.477454702,1.6105574400000002,2.1853704,0.87796605,0.6930266
770,1778427224490,0.4500059283333333,-0.4778937533333333,1.6164765,2.26585195,0.988150875,0.65477118
771,1778427224500,0.4167723033333333,-0.5067572283333334,1.6646499166666666,2.5732444166666664,1.30679345,0.58622701
772,1778427224510,0.4054504985714285,-0.51494295,1.6721881142857142,2.6767460285714284,1.378984628571429,0.5852743342857144
773,1778427224520,0.386089595,-0.5331205416666666,1.6650159000000002,2.9378035333333337,1.5096516666666666,0.6341290333333333
774,1778427224530,0.3926448666666666,-0.5296244,1.6630441666666669,3.1690669333333332,1.6080009666666666,0.6923139333333334
775,1778427224540,0.4088653066666667,-0.5171033166666666,1.6551372666666666,3.2388074,1.6346754,0.7108944
776,1778427224550,0.41508517,-0.51228595,1.651194,3.2388074,1.6346754,0.7108944
777,1778427224560,0.43374482,-0.500547485,1.6382054,3.534058966666666,1.7392860666666667,0.678289475
778,1778427224570,0.4355480628571428,-0.4705152485714285,1.6048323,3.8882444857142855,1.898700042857143,0.5561491685714286
779,1778427224580,0.39620198,-0.4466520666666667,1.5747667,4.047593,2.0131063,0.46975538
780,1778427224590,0.36325291,-0.42286004,1.5429254,4.047593,2.0131063,0.46975538
781,1778427224600,0.3454731285714286,-0.4029503471428571,1.512666642857143,4.171729714285715,2.094002342857143,0.4631231228571428
782,1778427224610,0.3386783,-0.3766073299999999,1.4564265,4.3698245,2.14994025,0.47158797
783,1778427224620,0.326878835,-0.33112705,1.4025818666666667,4.4808492499999995,2.1111249,0.4294382699999999
784,1778427224630,0.3036152833333333,-0.28934616,1.3565426333333337,4.5773912999999995,2.0099248333333333,0.382656175
785,1778427224640,0.2854434933333333,-0.26009648,1.3322526,4.704884,1.8672624,0.34147367
786,1778427224650,0.2968974366666667,-0.2210088333333333,1.29909,4.803004416666667,1.7662149833333334,0.29693142
787,1778427224660,0.3001394999999999,-0.21495157,1.293673,4.8226285,1.7460055,0.28802297
788,1778427224670,0.3035543,-0.1735467199999999,1.2489753,4.9550333,1.5705346,0.18570304
789,1778427224680,0.27571731,-0.155791616,1.1840223333333333,5.021210366666667,1.424945033333333,0.09565132
790,1778427224690,0.18434003,-0.110189356,1.0113395,5.110804,0.9790643,-0.21105394
791,1778427224700,0.1794312099999999,-0.0940603649999999,0.998777785,5.085147500000001,0.9385181,-0.24518603
792,1778427224710,0.177500205,-0.0734900586666666,0.9860128083333332,5.056436733333334,0.88814715,-0.2882520266666666
793,1778427224720,0.20992078,-0.043305372,1.00811775,5.046001316666667,0.7437029833333333,-0.5098179683333334
794,1778427224730,0.1977902914285714,-0.0441663407142857,1.0172370000000002,5.107706071428572,0.6055202142857142,-0.71261795
795,1778427224740,0.14574021,-0.035124,1.024389,5.1987686,0.42363504,-0.8695667
796,1778427224750,0.095635665,-0.0516900058333333,1.0118883333333335,5.351638,0.35735616,-0.96852684
797,1778427224760,0.0712338343333333,-0.0675547561666666,0.950949825,5.40905915,0.38744128,-0.9704358
798,1778427224770,0.07110171,-0.0704919206666666,0.8979589333333333,5.458997266666667,0.5085962333333334,-0.9596183933333332
799,1778427224780,0.0757767766666666,-0.0726668466666666,0.7901680866666667,5.417712966666667,0.7834856,-0.92546084
800,1778427224790,0.0749433983333333,-0.0620564716666666,0.6889629566666665,5.290041899999999,1.1392637,-0.8930340866666665
801,1778427224800,0.0658139457142857,0.0003832971428571,0.5319299785714285,5.004709628571428,1.7537286714285716,-0.8514370671428572
802,1778427224810,0.061527982,0.014756958,0.50978583,4.9506044,1.8632917,-0.8468119499999999
803,1778427224820,0.072870109,0.027013771,0.4692042,4.9506044,1.8632917,-0.8468119499999999
804,1778427224830,0.10031073,0.08037054,0.30684718,4.6092835999999995,2.3687390857142856,-0.8605127928571428
805,1778427224840,0.10031073,0.08037054,0.30684718,4.304462,2.8136454,-0.8761335
806,1778427224850,0.0094517708333333,0.127314345,0.1804780149999999,3.6556212,3.6012542999999995,-0.8370381
807,1778427224860,-0.0021429819999999,0.1267582728571428,0.1828591057142857,3.547054457142857,3.731623114285714,-0.8205447285714286
808,1778427224870,-0.0981764599999999,0.11592139,0.20208496,3.472030833333333,3.96935135,-0.689845025
809,1778427224880,-0.1107207457142857,0.1143097971428571,0.1773448457142857,3.495327314285714,3.960566528571429,-0.632725492857143
810,1778427224890,-0.1167141279999999,0.11387859,0.1435449625,3.66040635,3.668805683333334,-0.38983385
811,1778427224900,-0.117689796,0.11409202,0.119641125,3.844633,3.2743905000000004,-0.25137106
812,1778427224910,-0.1170887162857142,0.1355653985714285,0.0892299437142857,3.884819228571428,3.1684053857142858,-0.2325651342857142
813,1778427224920,-0.1486062291666666,0.18756176,0.0019818227499999,4.1676283,2.4564419,-0.10369437
814,1778427224930,-0.15433827,0.1908648,-0.0048783333,4.1676283,2.4564419,-0.10369437
815,1778427224940,-0.15433827,0.1908648,-0.0048783333,4.1676283,2.4564419,-0.10369437
816,1778427224950,-0.2070750866666666,0.16524338,-0.0969162316666666,4.391612216666666,2.018146066666666,0.129707055
817,1778427224960,-0.193639345,0.183425325,-0.19534677,4.436867,1.86596425,0.33063081
818,1778427224970,-0.16785822,0.2318340714285714,-0.3522069642857143,4.382085571428571,1.771072942857143,0.5750641542857142
819,1778427224980,-0.16388151,0.250624365,-0.4063651750000001,4.341114,1.7593683,0.6164393499999999
820,1778427224990,-0.1536268466666666,0.29385861,-0.5213109066666667,4.2125266,1.6980526333333332,0.6967427
821,1778427225000,-0.1487978757142857,0.3316831285714285,-0.6188775714285715,4.094476871428571,1.6008159714285717,0.7307911828571428
822,1778427225010,-0.16549747,0.40349916,-0.8134011600000001,3.8640789666666664,1.3777047333333332,0.7431684933333335
823,1778427225020,-0.1885476,0.43429363,-0.9375548,3.5980981,1.1950560666666667,0.7629706866666667
824,1778427225030,-0.1885476,0.43429363,-0.9375548,3.4994943,1.1362094,0.77213365
825,1778427225040,-0.1892589999999999,0.4451174133333333,-1.04086355,3.1184925333333333,1.0895291166666663,0.827926025
826,1778427225050,-0.1730995199999999,0.4523231233333333,-1.0651434333333334,2.469015466666667,1.106684233333333,0.9456703
827,1778427225060,-0.1576137185714285,0.4567949342857143,-1.0660552428571428,2.312997542857143,1.1161380857142855,0.9736101142857144
828,1778427225070,-0.0714066,0.4928946,-1.0725626,1.8805268142857143,1.013643614285714,1.001404485714286
829,1778427225080,-0.0714066,0.4928946,-1.0725626,1.8186985,0.9764681,0.9973902
830,1778427225090,-0.0454802936666666,0.5146336933333333,-1.111924583333333,1.7568484166666665,0.8575020883333333,0.960076525
831,1778427225100,-0.0254283121428571,0.5385854171428571,-1.2481129285714283,1.4505649714285715,0.3314816657142857,0.7754279785714286
832,1778427225110,-0.0206719374999999,0.54274508,-1.3161134,1.2732722,0.22563835,0.7102071950000001
833,1778427225120,-0.0141674933333333,0.54322272,-1.3937601666666666,0.9708939,0.152945385,0.62682408
834,1778427225130,-0.0098699138,0.5431936742857143,-1.4161540285714285,0.7192283714285714,0.1400626757142857,0.5715298857142858
835,1778427225140,-0.0035977708,0.54484886,-1.4266076,0.5109888,0.14508049,0.5323691
836,1778427225150,0.0163772617714285,0.5508422457142857,-1.420370342857143,0.1182678814285714,0.1330595365714285,0.4229587371428571
837,1778427225160,0.0302282445714285,0.5552065942857143,-1.4026951428571428,-0.3016147114285714,0.0798269974285714,0.2905100485714285
838,1778427225170,0.0348699203333333,0.5607237816666667,-1.3591544999999998,-0.7489208,-0.074830994,0.1255328
839,1778427225180,0.0325222226666666,0.5615165000000001,-1.3411961,-0.7489208,-0.074830994,0.1255328
840,1778427225190,0.027318668,0.5613132,-1.3184305,-0.7489207999999999,-0.074830994,0.1255328
841,1778427225200,0.0140556985,0.55350793,-1.243975,-1.322370533333333,-0.39619702,-0.0728965876666666
842,1778427225210,0.0033538543571428,0.54206997,-1.1927089285714287,-1.6536558142857145,-0.5689773371428571,-0.1429424657142857
843,1778427225220,-0.0149805488333333,0.51328195,-1.0861812333333332,-1.8450166666666667,-0.64705901,-0.16182838
844,1778427225230,-0.019635292,0.5050904,-1.0545737,-1.9172006,-0.6740898,-0.16661349
845,1778427225240,-0.0221354378571428,0.4996371228571429,-1.0346770671428571,-1.961924657142857,-0.6851290042857142,-0.1644536457142857
846,1778427225250,-0.037136313,0.46691746,-0.91529727,-2.230269,-0.75136423,-0.15149458
847,1778427225260,-0.0409170215,0.4536240099999999,-0.8583427650000001,-2.3458753,-0.7642687650000001,-0.1257618825
848,1778427225270,-0.031770147,0.42368326,-0.7607761,-2.4614816,-0.7771733,-0.100029185
849,1778427225280,-0.031770147,0.42368326,-0.7607760999999998,-2.57159,-0.7857254,-0.08277224
850,1778427225290,-0.0327153235,0.42566508,-0.7437324200000001,-2.6890289000000003,-0.8232172649999999,-0.08689558
851,1778427225300,-0.0271967086666666,0.4253297,-0.7155905133333333,-2.9100092666666666,-0.9138544166666668,-0.1046615799999999
852,1778427225310,-0.0129885627333333,0.4159592199999999,-0.6934144,-3.0776407999999997,-0.9707666866666664,-0.1340849166666666
853,1778427225320,-0.0020994256,0.3992741657142857,-0.6596290485714286,-3.2736923,-1.0065750285714286,-0.1777399657142857
854,1778427225330,0.0087606739,0.3821157883333333,-0.6042933850000001,-3.5040758000000003,-1.0488557,-0.2367102799999999
855,1778427225340,0.01981823,0.37221682,-0.5413121,-3.675372633333333,-1.0970885333333331,-0.3005965966666666
856,1778427225350,0.0180091813333333,0.37070251,-0.5352040166666666,-3.7290269333333335,-1.1141418333333333,-0.3223077666666666
857,1778427225360,0.0057843098571428,0.3569459171428571,-0.4645480285714286,-4.028503657142857,-1.2375693285714284,-0.4494440942857143
858,1778427225370,0.0030489584999999,0.357094,-0.36319193,-4.1887029333333325,-1.3363695666666666,-0.5296710800000001
859,1778427225380,-0.0040551142499999,0.3533437749999999,-0.309987605,-4.3295837,-1.4651603,-0.62552602
860,1778427225390,-0.011159187,0.34959355,-0.25678328,-4.40724,-1.5517504000000002,-0.6881397000000001
861,1778427225400,-0.0421162788333333,0.2978933883333333,-0.110463761,-4.553185666666667,-1.7067574666666667,-0.7829765399999999
862,1778427225410,-0.083521134,0.2432255733333333,0.123015298,-4.6109634999999995,-1.6739235,-0.78183115
863,1778427225420,-0.1145537174285714,0.2190545957142857,0.3116035385714286,-4.593357714285714,-1.4888530857142857,-0.7255770057142856
864,1778427225430,-0.1698879633333333,0.2179801966666666,0.4756781766666666,-4.507422,-1.36849085,-0.6727916899999999
865,1778427225440,-0.2365991866666666,0.2359284066666666,0.58005418,-4.321311666666666,-1.1452705,-0.5248350466666666
866,1778427225450,-0.2618852,0.2534700866666666,0.6081859,-4.2670465,-1.0818423,-0.47326785
867,1778427225460,-0.2697718,0.27208906,0.6197313,-4.1873283,-1.0189233,-0.3707952
868,1778427225470,-0.2673326466666667,0.3709972666666667,0.6261137666666666,-3.9784126333333334,-1.324966766666667,-0.2991203466666666
869,1778427225480,-0.26766805,0.4125850499999999,0.5800948,-3.8458549,-1.66834935,-0.20654881
870,1778427225490,-0.254079855,0.4163556216666667,0.5242785166666667,-3.8724275,-1.9996674,-0.10048734
871,1778427225500,-0.23760532,0.39977945,0.539970535,-4.0197987500000005,-2.13736665,-0.0469093616666666
872,1778427225510,-0.1958302314285714,0.3030490428571428,0.7565946842857142,-4.131085228571429,-2.1164734714285713,0.0474511394285714
873,1778427225520,-0.1611592285714285,0.2542569971428571,0.9903278242857142,-4.056887114285715,-1.8443767,0.1841758652857143
874,1778427225530,-0.13702019,0.2455631,1.0760994,-3.9607994,-1.6776905333333334,0.2515746833333334
875,1778427225540,-0.0854419775,0.2811851,1.0449492333333332,-3.76544975,-1.3812935833333333,0.3221295999999999
876,1778427225550,-0.0736889711428571,0.30328424,0.9999364428571428,-3.683037442857142,-1.2489358285714285,0.3158391342857142
877,1778427225560,-0.071772486,0.32325056,0.9482261,-3.644422,-1.1849259,0.30405816
878,1778427225570,-0.1018526328571428,0.3794123914285713,0.7149720342857143,-3.645054714285714,-1.5371333285714286,0.1802270628571428
879,1778427225580,-0.0752308699999999,0.36950764,0.6594548285714286,-3.737557114285714,-1.9297888428571428,0.1546579942857142
880,1778427225590,-0.035428897,0.3088595,0.702541,-3.8806233,-2.231592616666666,0.1390736583333333
881,1778427225600,-0.0295487628571428,0.29988685,0.71222798,-3.906636,-2.2820399,0.13637567
882,1778427225610,0.0184766876666666,0.2378899049999999,0.7834298833333334,-3.9502365,-2.290006583333333,0.1490511233333333
883,1778427225620,0.1040391711428571,0.1601051657142857,0.8975698,-4.220926142857143,-2.258063357142857,0.2149372971428571
884,1778427225630,0.1461874,0.111307306,0.9528605166666668,-4.330424,-2.0493002,0.23365596
885,1778427225640,0.15909465,0.1047012359999999,0.9745081,-4.4533606,-1.8655824999999997,0.19165897
886,1778427225650,0.16839833,0.0920872582857142,0.9874357,-4.524482528571428,-1.7844246428571429,0.1530435628571428
887,1778427225660,0.1881308983333333,0.0577269441666666,1.02782415,-4.682613133333334,-1.7920495833333332,0.0338775691666666
888,1778427225670,0.19077333,0.040581634,1.04942095,-4.73794725,-1.83206125,-0.0185550335
889,1778427225680,0.1738777371428571,-0.0311690654285714,1.0967103142857142,-4.8588223,-2.028378,-0.09728029
890,1778427225690,0.17641273,-0.0840902699999999,1.123785,-4.9612947,-2.1484132,-0.051618114
891,1778427225700,0.2221471133333333,-0.13292442,1.14004625,-5.053815366666666,-2.2033909499999997,-0.0004581489999999
892,1778427225710,0.3169087357142857,-0.1803240985714285,1.205131328571429,-5.218272714285715,-2.2346759285714284,0.0142462497142857
893,1778427225720,0.3490854116666666,-0.2174720266666666,1.2494225,-5.319210933333333,-2.2191715666666667,-0.0003563386666666
894,1778427225730,0.4001453,-0.3310559,1.3692871,-5.5066447,-1.9381227,-0.1156062499999999
895,1778427225740,0.3893723133333333,-0.3643911666666666,1.3874183,-5.560986283333333,-1.8156951166666664,-0.1545489083333333
896,1778427225750,0.3671149199999999,-0.4339074,1.4115255,-5.594049533333333,-1.7316502666666669,-0.16905696
897,1778427225760,0.3679831385714286,-0.5209624285714286,1.4902350999999998,-5.5711129999999995,-1.6921621714285713,-0.16979872
898,1778427225770,0.4139469333333332,-0.5566280083333334,1.5836086499999995,-5.417636566666666,-1.7596737166666667,-0.1869502116666666
899,1778427225780,0.4361230166666667,-0.5904003,1.6645483333333333,-5.063869333333334,-1.9136372333333336,-0.2597195433333333
900,1778427225790,0.4243743566666667,-0.6174343999999999,1.7660277999999998,-4.469166416666667,-2.202881833333333,-0.3213914733333333
901,1778427225800,0.436549875,-0.6191215,1.82547235,-4.0643409,-2.3282109666666666,-0.3128648133333333
902,1778427225810,0.4730938128571428,-0.6055057285714286,1.912463442857143,-3.3438109285714286,-2.363437671428571,-0.3094250528571428
903,1778427225820,0.4453512033333333,-0.59483146,1.9103960333333332,-3.00186825,-2.3157902,-0.3010802
904,1778427225830,0.3450811199999999,-0.5810705,1.843888,-2.244319,-2.091908,-0.13775012
905,1778427225840,0.34349567,-0.5537518,1.8090689,-1.8182404,-1.8704693,0.104610674
906,1778427225850,0.3901345416666666,-0.5142576166666667,1.7447765833333333,-1.50619015,-1.7024813833333334,0.2739985123333333
907,1778427225860,0.4599049,-0.4726495,1.6957698,-1.15255,-1.4955509000000002,0.4343252
908,1778427225870,0.4934738999999999,-0.45764863,1.6993370499999998,-1.05297897,-1.40537185,0.44806967
909,1778427225880,0.5835096,-0.40410894,1.7407112,-0.6934847999999999,-1.0149527,0.41798455
910,1778427225890,0.6258292,-0.37081432,1.7804698,-0.3936517416666666,-0.6004551166666666,0.3412446083333333
911,1778427225900,0.63103278,-0.3715460666666666,1.772989666666667,-0.17200947,-0.2667953999999999,0.2801835399999999
912,1778427225910,0.63363457,-0.37191194,1.7692496,-0.09117164,-0.1414153,0.257327
913,1778427225920,0.6069460000000001,-0.3755707033333333,1.735772,0.2105958,0.2294817133333333,0.2087632066666666
914,1778427225930,0.5755824,-0.37282664,1.7253445,0.5732752171428572,0.46022152,0.17165313
915,1778427225940,0.6057671,-0.37898555,1.7415041,0.8409578333333334,0.4759149283333333,0.12357295
916,1778427225950,0.620707,-0.389352,1.7498581,0.9987647,0.50320023,0.07147124
917,1778427225960,0.620707,-0.389352,1.7498580999999995,0.9987647,0.50320023,0.07147124
918,1778427225970,0.620707,-0.389352,1.7498581,0.9987647,0.50320023,0.07147124
919,1778427225980,0.5491479,-0.5102736766666666,1.7917509333333337,1.4951945666666668,1.5062918833333334,-0.2489021383333333
920,1778427225990,0.5383241,-0.5186888,1.7986416,1.5131133,1.594511,-0.25488353
921,1778427226000,0.5383241,-0.5186888,1.7986416,1.5131133,1.594511,-0.25488353
922,1778427226010,0.4812882533333333,-0.5499914166666667,1.8219559,1.9043724666666664,2.3312146666666664,-0.052738032
923,1778427226020,0.491736,-0.54551965,1.8280945,2.0821342,2.435978,0.003970624
924,1778427226030,0.4995413333333333,-0.5420235166666667,1.8134595,2.322560616666667,2.429436566666667,0.0121409468333333
925,1778427226040,0.4940532166666666,-0.5254778266666666,1.7546145333333332,2.7760263166666665,2.3406065333333332,-0.0110464796666666
926,1778427226050,0.4639295157142857,-0.4965620514285714,1.649225057142857,3.254471957142857,2.2304216,-0.0672169904285714
927,1778427226060,0.4501075466666666,-0.4756985,1.5781002333333334,3.4946073,2.225611166666667,-0.0887536316666666
928,1778427226070,0.4428103666666667,-0.4613887266666667,1.5188081999999998,3.5304956,2.227062,-0.09162979
929,1778427226080,0.4310617333333333,-0.4379727066666667,1.4210382,3.628641333333333,2.2584451,-0.116242565
930,1778427226090,0.42474023,-0.42924252,1.4021752833333334,3.6209037,2.2527182,-0.11133019
931,1778427226100,0.40366178,-0.40536916,1.3980083,3.7076466,2.3017402,-0.16417004
932,1778427226110,0.3678873066666666,-0.3796359666666666,1.3844303666666666,3.8785105666666664,2.217186283333333,-0.1933388499999999
933,1778427226120,0.3447762,-0.3693304866666667,1.365811433333333,4.05192,2.0926207333333333,-0.22154046
934,1778427226130,0.29911154,-0.3372322342857142,1.3030377000000002,4.289365071428572,1.859452,-0.2556907371428571
935,1778427226140,0.3018265533333333,-0.3321332066666666,1.2593214,4.39654985,1.76944755,-0.2748130099999999
936,1778427226150,0.27118452,-0.312487765,1.0273465,4.3758566666666665,1.9838867833333331,-0.3624467083333333
937,1778427226160,0.1662902,-0.19860914,1.1481158,4.3293550000000005,1.7761416333333333,-0.3584506383333334
938,1778427226170,0.18873052,-0.19732858,1.1861668,4.473111866666667,1.3773993333333332,-0.3390302066666666
939,1778427226180,0.2042294033333333,-0.224769205,1.1717349666666668,4.814229,0.9957104,-0.34422258
940,1778427226190,0.20732918,-0.23025733,1.1688486,4.8385109,0.9904162166666668,-0.3509420933333333
941,1778427226200,0.218884715,-0.2224519999999999,1.0822277500000002,5.242572816666667,0.8290459666666666,-0.4831689433333332
942,1778427226210,0.2141791566666666,-0.2019020233333333,1.0281494,5.3092844,0.7938703166666666,-0.5093598
943,1778427226220,0.226588425,-0.1886187283333333,0.9356948833333332,5.3980634499999995,0.771217375,-0.59444825
944,1778427226230,0.2152477542857143,-0.1842267742857142,0.8841369642857142,5.473112700000001,0.8348564571428572,-0.7303985
945,1778427226240,0.1948589349999999,-0.170863625,0.8479153250000001,5.476636200000001,0.95394245,-0.813290725
946,1778427226250,0.1455369333333333,-0.144256375,0.7827286166666667,5.469585900000001,1.1828641833333335,-0.8895725166666667
947,1778427226260,0.1144375633333333,-0.1291132266666666,0.7335590666666666,5.4683382499999995,1.2907837333333334,-0.9052005083333334
948,1778427226270,0.0807262533333333,-0.0939790649999999,0.6598250916666667,5.47747595,1.3099496166666669,-0.9229664616666668
949,1778427226280,0.0715793783333333,-0.0840699491666666,0.6418565583333334,5.490304300000001,1.28930745,-0.93714362
950,1778427226290,0.0394622317142857,-0.0570590795714285,0.5940242085714286,5.507582971428571,1.2636620571428572,-0.9501572457142858
951,1778427226300,0.0359675471666666,-0.0474214671666666,0.54718634,5.518404100000001,1.2782356,-0.960967395
952,1778427226310,0.037563168,-0.0347987783333333,0.5062896666666666,5.512040750000001,1.3612367833333332,-1.00393154
953,1778427226320,0.0392299326666666,-0.0147163053333333,0.4609212,5.477475800000001,1.508938916666667,-1.0610729166666666
954,1778427226330,0.047380816,0.01762298,0.3966085,5.44448935,1.61543315,-1.1000919500000002
955,1778427226340,0.047380816,0.01762298,0.3966085,5.417917,1.6949984,-1.1290317
956,1778427226350,0.019025501,0.0230602883333333,0.2916735,5.270672833333333,2.1570924,-1.2585860333333334
957,1778427226360,-0.0099091145,0.0345447,0.223763045,5.213735,2.3044127333333333,-1.2909619
958,1778427226370,-0.0482955023333333,0.058763594,0.15362685,5.0471721333333335,2.63568,-1.3311772333333334
959,1778427226380,-0.0690893966666666,0.0740896886666666,0.1315320613333333,4.9758537333333335,2.768390533333333,-1.3523538666666666
960,1778427226390,-0.101591292,0.093877427,0.096133652,4.959920366666666,2.781829533333333,-1.363044
961,1778427226400,-0.1316017631428571,0.0965213085714285,0.0672164617142857,5.0427798,2.5850072,-1.371239828571429
962,1778427226410,-0.14958191,0.0962861,0.056344748,5.067738,2.5262332,-1.3745996
963,1778427226420,-0.2134880666666666,0.0814478403333333,-0.0193405578333333,5.100190216666667,2.4881559333333336,-1.3306681833333334
964,1778427226430,-0.35715497,0.058905877,-0.25422215,5.189911,2.3785565,-1.1296426
965,1778427226440,-0.35715497,0.058905877,-0.25422215,5.144096200000001,2.4370469,-1.0130436699999998
966,1778427226450,-0.35715497,0.058905877,-0.25422215,5.0982814,2.4955373,-0.8964447400000001
967,1778427226460,-0.3686190566666666,0.1354957056666666,-0.4567543166666666,4.6306639333333335,2.7766370333333334,-0.3194825216666666
968,1778427226470,-0.3490534657142857,0.2175213971428571,-0.6029707428571428,4.150502,2.8949558000000004,0.1745547399999999
969,1778427226480,-0.29824913,0.30648127,-0.7000409,3.9345175571428577,2.7697502857142857,0.3406010028571428
970,1778427226490,-0.2962368,0.3334645599999999,-0.750958485,3.818111433333333,2.5709282,0.4117740766666666
971,1778427226500,-0.29422447,0.36044785,-0.8018760699999999,3.6885571,2.2064452,0.4547891600000001
972,1778427226510,-0.3118561928571428,0.3982201057142857,-0.9702918285714286,3.3687908571428573,1.5417584285714283,0.5178173714285714
973,1778427226520,-0.3006069566666666,0.3984175733333333,-1.0278851999999998,3.007289533333333,1.226566466666667,0.6010404666666667
974,1778427226530,-0.2952611,0.39868182,-1.0426828,2.9164233000000004,1.1820242,0.6220135000000001
975,1778427226540,-0.2822319,0.4006331466666666,-1.0508133333333334,2.675436966666666,1.1599312666666668,0.6556620133333334
976,1778427226550,-0.1833295142857142,0.430269,-1.075054,2.0241673857142857,1.1023063714285717,0.7041967314285714
977,1778427226560,-0.15439926,0.44057447,-1.0785385,1.8971947,1.0922271,0.690125
978,1778427226570,-0.1237441585714285,0.47075918,-1.1069984285714285,1.6412858142857143,0.9611092142857144,0.5590071542857143
979,1778427226580,-0.10610375,0.4965272571428571,-1.148673357142857,1.3872095428571427,0.7797040657142856,0.3874630928571428
980,1778427226590,-0.1139874857142857,0.5075906142857142,-1.236222,1.1601858428571428,0.6682865885714285,0.25798148
981,1778427226600,-0.1251495733333333,0.5113306333333333,-1.2991002,0.87837334,0.5898922,0.1461495133333333
982,1778427226610,-0.13458102,0.51048708,-1.3373951,0.7459428433333334,0.5643885733333334,0.1049670158333333
983,1778427226620,-0.142691255,0.5032000799999999,-1.3622135999999998,0.389044815,0.50396383,0.02962696315
984,1778427226630,-0.1451739771428571,0.4927552142857143,-1.3560809285714286,-0.0065231657142857,0.3883793914285714,-0.0399680389142857
985,1778427226640,-0.1429554933333333,0.4904757533333333,-1.3446110333333332,-0.15006922,0.3118976066666666,-0.0638863213333333
986,1778427226650,-0.1369330714285714,0.48797272,-1.326148785714286,-0.2764165,0.2228131,-0.08475755
987,1778427226660,-0.13244675,0.48344287,-1.3100765,-0.2764165,0.2228131,-0.08475755
988,1778427226670,-0.13244675,0.48344287,-1.3100765,-0.48288897,0.0105374249999999,-0.129198
989,1778427226680,-0.13244675,0.48344287,-1.3100765,-0.575740475,-0.0797942791666666,-0.1386409583333333
990,1778427226690,-0.1415762014285714,0.4768745357142857,-1.2838380142857144,-1.088169142857143,-0.5672320228571428,-0.1836740928571428
991,1778427226700,-0.1638306966666666,0.4543151333333333,-1.1928135,-1.2375112,-0.6651813366666667,-0.1768454933333333
992,1778427226710,-0.16269243,0.442038,-1.1419569,-1.4639386,-0.8074111299999999,-0.16646078
993,1778427226720,-0.16269243,0.442038,-1.1419569,-1.604393971428571,-0.87050479,-0.1525854114285714
994,1778427226730,-0.1528341216666666,0.4120565666666667,-1.0010949833333334,-1.9395989333333337,-1.0023789333333333,-0.1167770733333333
995,1778427226740,-0.15086246,0.40606028,-0.9729226,-1.9824104,-1.0219775,-0.1142318
996,1778427226750,-0.1604971733333333,0.3876852266666666,-0.9096669066666668,-2.1927517333333335,-1.0734938333333333,-0.1000800893333333
997,1778427226760,-0.16635117,0.374869425,-0.86340403,-2.340733866666667,-1.1111129666666666,-0.088880894
998,1778427226770,-0.16738781,0.3712411500000001,-0.848769,-2.6256516,-1.2011138,-0.06566802
999,1778427226780,-0.1703757833333333,0.3504371333333334,-0.7825761166666667,-2.6580274,-1.2085205,-0.0631481984999999
1000,1778427226790,-0.168461044,0.344690856,-0.75136088,-2.78288824,-1.24634832,-0.0605062038
