id,timestamp,acc_x,acc_y,acc_z,gyro_x,gyro_y,gyro_z
0,1778427636310,0.119854555,-0.27317142,0.7258197975,-1.8359173,-1.194623325,-1.7274505
1,1778427636320,0.2209173633333333,-0.2975173616666666,0.7120435633333333,-1.7437402666666666,-1.3277665666666667,-1.4390712166666668
2,1778427636330,0.28471172,-0.29550505,0.7018092,-1.6551393,-1.4048374,-1.3309226
3,1778427636340,0.3310559,-0.29166338,0.6764419,-1.5497651,-1.4353806,-1.317331
4,1778427636350,0.344715244,-0.289907156,0.623755932,-1.4604261,-1.4292719,-1.329701
5,1778427636360,0.35434994,-0.29751736,0.5286894,-1.4398094,-1.3765849,-1.3322971
8,1778427636390,0.52009132,-0.311786485,0.132812625,-1.8025107,-1.137660125,-1.2600623
9,1778427636400,0.5772288,-0.32392135,0.07683375,-2.0732768,-0.98822725,-1.2255484
10,1778427636410,0.6569896,-0.29422447,-0.046283185,-2.705936657142857,-0.6024876499999999,-1.2315043285714289
11,1778427636420,0.9128582,-0.33410487,-0.16775368,-3.371670700000001,-0.4888448999999999,-1.1650727
12,1778427636430,1.1886669,-0.37569264,-0.2511732,-3.7081048,-0.6953174,-1.2915218
13,1778427636440,1.1886669,-0.37569264,-0.2511732,-3.91686805,-0.8987355499999999,-1.50715725
14,1778427636450,1.1886669,-0.37569264,-0.2511732,-4.1256313,-1.1021537,-1.7227927
15,1778427636460,1.6359388666666668,-0.3391051516666667,-0.1315727141666667,-4.598415216666667,-1.5707381166666667,-2.4116704500000004
16,1778427636470,1.71784405,-0.3429874916666666,-0.0956458208333333,-4.756451166666667,-1.78632265,-2.681469266666667
17,1778427636480,2.0801823,-0.40697494,0.0134763949999999,-5.073847,-2.3956609,-3.3415856000000006
18,1778427636490,2.154211033333333,-0.3964662033333333,0.0509989066666666,-5.117931,-2.625804366666667,-3.4073045
19,1778427636500,2.535148,-0.3416053,0.23714797,-5.2910094,-3.7067304,-3.797291
20,1778427636510,2.8002447499999996,-0.33528379,0.3192767433333333,-5.340184016666666,-3.8472294333333337,-4.104250749999999
21,1778427636520,3.2672029,-0.33770263,0.4180122,-5.4939694,-3.834554,-4.885853
22,1778427636530,3.5350537833333333,-0.4762269783333333,0.36356797,-5.9719714999999995,-3.0384438,-5.879425
23,1778427636540,3.684950666666667,-0.8275889599999999,0.2266798933333333,-6.619310416666667,-2.097202251666667,-6.621371833333334
24,1778427636550,3.62637,-1.0870756,0.13147108,-8.133671,-0.03848451,-8.13138
25,1778427636560,3.368062328571429,-1.5485573142857143,0.0384952782857142,-9.280745,1.134245927142857,-8.91272057142857
26,1778427636570,3.005368483333333,-1.9949537,0.2401257966666666,-10.666674,2.183257916666667,-9.610157333333332
27,1778427636580,2.5895414,-2.2386672,0.79224133,-12.003527333333333,3.1102968,-9.576483333333334
28,1778427636590,2.4692295,-2.409043,1.5559444,-12.334809428571427,3.226655657142857,-9.117382142857142
29,1778427636600,2.5783823,-2.4964871,2.2054336,-11.528554,2.7776043,-7.7259183
30,1778427636610,2.9737405666666668,-2.378096033333333,3.119816216666667,-10.634349333333333,2.632218433333333,-7.261456966666667
31,1778427636620,3.2549662666666666,-2.156833133333333,3.7219651,-7.491346,2.8393016,-6.476699
32,1778427636630,3.3283038,-2.0504854,3.7852209,-7.491346,2.8393016,-6.476699
33,1778427636640,3.3283038,-2.0504854,3.7852209,-5.888206833333334,3.1695506833333336,-6.290130416666667
34,1778427636650,3.3283037999999996,-2.0504854,3.7852209,-5.567579,3.235600499999999,-6.2528167
35,1778427636660,3.3283038,-2.0504854,3.7852209,-5.567578999999999,3.2356005,-6.2528167
36,1778427636670,3.3283038,-2.0504854,3.7852209,-5.567578999999999,3.2356005,-6.2528167
37,1778427636680,3.3283038,-2.0504854,3.7852209,-3.46948575,3.62380525,-6.0840652
38,1778427636690,3.50033832,-1.94295484,3.666786960000001,-0.9678243720000002,4.10522806,-5.87524088
39,1778427636700,4.408227742857143,-2.193054814285714,1.934607571428571,3.059736697142857,4.631449385714285,-5.964291771428571
40,1778427636710,3.6419197666666663,-2.0152598,1.0951045666666668,4.897382916666667,3.3441053833333334,-7.005911666666666
41,1778427636720,3.2514703,-1.8958422,1.0132909,4.7875037,2.9381092,-7.089243999999999
42,1778427636730,2.9319655142857144,-1.8046175714285713,0.9564930428571428,4.7230573,2.866027,-6.9948654
43,1778427636740,2.693897,-1.7486385333333334,0.9044836166666668,4.719722883333334,2.7819312333333333,-6.863987533333333
44,1778427636750,2.5600274,-1.7190026,0.86614805,4.743521,2.707202,-6.773121399999999
45,1778427636760,2.4567897000000003,-1.69186695,0.8353841000000001,4.781649333333333,2.6496789,-6.760344066666666
46,1778427636770,2.2816372,-1.6462952666666666,0.7803707533333334,4.931362433333333,2.4292838666666667,-6.7389891
47,1778427636780,2.03732415,-1.5689432,0.670587905,5.135391,2.1316142,-6.753268000000001
48,1778427636790,1.8890127,-1.5060635,0.57478964,5.1997865,1.9686659,-6.765841666666667
49,1778427636800,1.8890127,-1.5060635,0.57478964,5.368385666666666,1.5152512,-6.8269282
50,1778427636810,1.8636047,-1.4981972,0.54804012,5.448002,1.260215,-6.8988066
51,1778427636820,1.8127887,-1.4824646,0.49454108,5.448002,1.260215,-6.8988066
52,1778427636830,1.8127887,-1.4824646,0.49454108,5.448002,1.260215,-6.8988066
53,1778427636840,1.7989667666666669,-1.4836536833333334,0.47430615,5.448002,1.260215,-6.8988066
54,1778427636850,1.7298571,-1.4895991000000002,0.3731315,5.448002,1.260215,-6.8988066
55,1778427636860,1.7159741833333335,-1.4883388833333333,0.3570126783333333,5.448002,1.260215,-6.8988066
56,1778427636870,1.6465596,-1.4820377999999998,0.27641857,5.4202075,0.97379557,-7.0293026
57,1778427636880,1.6465596,-1.4820378,0.27641857,5.405110242857143,0.7243553057142857,-7.145596014285714
58,1778427636890,1.6465596,-1.4820377999999998,0.27641857,5.481293699999999,0.9462303,-7.0603805
59,1778427636900,1.6465596,-1.4820377999999998,0.27641857,5.481293699999999,0.9462303,-7.0603805
60,1778427636910,1.6465596,-1.4820377999999998,0.27641857,5.481293699999999,0.9462303,-7.0603805
61,1778427636920,1.6465596,-1.4820378,0.27641857,5.4812937,0.9462303,-7.0603805
62,1778427636930,1.6465596,-1.4820377999999998,0.27641857,5.481293699999999,0.9462303,-7.0603805
63,1778427636940,1.6228648,-1.4719326285714287,0.2534729814285714,5.4812937,0.9462303,-7.0603805
64,1778427636950,1.5636278,-1.4466697,0.19610901,5.481293699999999,0.9462303,-7.0603805
65,1778427636960,1.5636278,-1.4466697,0.19610901,4.923191999999999,0.269086145,-7.222489
66,1778427636970,1.5476309333333331,-1.4392810666666664,0.1831102816666666,5.0723195,0.35124752,-7.225925
67,1778427636980,1.4676466,-1.4023379,0.11811664,5.0723195,0.35124752,-7.225925
68,1778427636990,1.4676466,-1.4023379,0.11811664,5.0723195,0.35124752,-7.225925
69,1778427637000,1.4676466,-1.4023379,0.11811664,5.0723195,0.35124752,-7.225925
70,1778427637010,1.4676466,-1.4023379,0.11811664,4.6566255666666665,0.1656462933333333,-7.201490333333333
71,1778427637020,1.4676466,-1.4023379,0.11811664,4.4487786,0.07284568,-7.189273
72,1778427637030,1.4421370166666667,-1.3968498166666663,0.0985524983333333,4.4487786,0.07284568,-7.189273
73,1778427637040,1.4514087857142857,-1.3982088142857143,0.0890208757142857,4.4487786,0.07284568,-7.189273
74,1778427637050,1.4705737,-1.4014843,0.08152915,4.4487786,0.07284568,-7.189273
75,1778427637060,1.4705737,-1.4014843,0.08152915,4.305327233333333,-0.0114028166666666,-7.206428133333333
76,1778427637070,1.4705737,-1.4014843,0.08152915,4.0184245,-0.17989981,-7.240738400000001
77,1778427637080,1.4694586142857144,-1.4274091,0.0647337442857142,4.0184245,-0.17989981,-7.2407384
78,1778427637090,1.4686223,-1.4468526999999998,0.05213719,3.878099928571429,-0.3705770614285714,-7.313431314285714
79,1778427637100,1.4686223,-1.4468527,0.05213719,3.7728565,-0.513585,-7.367951000000001
80,1778427637110,1.4511386857142858,-1.4759659,0.0448196885714285,3.7728565,-0.513585,-7.367951
81,1778427637120,1.4278272,-1.5147835,0.03506302,3.7728565,-0.513585,-7.367951000000001
82,1778427637130,1.418060366666667,-1.523452716666667,0.0422077456666666,3.7728565,-0.513585,-7.367951000000001
83,1778427637140,1.3692262,-1.5667988,0.077931374,3.4591517666666665,-1.19520875,-7.500050616666666
84,1778427637150,0.7764825614285714,-1.6921806714285714,-0.00358035,3.193014557142857,-2.2185098,-7.358460814285714
85,1778427637160,-1.8153411,-2.1996580285714287,0.4586330428571428,0.5679083028571429,1.3897620214285715,1.5817483428571426
86,1778427637170,-1.4690491,-1.867792,0.6366835,-1.9475911333333336,6.0899193333333335,6.212347066666666
87,1778427637180,-1.344738742857143,-1.922194,0.5424271142857143,-2.1345376714285713,6.4624308571428575,6.451631685714285
88,1778427637190,-1.0217582285714286,-2.0465566857142856,0.3907283828571429,-2.5998861,6.952257485714286,7.571609428571429
89,1778427637200,-0.7969977,-2.09411605,0.339623485,-2.7023151,6.8767392,8.029442000000001
90,1778427637210,-0.1706908403333333,-2.1481435166666665,0.2689486216666666,-2.7993408166666662,6.180174633333333,9.021334333333334
91,1778427637220,0.40953606,-2.1651874,0.21769562,-2.7925704,5.2800136,9.701609
92,1778427637230,0.80596167,-2.189396,0.17080265,-2.794948557142857,4.462043357142857,9.914473714285714
93,1778427637240,1.2872093,-2.206653,0.11756783,-2.8695394999999997,3.4416149,10.037127
94,1778427637250,1.405427566666667,-2.2108403333333335,0.1017335753333333,-2.934138466666667,3.141781833333333,10.028320333333332
95,1778427637260,2.1715292571428573,-2.2729549857142857,0.0434084565714285,-3.527550342857143,1.1759155857142858,9.958281142857142
96,1778427637270,2.5161834,-2.3400145,0.090554066,-4.0947824,-0.4373795,9.886854
97,1778427637280,2.9828307428571432,-2.4114125285714283,0.3481300665714286,-4.546102871428571,-1.7399622857142858,9.698903571428572
98,1778427637290,3.3882465,-2.4939867999999996,0.76589835,-5.0054297,-3.052799,9.381821
99,1778427637300,3.4910472,-2.4860291,1.0336172583333334,-4.94615055,-3.1134784,8.918938166666667
100,1778427637310,3.4672142999999997,-2.414775,1.4038624,-4.7522264,-2.9068022,8.400925
101,1778427637320,3.316169,-2.3261724,1.4996607,-4.6068404,-2.7000244,8.231486
102,1778427637330,3.0242181857142856,-2.269148085714286,1.3742439714285717,-4.1756348,-2.0152663285714287,7.8304854
103,1778427637340,2.522952,-2.1847615,1.1229924,-3.677968666666666,-0.7686211749999999,7.414962433333334
104,1778427637350,2.3360000833333334,-2.16194525,0.9633285666666668,-3.71077725,-0.44585526,7.3991053
105,1778427637360,2.130055475,-2.1302234875,0.7803961487500001,-4.040167374999999,-0.129236176875,7.441885
106,1778427637370,2.041634785714286,-2.125768642857143,0.6952670871428571,-4.511218142857143,-0.2012582857142857,7.456614
107,1778427637380,1.9386294666666668,-2.1261403666666667,0.614761445,-5.054477433333333,-0.350942095,7.426136033333333
108,1778427637390,1.9208438,-2.1202457,0.61918247,-5.4287596,-0.46777007,7.345196199999999
109,1778427637400,1.9013304,-2.1204896,0.6269878,-5.5418205333333335,-0.4895576133333333,7.311904133333333
110,1778427637410,1.904693,-2.124340014285714,0.6509003671428573,-6.228491085714286,-0.4190317514285714,7.213118657142857
111,1778427637420,1.9154165999999997,-2.127929,0.67973477,-6.5005226,-0.28496864,7.2279105
112,1778427637430,2.0084302,-2.0637383333333332,0.7296970566666667,-6.5005226,-0.28496864,7.2279105
113,1778427637440,2.2146676285714286,-1.8742120857142857,0.8538302571428572,-7.779412657142857,0.4175700228571429,7.475965328571428
114,1778427637450,2.3584303,-1.74952275,0.933316615,-8.429711,0.6474153500000001,7.3643368
115,1778427637460,2.753113557142857,-1.434857257142857,1.1455894657142858,-9.17700642857143,0.7706283228571429,6.597300971428571
116,1778427637470,2.94828175,-1.2726554833333332,1.2669540333333331,-9.602598166666668,0.8726718833333332,5.932545116666667
117,1778427637480,3.2072197,-1.1610129,1.6237431166666667,-10.365467,1.2825116,4.313625
118,1778427637490,3.2612877,-1.2251934,1.8011417,-10.692323,1.5617206571428572,3.4392150000000004
119,1778427637500,3.2595498500000004,-1.2937645,1.9406925,-10.970452416666664,1.6912822333333333,2.5796839
120,1778427637510,3.3361704,-1.4146556999999995,2.5499659,-11.3407135,1.6394095,1.187522
121,1778427637520,3.3511364285714285,-1.4328275,2.7108114999999997,-11.269547642857145,1.5434164428571429,0.8615381354285715
122,1778427637530,3.2952530833333333,-1.6152568333333333,3.826127666666667,-10.573772,1.1865294000000002,-0.5364160130000001
123,1778427637540,3.172258142857143,-1.6825981714285714,4.172847957142857,-8.626945,0.6385069,-1.8280143
124,1778427637550,2.9728361666666667,-1.8105224,4.603571416666667,-6.029010899999999,-0.6428339,-2.1561252666666664
125,1778427637560,3.032494,-1.8488884,4.677102,-4.1402917,-1.6216946000000003,-2.221106
126,1778427637570,3.3061510857142857,-1.7381328,4.728202857142857,-1.8428059142857145,-2.2848541285714288,-2.104845314285714
127,1778427637580,3.622955,-1.615765,4.742899,-0.5112942,-2.4352143,-2.056936
128,1778427637590,3.860347,-1.4815499,4.484408,0.8312130857142856,-1.7516561571428573,-1.9927951428571429
129,1778427637600,4.006087333333333,-1.3458712333333336,4.035855333333333,1.8193094666666667,-0.3923282166666667,-1.9026925833333337
130,1778427637610,4.1875615,-1.2898313,3.4757516,2.2075143,1.2657127,-1.971873
131,1778427637620,4.15851505,-1.4044518,2.944663666666667,2.1756983,2.376978533333333,-2.2278000833333333
132,1778427637630,4.0265155,-1.5155153,2.5516732,2.0730365571428573,3.410984414285714,-2.729411328571428
133,1778427637640,3.714485,-1.5676523,2.3802,2.015397,4.12105,-3.2563698
134,1778427637650,3.3862169428571427,-1.5239303857142856,2.3893118571428573,2.308307,3.805843,-3.4304664
135,1778427637660,3.2390306,-1.4679515,2.429349,2.7090347,3.5474472,-3.4788775
136,1778427637670,3.1549054142857145,-1.4264508142857142,2.396977828571429,3.229448242857143,3.5180602,-3.5690456
137,1778427637680,3.1105473,-1.4088627,2.2487898,3.8977785,3.6723692,-3.7794232
138,1778427637690,3.0847618,-1.4094289857142857,2.1540106571428574,4.3713517,3.8838813,-4.0920334
139,1778427637700,2.9435659333333333,-1.3643376833333332,1.9738957166666669,4.637968866666666,3.98238355,-4.370613566666667
140,1778427637710,2.762844,-1.3038566,1.8555961,5.1428747,4.10196,-4.7445903
141,1778427637720,2.6391260571428568,-1.2750047428571427,1.8218311,5.286689728571429,4.137564857142857,-4.836307271428572
142,1778427637730,2.4641478666666665,-1.297392833333333,1.7028636,5.5099791,4.207079966666667,-4.959894733333333
143,1778427637740,2.3315995,-1.3392854000000003,1.5800312,6.505664,4.530074666666667,-5.366501866666667
144,1778427637750,2.267153214285714,-1.491315257142857,1.288394,6.9847639,4.5688572857142855,-5.503568242857143
145,1778427637760,2.2601929,-1.6086915,1.077258,7.3603153,4.463745,-5.6198077
146,1778427637770,2.2601929,-1.6086915,1.077258,7.3603153,4.463745,-5.6198077
147,1778427637780,2.2601929,-1.6086915,1.077258,7.3603153,4.463745,-5.6198077
148,1778427637790,2.299480928571428,-1.7944862428571429,0.6620421171428571,7.595825828571429,3.4812991571428573,-6.011852157142857
149,1778427637800,2.2874506,-1.9410888,0.27263784,7.614741,2.0379992,-6.572299
150,1778427637810,2.2114009428571433,-1.942866,0.2257536,7.325496,1.3877331,-6.828099
151,1778427637820,2.198726,-1.9431622,0.21793956,7.325496,1.3877331,-6.828098999999999
152,1778427637830,2.198726,-1.9431622,0.21793956,6.9846334,0.9056077,-6.998836
153,1778427637840,2.134706542857143,-1.8923316857142856,0.2577850885714285,6.6728084857142855,0.4923137385714285,-7.067100114285714
154,1778427637850,2.120764,-1.77653655,0.324866525,6.2045584,-0.14172074,-7.1761394
155,1778427637860,2.1728706,-1.7382721000000003,0.32654345,6.051995000000001,-0.49510628,-7.319235
156,1778427637870,2.2441640285714284,-1.6896978142857144,0.2902695471428571,6.017960985714285,-0.6224716914285714,-7.426245428571429
157,1778427637880,2.3346483499999997,-1.63372335,0.21388443,5.885330366666667,-1.08459128,-7.831190666666667
158,1778427637890,2.382194657142857,-1.6074370571428571,0.1416807428571428,5.751579942857143,-1.4738869857142856,-8.164824714285714
159,1778427637900,2.34752515,-1.6010080999999998,0.0729818978333333,5.266014833333333,-2.8181250166666665,-9.162826166666669
160,1778427637910,2.2838353,-1.6042835285714283,0.0425547465714285,5.016731,-3.5242343,-9.651824
161,1778427637920,2.1567721,-1.6122283,-0.010549396,4.85676055,-3.822438416666666,-9.800773166666666
162,1778427637930,2.0097614333333333,-1.60994155,-0.0504907493333333,4.3499713,-4.672814,-10.174877
163,1778427637940,1.7243078857142855,-1.5787419857142857,-0.1122365171428571,3.9150134428571426,-5.024235785714285,-10.091580714285714
164,1778427637950,1.4282642666666667,-1.5262272833333332,-0.1561168333333333,3.4222707500000005,-5.266447433333333,-9.826123666666666
165,1778427637960,1.1953746,-1.4745982,-0.1595215,2.984993,-5.3688946,-9.401827
166,1778427637970,1.1953746,-1.4745982,-0.1595215,2.984993,-5.3688946,-9.401827
167,1778427637980,0.9444018085714286,-1.4203093857142857,-0.1860735742857142,2.145205971428571,-5.155898814285714,-8.395557628571428
168,1778427637990,0.6139179,-1.3813814333333336,-0.1613915266666666,1.5012013333333334,-4.843143266666667,-7.581143066666667
169,1778427638000,0.3443319257142856,-1.343292728571429,-0.0902317414285714,0.8088074285714286,-3.637004371428571,-6.4563439
170,1778427638010,0.063113436,-1.3617868,-0.13519081,0.124005646,-2.4475844,-5.700136
171,1778427638020,-0.141065144,-1.4955343833333332,-0.1598873766666666,-0.7194465339999999,-1.6071610000000005,-5.484551733333333
172,1778427638030,-0.43307403,-1.7869944999999998,-0.11897036,-1.2971723,-1.1415545,-5.4501395
173,1778427638040,-0.7257740185714285,-2.098354042857143,-0.0025175685714285,-1.2971723,-1.1415545,-5.4501395
174,1778427638050,-0.7745573499999999,-2.1502473,0.01689123,-1.2971723,-1.1415545,-5.4501395
175,1778427638060,-0.7745573499999999,-2.1502473,0.01689123,-1.7310393666666666,-0.9741774,-5.368079999999999
176,1778427638070,-2.036268514285714,-3.1715439571428568,1.073512104285714,-2.2582378857142857,-0.8490808542857142,-4.0190353000000005
177,1778427638080,-2.338185,-3.436664,1.4739884,-1.6884315,-0.8489499700000002,-3.4521522999999994
178,1778427638090,-2.592559816666667,-3.5117089999999997,1.57110785,-0.61195973,-0.8614726999999999,-2.65448955
179,1778427638100,-2.8284404285714286,-3.5487174857142856,1.6011386285714286,0.42332962,-1.0019717,-1.9396498
180,1778427638110,-2.980418,-3.5538863666666667,1.5148647666666666,0.9999609366666666,-1.1168907833333332,-1.4597388833333331
181,1778427638120,-3.0401165333333338,-3.5297792666666665,1.3411555,1.6039030166666668,-1.075581,-0.3456224666666667
182,1778427638130,-2.9721856,-3.4734344,1.2187907,1.8099937,-0.745561,0.8593347
183,1778427638140,-2.810753533333333,-3.3916004666666666,1.1437456333333331,1.8099937,-0.745561,0.8593347000000001
184,1778427638150,-2.3643453,-3.19569465,0.9716522166666666,1.6020449999999995,0.1073086833333333,2.0996966
185,1778427638160,-1.8171792,-2.965905,0.7793747,1.0209739857142857,2.0957695285714286,4.654051585714286
186,1778427638170,-1.56228625,-2.86083785,0.6864729500000001,0.7852672799999999,2.82311365,5.5304685000000005
187,1778427638180,-0.9466406,-2.617287,0.40734085,0.18325958,4.4258714,7.4690495
188,1778427638190,-0.5459465,-2.4838035,0.14311811,-0.24312437,5.0701814,8.439256
189,1778427638200,0.0878884021428571,-2.4008282857142857,-0.1476915428571428,-1.129184457142857,5.671796857142858,10.017535142857142
190,1778427638210,0.59509568,-2.367028433333333,-0.1952146433333333,-1.6331482,5.741828000000001,10.825448
191,1778427638220,1.16965155,-2.300713483333334,-0.1483216733333333,-2.1018855333333333,5.246034333333333,11.7200605
192,1778427638230,1.8256466428571427,-2.238083442857143,-0.2036007385714285,-2.427273,4.49887,12.309851
193,1778427638240,2.40681725,-2.1702280833333334,-0.210256165,-2.686076183333333,3.7420078666666665,12.4361725
194,1778427638250,2.9623374166666667,-2.0748769333333335,-0.1425794606666666,-3.0073404,2.7081437666666663,12.276711333333331
195,1778427638260,3.2903746833333334,-2.013338983333333,-0.0265056116666666,-3.1923818999999996,1.9828686,11.815508
196,1778427638270,3.4318158666666663,-1.9771885333333332,0.1052195566666666,-3.2905274999999996,1.4986560666666666,11.257890000000002
197,1778427638280,3.2746422,-1.9095017,0.22367159,-3.4223726000000005,0.7437284600000001,10.1922865
198,1778427638290,3.131776842857143,-1.923918842857143,0.2843458614285714,-3.4452800285714287,0.5521785457142857,9.923069714285717
199,1778427638300,2.9500705000000003,-1.9976572333333331,0.33898319,-3.4756196666666668,0.38881572,9.747576666666667
200,1778427638310,2.8218109333333334,-2.0585956666666667,0.3679889466666666,-3.542407533333334,0.1850921666666666,9.600663333333332
201,1778427638320,2.5689914,-2.1634798,0.38331506,-3.7934732,0.19792034,9.563401
202,1778427638330,2.450604714285714,-2.2119844,0.3865556514285714,-4.000425885714286,0.2721404771428571,9.509863
203,1778427638340,2.3139155,-2.218849,0.3855713,-4.196709971428572,0.29367346,9.418211142857142
204,1778427638350,2.202588,-2.2190217666666663,0.37503206,-4.389881216666667,0.1548288866666666,9.252088416666666
205,1778427638360,2.1271973,-2.224764,0.3596551399999999,-4.488561399999999,-0.02489276,9.10357175
206,1778427638370,2.0587989666666666,-2.2423971666666667,0.3398369233333333,-4.617835733333334,-0.6522004433333333,8.792946833333334
207,1778427638380,2.0154226,-2.283243,0.31812832,-4.665178,-1.151481,8.646187
208,1778427638390,2.011916266666667,-2.3380734999999997,0.3254458033333333,-4.6793298000000005,-1.3883948666666666,8.629795
209,1778427638400,2.078597,-2.420995,0.33678794,-4.7268753,-1.8865047,8.744994
210,1778427638410,2.2153223,-2.449787283333333,0.3953279266666666,-4.777246216666667,-2.059481383333333,8.915628833333335
211,1778427638420,2.4769738,-2.4068477,0.4886260599999999,-4.856226,-2.1907156,9.140835
212,1778427638430,2.8984008,-2.1646996,0.5425316,-5.048954,-2.1606305,8.9317665
213,1778427638440,3.0560522666666667,-1.9631430333333333,0.6605263333333333,-5.215287333333333,-2.081981583333333,8.56792025
214,1778427638450,3.1981134,-1.747236,0.8208406,-5.450903399999999,-1.9906571,7.877871
215,1778427638460,3.2523339,-1.6292413333333335,0.9329406416666668,-5.4648007000000005,-2.0070741,7.685372
216,1778427638470,3.3541590666666665,-1.4938473333333333,1.08301035,-5.360088,-2.193133516666667,6.999217583333333
217,1778427638480,3.4780081,-1.3357588833333331,1.2135057,-5.172450583333333,-2.332818083333333,6.63590525
218,1778427638490,3.885531771428571,-0.9124748428571428,1.3576837285714287,-5.0028771,-2.274513185714286,5.965535514285714
219,1778427638500,4.1555476,-0.6835764599999999,1.4251441,-5.1104984,-1.869095,4.947092
220,1778427638510,4.197431428571429,-0.6854232514285715,1.4184886714285714,-5.2550772285714284,-1.6737926,4.552102271428572
221,1778427638520,4.308866428571429,-0.7823801214285714,1.4318518714285715,-5.937850314285714,-1.1137164285714285,3.2928473000000005
222,1778427638530,4.2995295,-0.903365715,1.5555786166666667,-6.9802046,-0.8187121,2.0662518
223,1778427638540,4.282767414285714,-1.0732072,2.180493028571429,-7.167914685714286,-0.7482880857142857,1.738217057142857
224,1778427638550,4.3143373,-1.1984235,2.8400438,-7.093927099999999,-0.63647065,1.4656693333333335
225,1778427638560,4.375316433333333,-1.2364338333333331,3.2884844666666666,-6.426963999999999,-0.4307618,1.0869328733333334
226,1778427638570,4.4386041714285716,-1.1638135285714288,3.8735886,-5.198375828571429,-0.2926699042857143,0.7579965014285713
227,1778427638580,4.4686146,-1.1003081,3.9002886,-2.9746083999999997,-0.25702155,0.32284227
228,1778427638590,4.6022806,-1.0022535666666668,3.816015266666667,-1.26685815,-0.4298455083333333,-0.149305655
229,1778427638600,4.6822751,-0.93798155,3.75421285,-0.7190392800000001,-0.4562654333333333,-0.3188716533333333
230,1778427638610,4.663582171428572,-0.8870901085714286,3.328739471428572,0.5584399128571429,-0.0930042342857142,-0.8876308542857142
231,1778427638620,4.523312533333334,-0.8564727666666667,2.6641189,2.1746803166666666,0.96119649,-1.96438995
232,1778427638630,4.3913536,-0.8587086,2.4305687,2.5300512,1.5416712,-2.4373524
233,1778427638640,3.893621466666667,-0.8315525999999999,2.0209716,2.6000970666666667,1.9754873333333336,-2.7491989999999995
234,1778427638650,3.740767,-0.8161451999999999,1.9274296,2.6666813333333335,2.4884614000000003,-3.0967303666666663
235,1778427638660,3.6073620857142856,-0.82959546,1.8387310428571428,2.789363442857143,2.8669651285714286,-3.455751857142858
236,1778427638670,3.3762336000000004,-0.8570622,1.7031481,2.9987376,3.2585080000000004,-3.932903
237,1778427638680,3.2238553142857143,-0.8429759857142857,1.644625628571429,3.2066062285714287,3.339927571428571,-4.189990142857143
238,1778427638690,3.0071878,-0.8232187,1.5533834000000002,3.7016907,3.3696854,-4.6938887
239,1778427638700,2.867199933333333,-0.8347641533333334,1.451446566666667,4.114483,3.3347135,-5.0901875
240,1778427638710,2.8152862000000005,-0.85517186,1.3842881,4.399426083333333,3.325932083333333,-5.388747583333333
241,1778427638720,2.751981157142857,-0.9057148657142856,1.3093272428571427,4.889671,3.3796119999999994,-5.9305854
242,1778427638730,2.664119,-0.9905456,1.1930574,5.1948490000000005,3.418936333333334,-6.23436365
243,1778427638740,2.6284025428571427,-1.0915968,1.0661859142857142,5.7365483714285705,3.3629222857142858,-6.719626757142857
244,1778427638750,2.6096442,-1.2697793666666668,0.8726525166666667,6.135708749999999,3.171052466666667,-7.070103499999999
245,1778427638760,2.644971433333333,-1.4101432333333337,0.7448605066666666,6.404769399999999,2.9558497,-7.367263966666666
246,1778427638770,2.7124143,-1.6499133,0.5286284,6.973637599999999,2.433229,-8.070599
247,1778427638780,2.7076173000000003,-1.7518705666666667,0.4139875733333333,7.131037199999999,2.205579933333333,-8.351087666666666
248,1778427638790,2.6794449666666664,-1.8539700333333335,0.24777869,7.209737,2.0917554,-8.491332
249,1778427638800,2.554896585714286,-1.9766398428571428,-0.1440937785714286,7.117081942857143,1.400146757142857,-9.097660285714284
250,1778427638810,2.3723131,-1.9450525666666667,-0.3649806466666667,6.3464317,0.79381937,-9.397703
251,1778427638820,2.2765353,-1.9093187,-0.4134387399999999,5.770385700000001,0.5581781,-9.430843
252,1778427638830,2.174232716666667,-1.8040585333333337,-0.3871973783333333,5.031697,0.35201108,-9.382127
253,1778427638840,2.0867375833333335,-1.6828013833333333,-0.3389526949999999,4.352873,0.22693644,-9.281181
254,1778427638850,2.075609,-1.6118623,-0.30861557,3.7646098,0.16187929,-9.162063
255,1778427638860,2.1038075,-1.5599603285714283,-0.2808613342857143,3.557002857142858,0.1240492771428571,-9.128290714285717
256,1778427638870,2.1561625,-1.4534385,-0.22202514,3.0952033333333335,-0.020463984,-9.092627666666669
257,1778427638880,2.1636280857142856,-1.4148212142857144,-0.1939224628571428,2.845737542857143,-0.4303545731428571,-9.132850428571428
258,1778427638890,2.1825155,-1.3380151333333332,-0.1924299166666666,2.7243063,-0.9586003,-9.178862
259,1778427638900,2.225643785714286,-1.2572336714285717,-0.2542134371428571,2.6446973714285713,-1.4913401857142858,-9.280657428571429
260,1778427638910,2.268547,-1.2190346,-0.28239453,2.495079,-2.1233675,-9.429622
261,1778427638920,2.243291333333333,-1.188341766666667,-0.3200491716666666,2.2275202,-2.5282185,-9.583406
262,1778427638930,2.1972100571428568,-1.1483597714285716,-0.3665196428571428,2.0152444857142853,-2.6115581428571426,-9.611004571428571
263,1778427638940,1.9899433333333336,-1.0635173166666667,-0.4691432166666667,1.3845260999999998,-2.5764768,-9.526596
264,1778427638950,1.940601,-1.0451219,-0.5010049,1.2515611,-2.542064733333333,-9.476098
265,1778427638960,1.7755565142857144,-0.9021258,-0.5572102342857143,0.5763949899999999,-2.4230405285714283,-9.187609857142858
266,1778427638970,1.6674144,-0.863709,-0.4952728,-0.06169739,-2.2941043,-8.972847
267,1778427638980,1.455410106666667,-0.9260398333333332,-0.3683345216666667,-0.3551672399999999,-2.1497112166666668,-8.911174666666666
268,1778427638990,0.99444824,-1.0279258,-0.16415593,-0.61300325,-1.898111,-8.797681
269,1778427639000,0.46478322,-1.1451888,-0.03280679,-0.5416338366666668,-1.3767375333333334,-8.209494383333334
270,1778427639010,0.0500740616666666,-1.3605977166666667,-0.0975971516666666,-0.46654832,-1.1591167,-7.779216299999999
271,1778427639020,-0.03286777,-1.4036795,-0.110555224,-0.46654832,-1.1591167,-7.779216299999999
272,1778427639030,-0.4705849385714286,-1.766975857142857,-0.2551455705714285,-0.9962775885714288,-1.4456998142857145,-7.023008742857143
273,1778427639040,-1.3862190666666667,-2.4837322166666667,-0.1691765515,-2.0257819,-1.8339702,-6.281374500000001
274,1778427639050,-1.8038247666666667,-3.0167003666666665,0.191311994,-2.4632631666666667,-1.589674995,-5.764557166666666
275,1778427639060,-2.2172635,-3.5077045000000004,0.5332019,-2.9944615,-0.95310247,-4.616003
276,1778427639070,-2.2527359571428573,-3.5530555714285716,0.5841282071428572,-2.9743247428571427,-0.9491754885714286,-4.452225685714286
277,1778427639080,-2.6050299999999997,-3.9719797,1.16864545,-2.5358543333333334,-1.0069604666666667,-2.7458902000000003
278,1778427639090,-2.7201586,-4.0959706,1.4463040000000005,-2.095955,-0.95577503,-1.97675995
279,1778427639100,-2.7970360285714286,-4.1190121,1.5624692857142857,-1.3673346,-0.6145522514285714,-1.0487465
280,1778427639110,-2.8476254,-3.992458416666667,1.4428890333333333,-0.0698931693333333,0.0964912566666666,0.6485352833333333
281,1778427639120,-2.6916814,-3.8229058,1.1690316,0.79152864,0.5374087,2.0969477
282,1778427639130,-2.6916814,-3.8229058,1.1690316,0.79152864,0.5374087,2.0969477
283,1778427639140,-2.2092055142857143,-3.4979566285714285,0.758929292857143,1.1512409971428572,1.1308861428571428,3.6961275428571425
284,1778427639150,-1.7954198166666666,-3.21765725,0.4346798383333334,1.2225195266666666,1.802536116666667,5.237737
285,1778427639160,-1.3317589285714284,-2.9021815,0.150026168,0.6113233971428571,2.8477228714285716,7.223939785714285
286,1778427639170,-0.5182619,-2.3611743,-0.2163540899999999,0.04046982,3.3957999,8.1677265
287,1778427639180,-0.1655061585714285,-2.160936342857143,-0.3351066614285714,-0.0598429828571428,3.479684771428572,8.274584285714287
288,1778427639190,0.37069237,-1.9007818,-0.44392833,-1.3426309333333333,4.3621378,9.452885
289,1778427639200,0.8324266000000001,-1.627717,-0.29605386,-1.96225195,4.5127671000000005,9.9093795
290,1778427639210,1.4769765,-1.373033042857143,-0.2200738242857143,-2.6510024,3.883423,10.228938
291,1778427639220,1.8915128999999995,-1.2886727,-0.19958481,-2.8183539833333335,3.38785875,10.152071333333334
292,1778427639230,2.105009642857143,-1.2001309857142857,-0.126862802,-2.885334642857143,2.8452576142857144,10.008067142857143
293,1778427639240,2.4763641,-1.0367068,0.035794772,-2.8634307333333333,2.088191866666667,9.716422
294,1778427639250,2.55345185,-1.00530255,0.0969772036666666,-2.78340745,1.5845844,9.447336
295,1778427639260,2.575455114285714,-0.9840905,0.1631715414285714,-2.6585728142857143,1.0978993571428572,9.142972857142857
296,1778427639270,2.5919194,-0.9467624999999998,0.29806617,-2.4877486,0.6096435,8.810815
297,1778427639280,2.380921416666667,-1.0231898,0.4143229466666667,-1.8882862333333332,-0.21161391,8.367123
298,1778427639290,2.2168367,-1.1021985,0.44642848,-1.4433218000000003,-0.77732605,8.078387
299,1778427639300,2.0773773,-1.2122862333333333,0.3630801216666666,-1.268461616666667,-1.0132727666666663,7.940306333333333
300,1778427639310,1.9410888,-1.3044664,0.33081198,-1.0928379,-1.3023647,7.749742
301,1778427639320,1.7239217666666666,-1.4098993,0.3246734133333333,-1.057255,-1.389413,7.6949167
302,1778427639330,1.6376565,-1.4525847000000005,0.33081198,-1.0370964571428571,-1.4114041142857143,7.742171242857144
303,1778427639340,1.5773176,-1.48856245,0.335934225,-1.01212735,-1.44179465,7.82403815
304,1778427639350,1.48740385,-1.5510661499999998,0.34370907,-0.96659244,-1.4568118,8.009715766666668
305,1778427639360,1.475059942857143,-1.6221068142857145,0.3366659871428571,-0.9410597485714286,-1.284845957142857,8.282176428571429
306,1778427639370,1.4888673,-1.6330830999999997,0.31898203,-0.9631818,-1.1513283,8.360455
307,1778427639380,1.5762200333333334,-1.6185598666666667,0.24550213,-1.2957724666666668,-0.5374087,8.433758333333333
308,1778427639390,1.6534501,-1.6061913,0.1983652299999999,-1.5442673000000002,-0.16997325,8.432384
309,1778427639400,1.6534501,-1.6061913,0.1983652299999999,-1.5442673000000002,-0.16997325,8.432384
310,1778427639410,1.6749757999999997,-1.6357052,0.20202398,-1.9960022,0.32589662,8.370075
311,1778427639420,1.6749758,-1.6357052,0.2020239799999999,-1.9960022,0.32589662,8.370075
312,1778427639430,2.050886157142857,-1.7342388,0.5890326485714287,-2.065946314285714,-0.1332995337142857,8.811556642857143
313,1778427639440,2.4155676,-1.6544257,0.64796466,-1.7524197,-0.6429357,8.990104
314,1778427639450,2.695106416666667,-1.5116938166666667,0.6146598683333333,-1.58453355,-0.78776166,8.928304333333335
315,1778427639460,3.0903022,-1.2544634,0.61058444,-1.350623,-0.9482156,8.813563
316,1778427639470,3.3932643,-1.003708397142857,0.5847553999999999,-1.2143564857142857,-0.95672408,8.727562428571428
317,1778427639480,3.8008215,-0.6321913600000001,0.4954760583333333,-0.7974846000000001,-1.1936307,8.545089
318,1778427639490,4.3444,-0.19476746,0.35898435,-0.56433768,-1.7652987,8.193739333333333
319,1778427639500,4.507681900000001,-0.0528892566666666,0.3254254833333334,-0.4278601933333333,-2.1887810333333335,7.859137666666666
320,1778427639510,5.341348000000001,0.79785144,0.15555786,-0.41920626,-2.878702399999999,6.3519297
321,1778427639520,5.378876371428571,0.9114817714285712,0.0378854885714285,-0.4719588428571429,-2.8839384000000003,6.088646785714286
322,1778427639530,5.4726973,1.1955576,-0.25629544,-0.6038403,-2.8970284,5.430439500000001
323,1778427639540,5.3613799,1.03167605,-0.3060239549999999,-1.9091066,-2.0877847,4.04026285
324,1778427639550,5.039388214285714,0.6879233914285715,-0.3301760642857143,-4.341681185714285,-0.7050257714285715,2.596504542857143
325,1778427639560,4.653747,0.46392953,0.1875719299999999,-6.1300327,0.2683225549999999,2.68727255
326,1778427639570,4.6681645000000005,0.5918202328571428,0.7078374257142858,-7.712217571428572,1.1486012085714286,2.9725575142857146
327,1778427639580,5.072501166666667,0.97848185,1.81517695,-8.033642116666668,0.9874636666666666,3.0029370833333338
328,1778427639590,5.541177,1.1163456,2.3497102,-7.427357699999999,0.5316055,2.705522
329,1778427639600,5.949354114285714,1.2520678285714286,2.690183114285714,-5.923080257142857,0.2683443814285714,1.5640985771428573
330,1778427639610,6.343073166666667,1.35647145,2.97263285,-4.4973426,0.24678956,0.28680122
331,1778427639620,6.0166113333333335,1.0133924666666667,2.8021349,-2.9550096666666668,0.7599927183333333,-1.92796703
332,1778427639630,5.382234783333334,0.5244411616666667,2.666639283333333,-1.1970413666666666,1.0378091333333332,-4.292142833333333
333,1778427639640,4.349844442857143,0.0682966739999999,2.602739,0.3115849142857143,0.6701628057142858,-5.4510125
334,1778427639650,3.520896366666667,-0.1300888906666666,2.3868668666666664,1.0241156,0.4163046799999999,-5.7726765
335,1778427639660,2.9812715,-0.20915854,2.0967686,2.569452,-0.01450805,-5.9153137
336,1778427639670,2.8268927500000003,-0.2132238233333333,1.8589499333333332,2.95315175,0.0033088533333333,-5.8412462
337,1778427639680,2.695139857142857,-0.1928161228571428,1.3206955714285713,3.1891529142857142,0.4474587811428571,-5.701205414285715
338,1778427639690,2.624462166666667,-0.1392255966666666,0.9031218,2.9926033166666666,1.1136582333333334,-5.651496333333333
339,1778427639700,2.564651616666666,-0.0847000583333333,0.6384417333333333,2.5272004999999997,1.7529795333333336,-5.675701566666667
340,1778427639710,2.5451484,-0.0714066,0.50862724,1.8969911666666668,2.4928646166666666,-5.762342666666666
341,1778427639720,2.5554336,-0.1070184399999999,0.48000768,1.5396349666666669,2.856711333333333,-5.883039533333334
342,1778427639730,2.4887834333333334,-0.2647309,0.5132413333333333,1.0688615,3.3055445999999997,-6.275265999999999
343,1778427639740,2.4124782166666665,-0.33169619,0.5533147833333333,1.1171707333333334,3.3695328,-6.630738666666667
344,1778427639750,2.3799558,-0.40532854,0.5746067,1.2131784,3.35701,-6.757086
345,1778427639760,2.3957494333333336,-0.4442129133333334,0.5775337,1.3102041666666668,3.3295719666666663,-6.819394233333334
346,1778427639770,2.4273367,-0.52198166,0.5833877,1.5042557,3.2746959,-6.9440107
347,1778427639780,2.58027255,-0.675161365,0.5285979199999999,1.86420805,3.21971795,-7.21790735
348,1778427639790,2.7442281714285715,-0.8499538242857143,0.4608195771428571,2.274971285714286,3.1413526142857147,-7.544491142857143
349,1778427639800,2.8103468,-0.97963035,0.3828882,2.5798366,3.0010283,-7.860614000000001
350,1778427639810,2.7954374166666667,-1.032570425,0.34077192,2.6585873333333336,2.907311366666667,-7.953287333333333
351,1778427639820,2.6977489166666664,-1.3170788666666666,0.0994468566666666,3.0564898,2.2975404833333335,-8.444142999999999
352,1778427639830,2.582041,-1.4161192,-0.05427146,3.0772338,1.5916094,-8.581588
353,1778427639840,2.582041,-1.4161192,-0.05427146,3.0772338,1.5916094,-8.581588
354,1778427639850,2.6057618,-1.4697199,-0.15238695,2.7012460714285713,0.9942486142857144,-8.64479042857143
355,1778427639860,2.6382434666666668,-1.4717119,-0.16633085,2.517121033333334,0.8329147499999999,-8.749015333333334
356,1778427639870,2.6544843,-1.4727079000000003,-0.1733028,2.4384212,0.7649560000000001,-8.796459
357,1778427639880,2.7169791571428568,-1.4800950428571429,-0.1495296328571428,2.3015002,0.2758492917142857,-9.121417857142855
358,1778427639890,2.7494895000000006,-1.4761227,-0.15372847,2.228589,-0.061086524,-9.316916
359,1778427639900,2.7284926499999997,-1.4484991,-0.222736575,2.121535,-0.50640726,-9.47452
360,1778427639910,2.6832664,-1.4253271,-0.27172315,2.0118847,-0.82879144,-9.555306
361,1778427639920,2.6680927333333333,-1.4238839166666668,-0.2812562283333333,1.9846502833333333,-0.8755989833333334,-9.558615
362,1778427639930,2.420435783333333,-1.43216685,-0.388223865,1.6922494,-1.2516629,-9.513616
363,1778427639940,2.2956827,-1.4386206,-0.40697494,1.5861116142857143,-1.3302026857142857,-9.4085685
364,1778427639950,2.2956827,-1.4386206,-0.40697494,1.5436565,-1.3616186,-9.3665495
365,1778427639960,2.000381,-1.3730984166666664,-0.4125240599999999,1.3471615,-1.7348572666666666,-8.943117833333332
366,1778427639970,1.6906475,-1.2946486,-0.36892396,1.1322387,-2.0422752,-8.528137
367,1778427639980,1.4500846,-1.2769647,-0.33947104,0.99067074,-2.0346394,-8.364272
368,1778427639990,1.2598194666666669,-1.3435641833333334,-0.3383530733333333,0.8632544400000001,-1.9878572666666667,-8.341314333333335
369,1778427640000,0.6399328028571428,-1.6131777571428572,-0.3254545314285714,0.4634285342857143,-1.8703384428571428,-8.418944999999999
370,1778427640010,0.1136041833333333,-1.8253300666666668,-0.2866020933333333,0.12242758,-1.8881335666666663,-8.369057
371,1778427640020,-0.2648935083333333,-2.0131561166666665,-0.2177667756666666,-0.1600976,-1.8884898666666663,-8.189208383333334
372,1778427640030,-0.7048582,-2.2341547,-0.117506854,-0.4970916,-1.8541286999999995,-7.8651953
373,1778427640040,-1.2013679428571429,-2.5679894142857145,0.1077763253571428,-1.0038915857142856,-1.9539615428571424,-7.346658114285715
374,1778427640050,-1.5759718285714288,-2.9460255,0.46155132,-1.1587458714285714,-2.1408426285714284,-6.8456177714285715
375,1778427640060,-1.7993530166666665,-3.2506877333333333,0.6700492416666667,-1.072323,-2.1908172,-6.465346866666667
376,1778427640070,-2.1251936428571425,-3.674056,0.8597540057142857,-0.9023134571428572,-2.171953114285714,-5.787621000000001
377,1778427640080,-2.353125,-3.8740675,0.95353127,-0.8005134766666666,-2.124589333333333,-5.0167562000000006
378,1778427640090,-2.6109755,-4.013100083333334,1.1411743,-0.7852672666666667,-1.9669605,-4.026543533333333
379,1778427640100,-2.704121,-4.094812,1.3384928,-0.7478518,-1.514793,-2.8736627
380,1778427640110,-2.7706231857142853,-4.014162999999999,1.3768050285714286,-0.51029067,-0.1541562199999999,-0.7949538385714287
381,1778427640120,-2.6083534,-3.78287315,1.2470849,-0.3458515533333333,0.6194428,0.7280241083333333
382,1778427640130,-2.4813643,-3.6732633,1.1860448,-0.1611593347142857,1.3126838857142855,2.518182928571429
383,1778427640140,-2.1634798,-3.4552019,1.0645133,-0.0243735224,1.93806162,4.16805572
384,1778427640150,-1.6070450166666663,-3.1132306,0.834713315,-0.0004581513333333,2.7445158333333333,6.104325266666667
385,1778427640160,-1.125929495,-2.8503696166666668,0.6443566900000001,-0.1200859283333333,3.3429345833333333,7.396025333333334
386,1778427640170,-0.5836316133333334,-2.6238115333333334,0.4392939133333333,-0.4252131166666666,4.019111333333334,8.781646166666667
387,1778427640180,-0.2812969,-2.5223422,0.33233646,-0.8003862,4.552473,9.804082
388,1778427640190,-0.00450026,-2.45707004,0.235208844,-1.2793045,5.0529246,10.662194
389,1778427640200,0.6179803285714286,-2.4690812142857146,0.01423428,-2.2148228714285714,5.5922532857142855,11.810730857142858
390,1778427640210,0.9366401,-2.513683,-0.08067544,-3.2363641,5.603772,12.863295
391,1778427640220,1.7461994666666667,-2.534700733333333,-0.0182530973333333,-3.902818,5.376836,13.421779
392,1778427640230,2.1154892,-2.6029568,-0.010000584,-4.675257,4.74627,13.800515
393,1778427640240,2.3615606,-2.6457235333333333,0.0652477053333333,-5.031595333333334,4.378732933333333,13.866997666666668
394,1778427640250,2.93614695,-2.72918365,0.416579165,-5.742133,3.3545666,13.646424
395,1778427640260,3.0810131,-2.7053204333333336,0.5724724333333334,-5.8763707,2.8300368999999996,13.1212325
396,1778427640270,3.1571963,-2.6629603,0.6866255,-5.9479947,2.4109323,12.625057
397,1778427640280,3.1517692,-2.5043535,0.99267983,-5.5428386,1.6974418,11.410657
398,1778427640290,3.0964611000000004,-2.470530333333333,1.0344912533333332,-5.22793745,1.3608550499999998,10.9774775
399,1778427640300,2.82482935,-2.37608375,1.10268635,-4.4127376499999995,0.4874704649999999,10.140974
400,1778427640310,2.4932857666666663,-2.33846975,1.00309715,-3.505501,-0.4971934166666667,9.530159666666668
401,1778427640320,2.1356733666666665,-2.324963,0.8016524666666666,-2.449162333333333,-1.7365881466666666,9.186140833333331
402,1778427640330,2.0103612,-2.342088,0.7102853,-1.337729442857143,-3.0263138285714284,9.089958571428571
403,1778427640340,1.969423866666667,-2.342047333333334,0.6695919,-0.6679302433333333,-3.66338435,9.279298
404,1778427640350,1.9769446,-2.3644063,0.57478964,-0.10415252,-4.0285034,9.570121
405,1778427640360,2.0584738,-2.394103,0.54240966,0.105323355,-4.015649733333333,9.769670166666666
406,1778427640370,2.30385388,-2.3483442,0.47664974,0.405370184,-3.0965371599999996,10.2244786
407,1778427640380,2.5180838,-2.2367970833333337,0.3696760283333333,0.30970868,-2.3515258,10.279945
408,1778427640390,2.691149985714286,-2.066383542857143,0.2283756985714285,-0.019394971,-1.4563028,10.183429
409,1778427640400,2.7377207,-1.9440768,0.12415359,-0.6711882,-0.2930626,9.98108
410,1778427640410,2.743331,-1.8787681,0.08652944,-0.8243117333333334,-0.1020654,9.951656666666668
411,1778427640420,2.8463450666666668,-1.7030871333333335,0.1002395883333333,-2.3054053666666667,0.96674516,9.800976333333333
412,1778427640430,3.0073097,-1.4769154,0.12738548,-2.67497885,0.903087895,9.6873295
413,1778427640440,3.2842056166666667,-1.3096800666666666,0.2034569883333333,-3.0002646,0.61941737,9.423512
414,1778427640450,3.7867453,-1.045,0.32928753,-3.1509957000000006,-0.039095376,8.7288065
415,1778427640460,4.1490836,-0.7734598,0.38977882,-3.15544995,-0.239153746,8.365723583333333
416,1778427640470,4.5877066,-0.31044495,0.40978,-3.2446108,-0.4120286,7.090618
417,1778427640480,4.8652636,0.0200113333333333,0.3256287666666667,-3.5996761,-0.20616703,5.717546
418,1778427640490,4.9573220000000005,0.09927409,0.24985198,-3.9992837666666663,-0.010588334,4.959258666666667
419,1778427640500,4.899798,-0.0039026667,0.36313096,-4.8258354,0.3160718513333333,3.764915199999999
420,1778427640510,4.689216666666667,-0.119458194,0.7888061666666667,-5.760357533333334,0.579634745,2.6429340333333333
421,1778427640520,4.56612,-0.20214595,1.1815933,-6.047744116666666,0.6392704916666666,2.205249066666666
422,1778427640530,4.518556,-0.19165753,1.6833908999999998,-5.8684297,0.61559945,2.0809124
423,1778427640540,4.7576962499999995,-0.1290014216666666,1.989150566666667,-5.110956616666667,0.4672101166666667,2.1971040666666664
424,1778427640550,5.557641,0.10476221,2.1694558,-3.6699257,0.05955936,2.1546745
425,1778427640560,6.239083566666667,0.4387857866666667,2.0672140333333333,-2.453438466666667,-0.1025744566666666,1.38839492
426,1778427640570,6.8186905,0.64779189,1.8422924166666668,-1.5117897000000002,-0.1928807016666666,0.09094255
427,1778427640580,6.9244895,0.59905934,1.524845,-1.1142182,-0.14095716,-1.6809485000000002
428,1778427640590,6.302319,0.11720196,1.3112351,-1.2060007,0.21746802,-3.9041924
429,1778427640600,5.2475014,-0.4446600999999999,1.3955692,-1.3330097833333332,0.4992295866666666,-5.110142066666667
430,1778427640610,5.031533433333333,-0.5225508233333334,1.4266482666666669,-1.35535725,0.65438937,-5.5392495
431,1778427640620,3.897076966666667,-0.71378149,1.6255624,-1.1450159666666666,1.14639048,-5.6713746
432,1778427640630,3.261257216666667,-0.611397455,1.71289465,-0.6688465149999999,1.7445038666666666,-5.3073244
433,1778427640640,2.9263496,-0.30727403,1.6191595,0.121409465,2.42228425,-4.678235166666667
434,1778427640650,3.0044436,-0.26885715,1.5363090999999998,0.55665094,2.676048,-4.557971
435,1778427640660,3.1200774571428576,-0.2250915214285714,1.397485757142857,1.056382357142857,2.9367565000000004,-4.8978955
436,1778427640670,3.185328283333334,-0.2105407333333333,1.2692001333333331,1.4729233166666666,3.032640583333334,-5.382689733333334
437,1778427640680,3.1961012,-0.29337075,1.1654338,1.8866574,2.9906434999999996,-5.9838834
438,1778427640690,3.114592233333333,-0.5258843466666666,1.0065424,2.5147286666666666,2.765386933333333,-6.9985302
439,1778427640700,3.0331647,-0.6829667,0.9049918,2.770274,2.651766,-7.4075046
440,1778427640710,3.013488783333333,-0.7192391283333334,0.8821042833333333,2.8814005666666667,2.584469,-7.576866966666667
441,1778427640720,2.8227765333333337,-1.1202279616666666,0.6360025666666667,3.42563045,2.1721858333333333,-8.358087783333334
442,1778427640730,2.7809752666666667,-1.3964026,0.47817832,3.5837937333333336,1.983174,-8.588816333333334
443,1778427640740,2.7458918000000003,-1.6583285000000003,0.33111688,3.728288783333334,1.7192547833333334,-8.898397666666666
444,1778427640750,2.6941990571428573,-1.7946953857142858,0.2481677971428571,3.8568504,1.4040737,-9.290497
445,1778427640760,2.633852866666667,-1.8918482333333333,0.15392158805,3.8151589,1.2871185166666668,-9.347002166666668
446,1778427640770,2.54399,-2.0056658,0.0074394583,3.6677876,0.9821186,-9.432218
447,1778427640780,2.5451485000000003,-2.0096295,-0.01984872085,3.5453091666666663,0.7552076133333333,-9.436722833333334
448,1778427640790,2.5863442,-1.9652279,-0.0662146685714285,3.2645074857142857,0.2335905014285714,-9.466862285714283
449,1778427640800,2.5806994,-1.9505405,-0.0617719,3.1483996,0.05177083,-9.498802
450,1778427640810,2.5513888,-1.9288929333333331,-0.0489459476666666,2.9975158,-0.11201741,-9.525069
451,1778427640820,2.4696562,-1.8605353,-0.038172957,2.6401596,-0.41050145,-9.519114
452,1778427640830,2.4824415666666666,-1.8355440666666667,-0.0499724279999999,2.4825563,-0.4619668533333333,-9.458536
453,1778427640840,2.5417743,-1.7497565999999998,-0.0942534666666666,2.2650627666666665,-0.5442554916666668,-9.394420166666666
454,1778427640850,2.5658813,-1.7172344,-0.1358006,2.1244366,-0.6433938,-9.427636
455,1778427640860,2.5847674142857144,-1.6951773142857145,-0.1761165428571428,1.9818432,-0.7686648214285715,-9.494394785714286
456,1778427640870,2.5881388,-1.6439373,-0.25830775,1.7293595,-0.9970848,-9.617004
457,1778427640880,2.538715116666667,-1.6195964833333332,-0.2967246183333333,1.47144715,-1.2924381666666669,-9.762975833333334
458,1778427640890,2.3917045333333333,-1.6045447666666668,-0.2914194233333333,1.1496484666666666,-1.7191275333333331,-9.816655666666668
459,1778427640900,2.3412952,-1.5818605,-0.25946635,1.0311406,-1.9387336,-9.753227
460,1778427640910,2.2274818857142855,-1.5144611571428572,-0.20833097,0.9508335714285714,-2.236421257142857,-9.550878142857144
461,1778427640920,2.0868292,-1.5059414999999998,-0.22019579,0.9127854,-2.3118196,-9.435425
462,1778427640930,1.9274296,-1.50771,-0.23391607,0.8244644416666667,-2.2736404333333335,-9.249110833333331
463,1778427640940,1.5362742571428571,-1.5204893857142856,-0.18445328,0.58459806,-2.1265745,-8.807455
464,1778427640950,1.2496286571428572,-1.5337567,-0.0958766705714285,0.5130613628571429,-2.0994783714285714,-8.64978657142857
465,1778427640960,1.0614643,-1.5491757,-0.037990022,0.350865725,-2.0699678666666665,-8.232758666666667
466,1778427640970,1.0614643,-1.5491757,-0.037990022,0.33750305,-2.0712914,-8.191398
467,1778427640980,0.90751224,-1.6217002666666664,-0.0607555783333333,0.32177326,-2.0822868,-8.147263
468,1778427640990,-0.09267092,-2.3276967999999996,-0.2027296,-0.6758133371428572,-2.071618457142857,-8.068133885714285
469,1778427641000,-0.3999014,-2.7855284,-0.24025792,-2.0059288,-2.057394,-7.9626284
470,1778427641010,-0.7411814666666666,-3.2436853333333335,-0.0612230853333333,-3.084691383333334,-1.7192038166666668,-7.777637966666667
471,1778427641020,-1.3326184333333333,-3.8442486,0.3802660706666667,-4.3235517,-1.1772901,-7.291593
472,1778427641030,-1.8289656285714284,-4.158752971428571,0.8927175371428572,-4.213203171428572,-1.0749047,-6.822077514285715
473,1778427641040,-2.6281412,-4.3980002,1.7448578,-3.1995085500000005,-0.88053675,-5.150993716666666
474,1778427641050,-2.6281411999999995,-4.3980002,1.7448578,-1.9194913,-0.819323,-3.8224893
475,1778427641060,-2.936655083333333,-4.2240676,1.8129512666666667,-0.1167516166666666,-0.21848615,-1.7953075766666666
476,1778427641070,-2.7561364000000004,-4.129448,1.3138571,0.7846563999999999,0.3827071,-0.4489859600000001
477,1778427641080,-2.7279465999999997,-4.111711857142857,1.2501861428571428,0.8533351142857144,0.5324127200000001,-0.1026253714285714
478,1778427641090,-2.5167525,-3.9781084166666663,0.7934914116666668,0.8895216233333333,1.1899146133333334,1.3720542666666666
479,1778427641100,-2.2956928666666667,-3.8299491166666666,0.4075441083333333,0.5756132383333333,1.80523405,2.693406766666667
480,1778427641110,-1.9614864,-3.5317609,0.40767622,-0.6793330733333334,3.0770809333333333,6.268699000000001
481,1778427641120,-1.849986,-3.5199003,0.46277088,-0.9436341,3.359606,7.620849
482,1778427641130,-1.5615370857142856,-3.5507037285714285,0.5175127371428572,-0.9926778428571428,3.451148514285714,8.119707857142856
483,1778427641140,-0.71197241,-3.6557317166666663,0.5545546983333333,-1.2230285833333332,4.235943083333333,11.509948
484,1778427641150,-0.1662292,-3.7320468,0.51563984,-1.2797627,4.5171957,12.521820999999996
485,1778427641160,1.176379616666667,-3.9012643,0.0091773666666666,-1.9632700166666668,5.0663381,14.823205333333334
486,1778427641170,1.7232103,-3.972915,-0.20909756,-2.5706737,5.235726,15.981152
487,1778427641180,2.3730043,-3.93861415,-0.163393678,-3.109253233333334,4.849862933333333,16.641089333333333
488,1778427641190,4.4648337,-3.696984,0.06488183,-3.5000288000000004,3.79683305,16.7750465
489,1778427641200,4.6762279,-3.5129082,0.1711888433333333,-3.5021921999999996,2.2966497,16.040557000000003
490,1778427641210,4.7752175,-3.15987945,0.278125975,-3.1247284,1.22524295,14.835167500000004
491,1778427641220,4.370385571428572,-2.8120455,0.39141655,-2.654776657142857,0.2828960585714286,13.520368
492,1778427641230,3.837002233333333,-2.7417046666666667,0.46867569,-2.107128766666667,-0.148440255,12.383638499999998
493,1778427641240,3.4287570333333335,-2.8095542666666664,0.5120420433333334,-1.9327776000000003,-0.11866058,12.421181
494,1778427641250,3.2796512,-2.928446142857143,0.5610083285714286,-1.8309595,-0.1027998971428571,12.874072285714286
495,1778427641260,3.4172726,-3.0556661999999997,0.6265,-1.7331774,-0.04352415,13.53204
496,1778427641270,3.799795,-3.056215,0.6316222,-1.7539468000000005,0.24281894,13.851369999999998
497,1778427641280,3.929218871428571,-2.8665174428571425,0.6101227,-1.8963002714285715,0.4635812728571428,13.549580714285714
498,1778427641290,4.0647497,-2.3616621,0.6213777,-2.3580925,0.95004815,12.142015
499,1778427641300,3.7190789,-2.221593033333334,0.7200623133333334,-2.409532516666667,0.9467393216666666,11.129405083333332
500,1778427641310,3.2608,-2.09872,0.8232187,-2.351373,0.8768970399999999,10.296287
501,1778427641320,2.9201095,-2.1415884,0.7857775,-2.1245383333333336,0.7909686800000001,10.197835666666666
502,1778427641330,2.833919785714286,-2.1098357,0.7207737685714285,-1.8260288857142857,0.7518005628571428,10.344435428571428
503,1778427641340,2.870289383333333,-1.9920777166666663,0.5728078116666667,-1.6753488666666667,0.7127015683333333,10.721194000000002
504,1778427641350,3.2845514,-1.7529376,0.3768512449999999,-1.78756995,0.6678284333333333,10.7483265
505,1778427641360,3.5844861428571426,-1.528739042857143,0.25660032,-2.3241022714285715,0.6789549257142857,10.226167285714284
506,1778427641370,3.752841,-1.2765989,0.22330572,-2.7049112,0.72204274,9.691988
507,1778427641380,3.9306562,-0.52875036,0.30721304,-3.5576792000000004,0.6075055,8.186816
508,1778427641390,4.016070342857143,-0.2819154028571428,0.4589640614285715,-4.127769,0.20937407,6.88155
509,1778427641400,4.082982,-0.04853942,0.72010297,-4.50436756,-0.121592726,5.53367564
510,1778427641410,3.9912694,0.024086772,0.9818866,-4.811349228571429,-0.2433425357142857,4.335223442857143
511,1778427641420,3.9003496,0.04183171,1.1304928,-4.9729013,-0.183565,3.7317758
512,1778427641430,3.6862211666666664,0.0576761293,1.5590137833333335,-5.181384483333333,0.1398626941666666,2.6511806833333336
513,1778427641440,3.4870934000000005,-0.0018903542,1.9354179,-5.2311444,0.5688683,1.8716911000000005
514,1778427641450,3.402149714285714,-0.1235263783428571,2.1057588285714286,-5.119269028571429,1.3173527571428572,1.4282901857142858
515,1778427641460,3.3440976,-0.23416002,2.2835479,-5.013854816666666,1.6151531666666668,1.2998448833333334
516,1778427641470,3.4009302666666668,-0.2625763066666667,2.371276566666667,-4.8505754,1.621389,1.3292428
517,1778427641480,4.063438283333333,-0.4325354166666666,2.689496266666666,-4.039270066666667,1.1729121666666666,1.457397133333333
518,1778427641490,4.908762,-0.6266219600000001,2.9343786,-2.9857566,0.81138176,1.3306172
519,1778427641500,5.7826138333333335,-0.8193262499999999,3.02150775,-1.388954825,0.8278751,0.4957680683333333
520,1778427641510,6.052548,-0.7940707,3.015359,-0.09315695,0.9630291,-0.47219884
521,1778427641520,5.805164428571429,-0.6442187857142857,2.786443028571429,1.144281492857143,0.95910208,-1.6222835771428572
522,1778427641530,5.36694925,-0.5580305666666667,2.4150088333333333,2.4104743,0.88117313,-2.9364293
523,1778427641540,4.972973,-0.6324759,2.1295755,2.784527433333333,0.8521570433333333,-3.5021923000000004
524,1778427641550,4.336995242857143,-0.6472241714285714,1.8627829,3.525281385714286,0.7301585085714286,-4.669344714285714
525,1778427641560,3.9148016,-0.6406471,1.6924769000000002,3.8541017,0.5360342,-5.082857
526,1778427641570,3.628321399999999,-0.59107107,1.5411875000000002,4.1712933,0.27840182,-5.2962017
527,1778427641580,3.5732833142857143,-0.5480023500000001,1.4350313857142858,4.337099628571429,0.2312779414285714,-5.478086857142857
528,1778427641590,3.56954755,-0.4910753883333333,1.2604697833333331,4.4286203,0.27748555,-5.694791300000001
529,1778427641600,3.5493737666666667,-0.50746864,1.1006739666666665,4.298073266666667,0.532878115,-6.125782083333334
530,1778427641610,3.5088024,-0.5608864,1.0043269,4.1027236,0.89965177,-6.7514353
531,1778427641620,3.4333609666666667,-0.6700594333333334,0.9539174533333332,4.01445365,1.174082985,-7.138901983333334
532,1778427641630,3.3158643,-0.8479763,0.86742866,3.878688833333334,1.663818783333333,-7.816529499999999
533,1778427641640,3.205675,-1.0603057,0.7461411,3.843564,1.9324722,-8.205447
534,1778427641650,3.126401916666667,-1.2035560333333333,0.6744906,3.8688132,2.028989,-8.478707666666667
535,1778427641660,3.0917250833333334,-1.2794446166666666,0.643777425,3.908061333333334,2.0567070333333333,-8.671512166666666
536,1778427641670,2.945355,-1.6488768,0.51557887,4.16457388,1.7871168000000002,-9.0967918
537,1778427641680,2.8577888,-1.8858417,0.38910806,4.5390344,1.0548116,-9.489181
538,1778427641690,2.81706485,-1.9724219666666667,0.3044994633333333,4.662021800000001,0.5937101333333333,-9.682621666666668
539,1778427641700,2.7025967666666664,-2.1697200999999997,0.0771386446666666,4.637230883333333,-0.2251802016666666,-10.006100333333334
540,1778427641710,2.6467397,-2.2219589,-0.005427146,4.4802384,-0.65118235,-10.135476
541,1778427641720,2.598922116666667,-2.2105253166666667,-0.0303269726666666,4.217693483333333,-0.907618475,-10.126440166666669
542,1778427641730,2.4857243,-2.09207335,-0.0784801879999999,3.6176712833333338,-1.1147526833333332,-10.011623333333333
543,1778427641740,2.481994466666667,-2.042436266666667,-0.0913264653333333,3.01090395,-1.11569445,-9.8505335
544,1778427641750,2.5120470000000004,-1.9858679,-0.0902796583333333,2.5891777499999997,-1.0265589933333332,-9.694634666666667
545,1778427641760,2.56393,-1.9249904,-0.09317617,2.218968,-0.91813046,-9.536828
546,1778427641770,2.59454165,-1.89120795,-0.1204948349999999,2.1133392,-0.8952739266666666,-9.509542666666666
547,1778427641780,2.67657082,-1.79439742,-0.198645724,1.6466178,-0.937158904,-9.4699996
548,1778427641790,2.7036943500000006,-1.7648896,-0.2216897599999999,1.2639056,-1.3460416000000002,-9.511451333333332
549,1778427641800,2.7030236166666666,-1.7031075,-0.2491507183333333,0.9996046166666668,-1.7817411666666667,-9.478999666666668
550,1778427641810,2.6966207,-1.6611335,-0.24788031,0.8165741,-2.0215058,-9.45207
551,1778427641820,2.631921833333333,-1.650889,-0.26296249,0.7571165666666667,-2.0574959666666666,-9.453953666666669
552,1778427641830,2.469859583333333,-1.6312028833333334,-0.2937061533333333,0.3977496499999999,-2.0791562999999997,-9.3691455
553,1778427641840,2.306537,-1.6352173,-0.29660267,0.1572978,-2.0288363,-9.28057
554,1778427641850,2.0288291857142857,-1.6474393142857142,-0.2290638971428571,-0.0107337757142857,-1.9657644285714289,-9.01785457142857
555,1778427641860,1.7086973,-1.6277779000000003,-0.11897036,-0.09117164,-1.9515617,-8.681617
556,1778427641870,1.5482407666666669,-1.5980201,-0.055877246,-0.0514653979999999,-1.9860756333333331,-8.480337
557,1778427641880,1.2858473,-1.5733844666666668,0.0001829369999999,0.0661261655,-2.0608556833333336,-8.103407833333334
558,1778427641890,1.10527176,-1.59364178,0.0087809998,0.109497598,-2.09459574,-7.945524399999999
559,1778427641900,0.7947110109666666,-1.7368595000000002,-0.0360386873333333,0.0430660026666666,-2.0684405666666668,-7.95372
560,1778427641910,-0.0011586042,-2.1121964,-0.1565945,-0.71593404,-1.809841,-8.239198
561,1778427641920,-0.46521008,-2.4127626,-0.095920235,-1.33138084,-1.6171639166666667,-8.224180500000001
562,1778427641930,-1.0865269,-3.0777407,0.2626373,-1.7991000333333336,-1.3264938666666666,-8.0860231
563,1778427641940,-1.71391712,-3.49099632,0.7687399600000001,-2.5787675,-0.6391178,-7.563275299999999
564,1778427641950,-2.133905,-3.6741168,1.103296,-2.0320432,-0.4549418999999999,-6.5373273
565,1778427641960,-2.5821629,-3.8388824000000006,1.3443466,-1.0228939,-0.5899431,-5.399438
566,1778427641970,-2.6177340833333336,-3.85930025,1.3648965999999998,-0.4461607249999999,-0.539546725,-4.73794725
567,1778427641980,-2.8585509833333336,-4.02249075,1.3534529666666666,1.0800861583333334,-0.1109229475,-2.8893415833333336
568,1778427641990,-2.896358166666667,-3.992133266666667,1.1026456666666666,1.4305954833333334,0.0552069438333333,-2.4068090166666667
569,1778427642000,-2.8173493166666668,-3.7807490666666665,0.4959131083333333,1.9070704,0.6700682736666668,-0.3774892516666666
570,1778427642010,-2.6273484,-3.6077714,0.28202865,1.993406,1.4062119,1.8710803000000005
571,1778427642020,-2.53636748,-3.5119365599999997,0.245221622,1.83079368,1.69838874,2.54162706
572,1778427642030,-2.2593217142857145,-3.2435777571428575,0.1728149557142857,1.2758574857142857,2.6318475428571433,4.6798604571428575
573,1778427642040,-1.8590719,-2.9195604,0.13848369,0.94989544,3.1186197,5.849187400000001
574,1778427642050,-1.1935452,-2.643447,0.15567982,0.29947668,3.9985712,8.046012
575,1778427642060,-0.6183084366666667,-2.511244066666667,0.1347334716666666,-0.054697894,4.462395916666666,8.9826975
576,1778427642070,-0.1300685628571428,-2.4202979428571427,0.1056246291428571,-0.7629052428571429,5.266901828571429,10.42642257142857
577,1778427642080,0.2321476999999999,-2.4153848,0.066894144,-1.3800973,5.752671,11.209072
578,1778427642090,0.6873746000000001,-2.487497042857143,0.0231633722857142,-1.8182185857142856,6.011721342857142,11.608708857142856
579,1778427642100,1.378678,-2.5570395,0.119946025,-1.8912388,6.0548964,11.675315
580,1778427642110,1.8361844333333333,-2.5679955000000003,0.2965721916666666,-3.356399,5.0631566,12.773192
581,1778427642120,2.1498206,-2.584663,0.3732534999999999,-3.3669619999999996,4.348316933333334,12.767211166666668
582,1778427642130,2.3690407,-2.5922244,0.4124631,-3.3511413285714284,4.0614248,12.740074928571428
583,1778427642140,2.3690407,-2.5922244,0.4124630999999999,-3.19827662,2.86819562,12.4724634
584,1778427642150,2.426239057142858,-2.6309984857142856,0.4328649985714285,-3.113732814285714,2.1899955571428573,12.169264571428572
585,1778427642160,2.3821511,-2.7235124,0.51448125,-3.0232230333333336,1.4032593000000002,11.730649
586,1778427642170,2.3260505,-2.8112006,0.55954486,-2.97928146,1.13187222,11.689976
587,1778427642180,2.37087,-2.8940713,0.60314494,-2.9057333,0.7724391,11.776108
588,1778427642190,2.628202,-2.9381592,0.64412296,-2.7224736833333334,0.1533526333333333,11.866261666666666
589,1778427642200,3.014495033333333,-2.859811233333333,0.6728339733333334,-2.5339962333333332,-0.379525475,11.77173
590,1778427642210,3.1723627428571426,-2.736875714285714,0.7051456428571429,-2.375589442857143,-0.6536694285714286,11.418009142857144
591,1778427642220,3.130690733333333,-2.390708533333333,0.80561609,-2.0383046666666664,-0.8217664666666668,10.402322333333332
592,1778427642230,3.0007238,-2.253668,0.80187607,-1.9069686,-0.6186538,9.897239
593,1778427642240,2.7935473,-2.186133583333333,0.745521095,-1.8664987,-0.113926366,9.4067135
594,1778427642250,2.5060609666666664,-2.190280216666667,0.6529344166666667,-1.9708548833333337,0.4473569756666666,9.27777075
595,1778427642260,2.2512288,-2.2472653,0.5584472,-2.1523838,0.85918194,9.529803
596,1778427642270,2.422062133333333,-2.24287475,0.4244353133333333,-2.493577433333334,0.9978992966666668,9.970313166666667
597,1778427642280,2.713268,-2.198726,0.30806676,-3.0569224,1.1806498,10.42411
598,1778427642290,3.0698132333333334,-2.0650595666666667,0.28762858,-3.5396587000000004,1.3633748500000002,10.3664595
599,1778427642300,3.4667878,-1.8723654000000003,0.33764166,-5.1445546,2.3011293,9.633651
600,1778427642310,3.61943084,-1.84568076,0.383937036,-5.66562244,2.70442258,9.0065358
601,1778427642320,3.804510633333333,-1.9571364,0.4251569266666666,-7.136942133333332,3.3927455666666666,8.024325666666668
602,1778427642330,4.054139,-2.1431127,0.4908823,-8.339379,3.7395644,7.39544
603,1778427642340,4.1050770000000005,-2.1422285166666666,0.512042075,-8.7634725,3.5918876999999996,7.24761075
604,1778427642350,4.742179,-1.91086752,0.99044803,-10.024299,2.5169175,6.422179
605,1778427642360,5.125307742857143,-1.6674317,1.4786926,-10.311864,1.4604261,5.386457
606,1778427642370,5.4087909,-1.0982348533333337,3.2523646666666663,-9.667247666666666,0.1673261686666666,2.5808038666666664
607,1778427642380,5.2279267,-0.92517596,3.90224,-9.070433,0.030390546,1.5662584
608,1778427642390,4.654773616666667,-0.5607746016666667,4.54943225,-7.450112666666667,0.073660166,0.5088252833333333
609,1778427642400,3.9915135,-0.103359684,4.7262516,-4.8792863,-0.48548517,0.065515295
610,1778427642410,4.1924396,-0.008354146,4.7299714,-3.85352126,-1.223165994,0.381943491
611,1778427642420,5.1145320285714275,0.6468670297142857,5.0120432571428575,-2.067997028571429,-2.2943879714285713,0.8002553171428571
612,1778427642430,5.701552,1.1054914,5.2205486,-0.20158553,-2.687807,0.766025
613,1778427642440,6.5928846000000005,1.4540584833333334,4.688688083333333,0.866588735,-1.24288166,-0.82436265
614,1778427642450,5.569480142857143,0.4404438565714286,3.460681057142857,2.4817055714285714,1.7603828228571428,-4.4752423142857145
615,1778427642460,4.648259166666667,-0.1201188,2.99090625,3.1461595333333334,3.145727033333334,-6.283945299999999
616,1778427642470,3.72188788,-0.6082916039999999,2.40534768,3.85074164,3.4923166800000005,-6.41918584
617,1778427642480,3.5442921999999997,-0.7415067,2.1540282,4.3773074,3.5149186,-6.111554000000001
618,1778427642490,3.566204016666667,-0.7703498433333333,2.0599576666666666,4.6538258,3.4937419333333337,-5.833712200000001
619,1778427642500,3.955372916666667,-0.97740457,1.2759789166666666,4.9605819166666665,3.5008432666666667,-5.5992164666666655
620,1778427642510,4.24698545,-1.0696051000000002,0.93682293,5.0349803500000005,3.4021375999999997,-6.0187025
621,1778427642520,4.357144300000001,-1.1443554333333334,0.7769254,5.0024263,3.1308878666666664,-6.6054386
622,1778427642530,4.3100482,-1.3332688333333331,0.6767467833333333,4.9554915,2.8044822000000003,-7.141473
623,1778427642540,4.209758,-1.4627073,0.65820915,4.899903,2.2107213,-7.9195623
624,1778427642550,4.0379998666666665,-1.5634042333333331,0.66182723,4.881424,1.5767958999999998,-8.566774
625,1778427642560,3.7332158,-1.7190739166666666,0.6249450083333333,4.84385605,1.1867330166666668,-8.893815833333333
626,1778427642570,3.4667878,-1.861206,0.56045955,4.7091603,0.7244862,-9.301187
627,1778427642580,3.2400468,-1.9410889166666667,0.4747837833333333,4.4211373,0.6577492,-9.485363
628,1778427642590,2.97829572,-1.9920431,0.367301918,4.33344758,0.67778557,-9.4861266
629,1778427642600,2.7746334666666663,-2.0110318333333335,0.30146068,3.8084393666666663,0.8171849833333334,-9.441177
630,1778427642610,2.6801360833333336,-2.0140807666666665,0.278258105,3.231604433333333,0.9964994083333334,-9.232337333333334
631,1778427642620,2.4280887833333336,-1.9437313333333333,0.29468182,2.6919305,1.1163563,-8.932072
632,1778427642630,2.2924507,-1.8893176,0.324897,2.5076017,1.035722,-8.785006
633,1778427642640,2.1220648499999997,-1.8454735333333332,0.3542991116666666,2.4251605,0.85004446,-8.647331833333332
634,1778427642650,1.958224,-1.7955315999999997,0.36837515,2.4063509,0.65041876,-8.513629
635,1778427642660,1.8795608666666668,-1.744593733333333,0.3659766499999999,2.4182627666666665,0.5338453066666666,-8.435845666666665
636,1778427642670,1.7640867333333332,-1.6087117666666666,0.37432062,2.4811819333333336,0.1641700366666666,-8.228075333333335
637,1778427642680,1.6527183333333333,-1.4988678666666668,0.3806116266666666,2.5705209,-0.09101892,-8.115498
638,1778427642690,1.5435656,-1.416424,0.36752144,2.5705209,-0.09101892,-8.115498
639,1778427642700,1.49289195,-1.3741960000000002,0.349105735,2.68780705,-0.3957643349999999,-8.01012315
640,1778427642710,1.4153366333333333,-1.3346103333333332,0.2811444633333333,2.7311530666666664,-0.7066947166666667,-7.906734383333333
641,1778427642720,1.3546217166666663,-1.3094259666666668,0.2356133416666666,2.7058020999999997,-1.06321091,-7.778910866666666
642,1778427642730,1.26107965,-1.18854495,0.18287652,2.6542094,-1.368949,-7.650781599999999
643,1778427642740,1.255683,-1.1497012,0.16671704,2.5366943,-1.5790611666666663,-7.584706566666667
644,1778427642750,1.2050093,-1.0677452,0.124580435,2.3773348,-1.7328719999999995,-7.5750346
645,1778427642760,1.2050093,-1.0677452,0.124580435,2.3773348,-1.732872,-7.5750346
646,1778427642770,1.2050093,-1.0677452,0.124580435,2.3773348,-1.732872,-7.5750346
647,1778427642780,1.0819882142857142,-1.0146585,0.0964951778571428,1.9659825142857144,-1.8219055285714287,-7.651697971428571
648,1778427642790,0.960310105,-1.05064055,0.0859399733333333,1.6233743,-1.7996091000000003,-7.648948999999999
649,1778427642800,0.85883063,-1.0837218,0.082077965,1.5293012,-1.7957911,-7.553653999999999
650,1778427642810,0.8216739866666667,-1.0932548333333332,0.08636683,1.5049684,-1.8247054,-7.512777
651,1778427642820,0.5990492066666667,-1.1616023333333334,0.1572551116666666,1.4311045,-2.01219,-7.347487
652,1778427642830,0.52765274,-1.188484,0.19196242,1.4289665,-2.0819814,-7.3180127
653,1778427642840,0.3109429325,-1.32882755,0.223935825,1.492980083333333,-2.087326566666667,-7.408624616666667
654,1778427642850,-0.015732625,-1.5214913,0.18110813,1.582141,-1.9269744,-7.5922914
655,1778427642860,-0.1733637775,-1.6236314,0.127934295,1.5769486,-1.8401552,-7.6475747
656,1778427642870,-0.4297202083333333,-1.7849009666666664,0.047208039,1.5349515833333334,-1.7110335833333332,-7.689113566666666
657,1778427642880,-1.2163166714285716,-2.2619352285714287,-0.1014083602857142,1.1329368285714287,-1.5366315285714285,-7.348447185714286
658,1778427642890,-1.6904034999999995,-2.5885048,0.03298973,0.6649268,-1.8246545,-6.6312475
659,1778427642900,-1.8521609666666663,-2.799452,0.25312453,0.6580036666666667,-2.1230621666666667,-6.0860505
660,1778427642910,-2.2031976666666666,-3.1697479166666667,0.5909897883333333,0.8657487666666667,-2.37842925,-5.013574833333333
661,1778427642920,-2.4883769,-3.2846733333333336,0.7677277416666667,1.1600331,-2.4559836,-3.901291
662,1778427642930,-2.70822705,-3.2655463499999997,0.8604871416666667,1.3438780833333333,-2.1555652166666666,-2.4268657166666663
663,1778427642940,-2.7769303,-3.2362256,0.93706685,1.363604,-1.5254833,-0.7602218
664,1778427642950,-2.7261143333333333,-3.210248466666666,0.9399735333333332,1.298699533333333,-1.1287772100000002,-0.2169589666666666
665,1778427642960,-2.588525016666667,-3.1394211,0.9265479666666666,1.1688906,-0.33536503,0.8695667
666,1778427642970,-2.1250891857142857,-2.924700257142857,0.7692348285714286,0.3048435642857142,1.7320429528571428,3.2844043142857147
667,1778427642980,-1.8568360333333331,-2.829961866666667,0.7774437333333334,-0.45911612,3.207958933333334,5.0005938
668,1778427642990,-1.4917334,-2.7043041,0.7748013,-0.7020368600000001,3.7223074,5.6014814
669,1778427643000,-1.3275775,-2.6474714,0.7605322,-0.9999864,4.4979534,6.667594
670,1778427643010,-1.0309138,-2.5311232,0.6641851,-1.2044735,5.087286,7.703774499999999
671,1778427643020,-0.7425840083333334,-2.4273062,0.5675839083333333,-1.37984275,5.468058500000001,8.533023666666667
672,1778427643030,-0.4836054633333333,-2.3615809333333337,0.4712673433333332,-1.5669202,5.762597333333333,9.166083833333332
673,1778427643040,-0.1316743484666666,-2.2992602,0.3278849933333333,-2.0125973333333333,6.132832699999999,9.989988333333336
674,1778427643050,0.36276507,-2.2061653,0.19848719,-2.679713,6.277862,10.806053
675,1778427643060,0.8870537500000001,-2.0904167333333334,0.1735975233333333,-3.2435417,5.942802400000001,11.205864999999998
676,1778427643070,1.2388527,-2.0098734,0.17842504,-3.8209622,5.2684073,11.167837999999998
677,1778427643080,1.3622745499999998,-1.9778898,0.22751328,-4.0159046,4.97626115,11.0105405
678,1778427643090,1.6494763166666664,-1.9388427,0.4412452533333333,-4.500244166666667,3.957439583333333,10.237287166666666
679,1778427643100,1.6891317,-1.9524833142857143,0.52367166,-4.592855714285714,3.2583115,9.695609714285714
680,1778427643110,1.608823516666667,-2.10800915,0.6562984500000001,-4.5718684,2.463314,9.185428
681,1778427643120,1.6110086,-2.2340329,0.6784542,-4.4413612,1.7615608571428572,9.113040571428572
682,1778427643130,1.6710934,-2.412498483333333,0.7099906166666666,-4.2230385,0.9957867666666664,9.2130185
683,1778427643140,1.7901218142857145,-2.6489088857142855,0.7614729571428571,-3.8389607714285714,0.0829467971428571,9.486868142857144
684,1778427643150,1.9727981,-2.78834556,0.769581484,-3.5689802,-0.42058071,9.656711
685,1778427643160,2.092988,-2.8616304,0.75297076,-3.1413746,-0.99097615,9.759642
686,1778427643170,2.1450235,-2.855786566666667,0.6976830433333333,-2.8446467,-1.2788464,9.715048
687,1778427643180,2.1389487714285713,-2.8361150571428575,0.6215345628571428,-2.6617144142857145,-1.4418165428571428,9.628981571428572
688,1778427643190,2.070079983333333,-2.860045,0.4660536183333333,-2.5885415,-1.5070046,9.594555
689,1778427643200,2.0314803166666664,-2.9332301,0.3736091916666667,-2.8108709666666667,-1.2843187633333333,9.676181833333333
690,1778427643210,2.017394133333333,-3.1096226333333328,0.2425852766666666,-3.1742086,-0.97112304,9.878149
691,1778427643220,2.0732918,-3.2937288,0.17251006,-3.28760045,-0.9035969783333334,9.9605395
692,1778427643230,2.1652177499999996,-3.3517504999999996,0.19620046,-4.1703006,-0.3989713749999999,10.576903
693,1778427643240,2.5241106,-3.4577627,0.34331274,-4.970661166666666,-0.0250963826666666,10.994505333333334
694,1778427643250,2.636172985714286,-3.430583385714286,0.4044138514285714,-5.4103678,0.1741620454285714,11.126059285714287
695,1778427643260,3.259011266666666,-3.155245133333333,0.6010310099999999,-6.096969666666666,0.577776695,10.787600666666668
696,1778427643270,3.4145894,-3.0771918,0.57546043,-6.414238,0.67271537,10.453279
697,1778427643280,3.5980962,-2.9405578,0.5500930766666667,-6.7541844,0.6940956300000001,10.249759
698,1778427643290,4.2156725,-2.7093654,0.53399456,-7.607563,0.5149594,9.829891
699,1778427643300,4.481460566666667,-2.6216367333333337,0.5718016533333333,-8.124914666666667,0.1110756616666666,9.261735333333332
700,1778427643310,5.603111500000001,-1.876603316666667,1.2193801,-8.9927,-0.7199047,7.795404
701,1778427643320,5.750274,-1.5898489,1.7269301,-9.303783,-0.87781334,5.9832726
702,1778427643330,5.312827342857143,-1.4280711857142856,2.453792971428571,-9.102284857142855,-0.4039346271428571,3.3702307857142855
703,1778427643340,4.7089944,-1.4141679,2.9312077,-8.668484,-0.04016439,2.1859813
704,1778427643350,4.385534742857143,-1.3383098142857144,3.0665117285714283,-8.00342577142857,0.0076358165714285,1.7448493
705,1778427643360,3.641370833333333,-0.8779374666666667,3.5834001,-6.87987,-0.31398472,1.5268577
706,1778427643370,3.6514933,-0.6247926,3.8701649,-5.976858,-0.70539665,1.5667167
707,1778427643380,3.863131899999999,-0.5032407733333334,4.1665643,-4.893921483333333,-1.0629819333333332,1.406593633333333
708,1778427643390,4.4444666,-0.16610725,4.798207,-3.1499266999999995,-1.3994923,1.1502593
709,1778427643400,4.770868,0.0191881099999999,5.004072333333333,-2.0958786,-1.0917689,1.014189
710,1778427643410,5.6738677,0.2361723,4.9664483,-0.53244540525,0.1609247949999999,0.313679295
711,1778427643420,5.721431566666666,0.0293309733333333,4.4679641,0.6057492465,1.33978023,-0.64850982
712,1778427643430,5.443447833333333,-0.3729282766666666,3.7682484666666665,1.7238108333333333,2.5924103666666665,-2.2965479
713,1778427643440,5.011747057142857,-0.6738895300000001,3.371224557142857,2.2438825,2.915048971428571,-3.1205614857142856
714,1778427643450,4.670943,-0.91810235,3.14823245,2.950504483333334,3.0444759833333332,-3.6090682666666662
715,1778427643460,4.450483083333333,-1.3613701,2.5570191666666666,3.8888699166666663,3.3175836333333333,-3.88197225
716,1778427643470,4.4217215,-1.3885566,2.403555,4.1474695,3.4564283,-3.942677
717,1778427643480,4.351290666666667,-1.3328114333333332,1.945347333333333,4.409759916666666,3.695174716666666,-4.084066750000001
718,1778427643490,4.349928833333333,-1.289872,1.6856878,4.4758096,3.944357,-4.4945936
719,1778427643500,4.303857514285714,-1.3141620571428572,1.5326242714285716,4.5638396,4.088542842857143,-4.896913871428572
720,1778427643510,4.1951838,-1.378861,1.4672807,4.723668,4.196797,-5.4255524
721,1778427643520,4.0973123,-1.4482756666666663,1.43242095,5.0606622,4.073453266666667,-5.91920785
722,1778427643530,3.861079,-1.6948549999999998,1.2866604,5.539784,3.7792706,-6.4809747
723,1778427643540,3.688264,-1.9251124,1.0893928,6.0733747,3.3053918,-7.0189943
724,1778427643550,3.6150367,-2.008819342857143,0.9760761142857144,6.249631257142857,3.0991593285714285,-7.215409314285714
725,1778427643560,3.29692015,-2.2333315333333332,0.5559368733333333,6.654257049999999,2.4325416833333335,-7.792884333333333
726,1778427643570,3.196162083333333,-2.2568594,0.4423022383333333,6.682636666666667,2.11081945,-8.002411333333333
727,1778427643580,2.966555266666667,-2.306679266666667,0.1674691183333333,6.551682500000001,1.6006197,-8.276918
728,1778427643590,2.7873578,-2.3019637,0.0199401875,6.203310916666666,1.2391910833333333,-8.470614333333334
729,1778427643600,2.6844423999999996,-2.277075442857143,-0.0471543171428571,5.837799071428572,1.0879292714285715,-8.561712285714286
730,1778427643610,2.523562,-2.2111657,-0.1636071,5.2902455,1.0034989,-8.61656
731,1778427643620,2.4645138333333336,-2.17594005,-0.1887203583333333,4.696459416666667,1.1010591833333334,-8.577871499999999
732,1778427643630,2.1352988571428573,-1.9757686,-0.3199315785714285,4.085467,1.2432635,-8.511491
733,1778427643640,2.0503635,-1.9156606,-0.3340439,3.4229834,1.5091426,-8.36641
734,1778427643650,1.9611771,-1.8516324285714287,-0.2831698428571428,3.1131874571428573,1.5861988857142857,-8.27076657142857
735,1778427643660,1.8198012,-1.7554073,-0.18860857,2.5927412666666667,1.5053246833333331,-8.050974833333333
736,1778427643670,1.7549803,-1.7136366,-0.124580435,2.4613287,1.3061826,-7.933765
737,1778427643680,1.6869378833333333,-1.6297901833333333,-0.0053661666666666,2.470492,0.7703010999999998,-7.6535306
738,1778427643690,1.6528926285714287,-1.501429042857143,0.1015825867142857,2.5985116857142856,0.4786565457142857,-7.508101228571428
739,1778427643700,1.6744269,-1.3952034,0.12842213,2.723797166666667,0.28893926,-7.458206533333333
740,1778427643710,1.6744269,-1.3952034,0.12842213,2.8304877142857143,0.1384482442857142,-7.480808414285714
741,1778427643720,1.6744269,-1.3952034,0.12842213,2.8715248,0.07849618,-7.507381
742,1778427643730,1.69619655,-1.3505361166666665,0.0218305421666666,2.878167966666666,-0.18341229,-7.638589833333333
743,1778427643740,1.6924056666666667,-1.3351998499999995,-0.0433155358333333,2.8840984000000005,-0.8394815666666667,-7.852036333333333
744,1778427643750,1.6854119,-1.3057208285714286,-0.0169434976428571,2.9553006857142856,-1.406059057142857,-7.965486342857143
745,1778427643760,1.6561332999999998,-1.2464142,-0.0127446465,3.1164818000000003,-2.231338,-8.141154
746,1778427643770,1.6103379333333334,-1.2315149666666667,-0.0527266543333333,3.1413746,-2.4783566,-8.203385500000001
747,1778427643780,1.5192001428571429,-1.209103642857143,-0.1244149242857143,3.0919163142857147,-3.009165771428571,-8.341538714285715
748,1778427643790,1.4407548,-1.200009,-0.16982698,2.935971,-3.3116530999999996,-8.417723
749,1778427643800,1.1595188,-1.1639704,-0.25074634,2.3115141,-3.1340442,-8.316472
750,1778427643810,1.0820753,-1.17955055,-0.2743452799999999,2.1210005,-2.9839241,-8.261189
751,1778427643820,0.93737175,-1.217632,-0.30803627,1.6914859,-2.678542333333333,-8.1450735
752,1778427643830,0.6010193714285714,-1.3307832142857143,-0.3277456142857143,1.2875076142857145,-2.497173514285714,-7.9917317
753,1778427643840,0.27605268,-1.4916724,-0.33599523,0.70616025,-2.2635612,-7.746076599999999
754,1778427643850,0.1259423091666666,-1.7898605666666665,-0.3633850383333333,0.31978795,-2.2142339,-7.528456000000001
755,1778427643860,-0.20739014,-2.1624518285714287,-0.4242407857142857,-0.0764454242857142,-2.298402328571429,-7.4724308285714285
756,1778427643870,-0.6547536166666666,-2.462338833333334,-0.2444553233333333,-0.7981718066666668,-2.2254074833333335,-7.374339766666666
757,1778427643880,-1.1262677714285716,-2.864008685714286,0.1176462328571428,-1.716356842857143,-1.9641280714285712,-7.095199857142857
758,1778427643890,-1.63653452,-3.16405048,0.5174082419999999,-1.84783688,-1.97740134,-6.87706006
759,1778427643900,-2.1381125,-3.4483720000000004,0.9127362,-1.7328719999999995,-2.1577287,-6.4736443
760,1778427643910,-2.5167933,-3.7479017,1.276355,-0.96883225,-2.4013114,-5.5468090000000005
761,1778427643920,-2.7131809571428573,-3.8725778714285712,1.3934697428571428,-0.32397673,-2.513274228571429,-4.702724328571429
762,1778427643930,-3.0460820666666666,-4.036689066666667,1.36606545,0.91049465,-2.711630766666667,-2.6014460666666666
763,1778427643940,-3.0515194,-4.0521874,1.3048322,1.0166324,-2.6673431,-1.8153389
764,1778427643950,-2.816113742857143,-4.011584057142857,1.1041411,0.5487533574285715,-1.3809917971428571,0.4420046642857143
765,1778427643960,-2.7282689999999996,-3.9534624,1.0588423,0.118202426,-0.70249504,1.3370314
766,1778427643970,-2.5053291,-3.8097346,1.1310416,-0.273133112,-0.03115412,2.1181753000000003
767,1778427643980,-2.285926,-3.5928924,1.1425667,-1.1771809642857145,1.912226457142857,4.5119599571428575
768,1778427643990,-2.1561015,-3.4922771000000004,1.1272609,-1.3083206,2.2881484,5.033988
769,1778427644000,-1.4163631,-3.1154866,0.7568734,-1.5349517,3.5801284,7.2783065
770,1778427644010,-0.8626113,-2.8914492,0.4188659,-1.7368644857142856,3.941520757142857,7.986256142857144
771,1778427644020,-0.544543956,-2.79627288,0.216122364,-2.05375954,4.26319788,8.5961876
772,1778427644030,-0.1360532314285714,-2.6440566857142858,-0.0297839711428571,-2.967583342857143,4.708178500000001,9.304176214285716
773,1778427644040,0.3588624,-2.43434945,-0.15357603,-3.5614460833333332,4.80127375,9.524229416666666
774,1778427644050,0.59113204,-2.3462346,-0.15830192,-4.4645085,4.783075,9.765139
775,1778427644060,0.933896,-2.250497,0.008963938,-4.8369837,4.3637156,9.755671
776,1778427644070,1.1470006857142856,-2.2268720714285712,0.1130379554285714,-4.807858485714285,3.7414841142857145,9.625272714285714
777,1778427644080,1.3618478,-2.204336,0.2209884999999999,-4.603786,2.6757424,9.397551
778,1778427644090,1.5536272999999998,-2.1818347,0.29166338,-4.326860416666666,1.8944712333333331,9.246871
779,1778427644100,1.7297351,-2.2076491,0.3531303733333333,-4.091270033333333,1.3431399333333331,9.126530333333331
780,1778427644110,2.001946,-2.2701936,0.44045252,-2.7566057500000003,-1.07955163,8.574563
781,1778427644120,2.09702476,-2.27266926,0.42607365,-2.3183863,-1.77523554,8.4748392
782,1778427644130,2.2023847,-2.2986708,0.40368208,-1.8547395,-2.4749205,8.424748
783,1778427644140,2.2538917,-2.3376568,0.38876252,-1.6510160333333337,-2.7273096333333338,8.412327
784,1778427644150,2.3480434999999997,-2.5390913000000004,0.2521895233333333,-1.09721575,-3.15735875,8.465269
785,1778427644160,2.3456857,-2.6279583,0.18007149,-0.9961685,-3.0364585,8.586169
786,1778427644170,2.3456857,-2.6279583,0.18007149,-0.99619904,-3.0246688,8.5944462
787,1778427644180,2.3456857,-2.6279583,0.18007149,-0.9963212,-2.97751,8.627555
788,1778427644190,2.280234566666667,-2.7236954333333334,0.10697779,-1.3012447833333334,-2.274505833333333,9.343794166666669
789,1778427644200,2.2913327333333333,-2.7754667666666664,0.061223086,-1.5226834333333334,-1.9747746,9.76692
790,1778427644210,2.4463622,-2.786016216666667,0.024157913,-1.7731890666666663,-1.7643824,10.028905666666668
791,1778427644220,2.5505757,-2.774918,-0.051832296,-2.1292216333333336,-1.4329116666666666,10.102439166666668
792,1778427644230,2.56740602,-2.80399296,-0.0566618432,-2.7148378,-0.86116725,10.173349
793,1778427644240,2.5628731,-2.828234116666667,-0.0520253916666666,-3.0734666333333336,-0.5446627083333334,10.238890666666666
794,1778427644250,2.617429,-2.8534186,-0.0685405846666666,-3.4732271333333333,-0.3030909666666666,10.388527000000002
795,1778427644260,2.87120395,-2.871082166666667,-0.1289404516666666,-4.43541595,-0.350789365,10.5518575
796,1778427644270,3.0669472,-2.836629,-0.18275456,-4.892969280000001,-0.50454416,10.45334
797,1778427644280,3.347705533333333,-2.79109775,-0.1658836683333333,-5.5017576,-0.8318457599999999,10.23856
798,1778427644290,3.5465280666666668,-2.7775197000000005,-0.0966113333333333,-5.929261533333334,-1.1055133866666669,10.000832
799,1778427644300,4.064291966666667,-2.725250433333333,0.2734407583333333,-6.482502,-1.39407085,9.5714955
800,1778427644310,4.4508696,-2.6442397,0.69357705,-7.152163,-1.7165314000000005,8.681159
801,1778427644320,5.09157775,-2.3558589166666666,1.285451,-7.148803,-1.8015944,7.945524
802,1778427644330,5.732296116666667,-2.090691083333333,1.5223448833333333,-6.9774556,-1.9501873000000003,7.2831936
803,1778427644340,6.098831700000001,-1.8307165,1.6851592999999998,-7.0133948,-2.1058561,6.4582201999999995
804,1778427644350,6.1315165,-1.6219239,2.1468937,-7.288538499999999,-2.1253529,4.445572
805,1778427644360,5.911930600000001,-1.5233815999999998,2.5577102,-7.262907916666667,-1.740406,3.0740010833333336
806,1778427644370,5.645634533333333,-1.4313843333333331,2.826242133333333,-6.884299000000001,-1.3756685,2.24157
807,1778427644380,4.532012316666667,-0.8577329666666667,3.7155625,-6.588691,-1.3896674999999998,2.1411845
808,1778427644390,4.290433433333333,-0.4697021999999999,4.006555,-5.475643299999999,-1.7208837499999998,2.06144125
809,1778427644400,4.450168416666666,-0.0170233516666666,4.268663683333334,-4.10025485,-2.5989515833333336,2.4403048333333333
810,1778427644410,5.582642842857142,0.5774117625714286,4.711145985714286,-3.0189614714285713,-2.8138853285714283,2.476993085714286
811,1778427644420,6.680837233333333,1.0702453866666666,5.0348465,-2.149176666666667,-1.7150042066666666,1.9936605333333337
812,1778427644430,7.4658017,1.3229431,5.0037065,-1.619862,-0.23060162,1.2840388
813,1778427644440,7.471481414285714,0.8272520785714285,4.4668284,-1.5490669999999995,1.6999506085714289,-0.8819149142857144
814,1778427644450,6.013521700000001,-0.2205616499999999,4.3902564,-1.2142473,4.182289,-4.4832926
815,1778427644460,5.632930300000001,-0.3718713,4.4444057,-0.623540655,4.27475875,-4.876919050000001
816,1778427644470,4.5589447,-0.7164849083333333,4.378639316666667,1.0963758099999998,4.271780716666667,-4.9954525
817,1778427644480,2.9949307,-0.92645645,3.5083144,4.4299946,4.0188823,-4.006818
818,1778427644490,3.0973350666666666,-0.9194235333333332,3.1696157666666664,4.4299946,4.0188823,-4.006818
819,1778427644500,3.486301,-0.8553547399999999,1.99243338,5.85257764,3.90801036,-3.4910336600000003
820,1778427644510,3.717690814285714,-0.82780088,1.5747347857142855,5.673585428571428,3.8919533428571422,-3.8722092
821,1778427644520,4.0466995,-0.8201698,1.0500613,5.167563716666667,3.8302778333333336,-4.69862265
822,1778427644530,4.036028,-0.98078895,0.9474333,4.7343583,3.755447,-5.5171824
823,1778427644540,3.907443333333333,-1.0867707166666667,0.9605642,4.45323305,3.6503271666666666,-6.2663829
824,1778427644550,3.5370356999999997,-1.3570914,1.0340848,4.3444736,3.51751488,-6.8256251599999995
825,1778427644560,3.3294625,-1.5217961000000002,1.0376825,4.419788333333333,3.313307716666667,-7.198537866666666
826,1778427644570,3.1808258333333335,-1.6936047666666667,0.9840716666666666,4.665152166666666,3.0501265333333336,-7.421147550000001
827,1778427644580,3.1086164333333333,-1.8043939,0.9105409666666668,4.897510333333333,2.8298078666666666,-7.529804916666667
828,1778427644590,3.0762467,-1.8499047333333336,0.8674795083333334,5.0622403333333335,2.704962233333333,-7.608224833333334
829,1778427644600,2.9574895,-1.9070015,0.64589137,5.210833200000001,2.6002497666666664,-7.696851333333334
830,1778427644610,2.95297705,-1.91532525,0.5932663349999999,5.259397150000001,2.5507441500000003,-7.7508874
831,1778427644620,2.938072057142857,-1.949774142857143,0.4427348871428571,5.164407571428571,2.5157174857142857,-7.871195
832,1778427644630,2.8666103333333335,-2.020300833333333,0.1958447466666666,4.936121833333334,2.452700233333333,-8.064541
833,1778427644640,2.7915654,-2.0456681,0.1195801399999999,4.736191,2.2919664,-8.204531
834,1778427644650,2.730281,-2.0782921,0.06079623,4.550488,2.0158553,-8.324566
835,1778427644660,2.6510691333333334,-2.0941873166666665,0.0314347606666666,4.419737333333333,1.7899624333333335,-8.383310833333333
836,1778427644670,2.5386846,-2.0846338,0.01097625,4.224744,1.4259121,-8.464455
837,1778427644680,2.4895007999999996,-2.077054942857143,0.0004704107142857,4.09319,1.2157091,-8.49608857142857
838,1778427644690,2.4813035,-2.0757918,-0.0012805625,4.0405684,1.1316279,-8.508742
839,1778427644700,2.3866331666666665,-2.040677966666667,-0.0178973862499999,4.0405684,1.1316279,-8.508742
840,1778427644710,2.3676991,-2.0336552,-0.021220751,3.9485021714285713,1.0174833457142858,-8.507607714285715
841,1778427644720,2.3676991,-2.0336552,-0.021220751,3.8794525000000006,0.93187493,-8.506757
842,1778427644730,2.3676991,-2.0336552,-0.021220751,3.8794525000000006,0.93187493,-8.506757
843,1778427644740,2.3676991,-2.0336552,-0.021220751,3.8794525000000006,0.93187493,-8.506757
844,1778427644750,2.3676991,-2.0336552,-0.021220751,3.8794525,0.93187493,-8.506757
845,1778427644760,2.3676991,-2.0336552,-0.021220751,3.8794525000000006,0.93187493,-8.506757
846,1778427644770,2.3676991,-2.0336552,-0.021220751,3.7125335000000006,0.6169739,-8.480031
847,1778427644780,2.3676991,-2.0336552,-0.021220751,3.7125335000000006,0.6169739,-8.480031
848,1778427644790,2.3676991,-2.0336552,-0.021220751,3.7125335000000006,0.6169739,-8.480031
849,1778427644800,2.3676991,-2.0336552,-0.021220751,3.6215146,0.2762638,-8.489958
850,1778427644810,2.351879357142857,-2.005247642857143,-0.0192955514285714,3.6215146,0.2762638,-8.489958
851,1778427644820,2.2569609,-1.8348023,-0.0077443539999999,3.6215146,0.2762638,-8.489958
852,1778427644830,2.2569609,-1.8348023,-0.0077443539999999,3.4607807666666672,-0.5011895083333333,-8.607803833333334
853,1778427644840,2.2543387,-1.7265642,-0.08030956,3.428634,-0.65668017,-8.631373
854,1778427644850,2.2543387,-1.7265642,-0.08030956,3.428634,-0.6566801700000001,-8.631373
855,1778427644860,2.2543387,-1.7265642,-0.08030956,3.3015739666666666,-0.7990117466666667,-8.685485666666667
856,1778427644870,2.2943005666666667,-1.8941349333333335,-0.0431935766666666,3.0474538999999994,-1.0836749,-8.793711
857,1778427644880,2.267379685714286,-1.8517544,-0.0268308352857142,3.404810114285714,-0.4721551857142857,-8.623650285714286
858,1778427644890,1.8484513,-1.6880253166666668,-0.0905235799999999,3.2919018999999996,-0.6602944333333334,-8.582351333333333
859,1778427644900,-0.0393315714285714,-2.264226142857143,0.1617777285714285,2.4707754857142854,-1.511498785714286,-7.101112142857143
860,1778427644910,-3.1178039500000003,-4.0480715,0.99719232,0.8551095333333333,-2.7276659333333337,-3.3811392
861,1778427644920,-3.2435124,-4.06651775,0.84971422,0.96926495,-1.6118188,-1.0703886333333337
862,1778427644930,-3.3452459833333332,-4.014096,0.6570098833333333,0.7263696749999999,-1.037427366666667,-0.1961386516666666
863,1778427644940,-3.034732857142857,-3.786928228571429,0.5695541428571428,-0.2282236128571428,0.4961534571428571,2.091777140857143
864,1778427644950,-2.7350783333333335,-3.634114366666666,0.5602969083333332,-0.5416593,1.0374018833333334,2.94854475
865,1778427644960,-2.359345,-3.4871547,0.54027545,-1.3471106,2.531731,5.42204
866,1778427644970,-1.7943222499999998,-3.3038106166666665,0.348902475,-1.6544521,3.18433875,6.793432500000001
867,1778427644980,-1.1697024142857142,-3.071729714285714,0.1000232571428571,-2.0431915857142857,3.612547971428571,7.756090714285715
868,1778427644990,-0.5343401016666667,-2.8386209166666667,-0.13976425,-2.7262916999999995,4.012774,8.589224
869,1778427645000,-0.17385161,-2.7107679999999994,-0.2519659,-3.387989699999999,4.167497285714285,8.86581457142857
870,1778427645010,-0.0619548349999999,-2.6633872,-0.254466065,-3.800294583333333,4.084346883333333,9.021206833333332
871,1778427645020,0.2352677983333333,-2.569357233333333,-0.1340423716666667,-4.7135887,3.5873063,9.40091
872,1778427645030,0.484896195,-2.5353307833333334,0.0297883233333333,-4.71967225,3.203530016666667,9.561237
873,1778427645040,0.8693800000000002,-2.5599053,0.17671762,-4.567199757142857,2.3415773285714288,9.816234
874,1778427645050,1.1784427333333334,-2.61379075,0.2383777383333333,-4.3275223,1.7421877,9.881814
875,1778427645060,1.4573412,-2.6653996,0.29056573,-3.908446742857143,0.8986045371428572,9.897588
876,1778427645070,1.6575052,-2.705747433333334,0.2727293383333333,-3.585779,0.18035796,9.893268
877,1778427645080,1.741094542857143,-2.7216745714285717,0.2594925042857142,-3.554254,0.0779507657142857,9.882905142857144
878,1778427645090,2.2171067285714288,-2.807141,0.2201696314285714,-3.147286857142857,-1.5391186714285714,9.693646571428571
879,1778427645100,2.4997191,-2.8372998,0.2891632,-3.0563115999999995,-1.9077321,9.663278
880,1778427645110,2.6434034142857143,-2.8382405142857143,0.3707533171428571,-2.9078713428571428,-2.1639028714285713,9.641941142857144
881,1778427645120,2.7795525,-2.827299,0.44045252,-2.705675,-2.1218405,9.685726
882,1778427645130,2.828671166666666,-2.7798878333333334,0.4942259783333333,-2.5264622833333332,-1.7835483,9.627999666666668
883,1778427645140,2.7918093,-2.69845,0.53600687,-2.3707680000000004,-1.5167783,9.554238
884,1778427645150,2.74875795,-2.6692105,0.541098635,-2.2957079,-1.4598151499999998,9.5112485
885,1778427645160,2.60621905,-2.62609825,0.487254035,-1.998191133333333,-1.4014266666666666,9.339366
886,1778427645170,2.4356298,-2.6057618,0.3228847,-1.77967955,-1.5498669166666668,9.211033666666664
887,1778427645180,2.3683263714285716,-2.6334812999999997,0.2015971299999999,-1.7143933714285713,-2.077596342857143,9.163764142857143
888,1778427645190,2.3337338,-2.6952183,0.15378946,-1.7380643000000002,-2.3663392,9.227577
889,1778427645200,2.3601985,-2.762844,0.15531394,-1.8350391,-2.4944682,9.478491
890,1778427645210,2.4268400714285714,-2.7811378285714285,0.1479441742857143,-1.9734001000000003,-2.290592,9.66511
891,1778427645220,2.4523788,-2.7853047666666666,0.14429704,-2.0228802333333333,-2.161852166666667,9.723447666666669
892,1778427645230,2.6166059333333336,-2.7349868500000003,0.1177406126666666,-2.3062709,-1.7611755,9.8947955
893,1778427645240,3.0703823333333333,-2.5709224666666666,0.0840902733333333,-3.3244814666666667,-1.0053060833333334,10.133465833333334
894,1778427645250,3.2599637142857145,-2.502393414285714,0.1156339242857142,-3.917129871428571,-0.7623816571428572,9.886592142857143
895,1778427645260,3.535633166666667,-2.3845292500000004,0.2455224516666666,-4.703866083333333,-0.4950807833333333,9.370164
896,1778427645270,3.621919000000001,-2.26562,0.41697556,-5.26688,-0.4636467,8.990409
897,1778427645280,3.9163465333333334,-2.16204685,0.5823205699999999,-5.734192066666666,-0.7268787200000001,8.677289666666667
898,1778427645290,4.501462,-1.9397269166666664,0.86316005,-6.1779857,-0.9411906,8.348084
899,1778427645300,4.913914416666667,-1.7274278833333334,1.071688483333333,-6.893868833333333,-0.6057492658333333,7.455686766666666
900,1778427645310,5.2235365,-1.5414923,1.3642869,-7.487681,-0.088422745,6.6436176
901,1778427645320,5.26549,-1.458012,1.9909698,-8.267552666666667,0.9266317091666666,5.246390433333333
902,1778427645330,5.07842625,-1.4118609,2.64056055,-8.465804,1.4305955500000005,4.184376016666667
903,1778427645340,4.7528386,-1.2965391,3.5366696999999996,-8.142529,1.6300939,3.1170926
904,1778427645350,4.62076785,-1.2008017666666666,3.82362745,-7.6361465,1.5141567333333334,2.768772183333333
905,1778427645360,4.4127575666666665,-0.9324527666666668,4.131602733333334,-6.4419303999999995,0.9384417,2.318742566666667
906,1778427645370,4.639783,-0.5511907,4.4711146,-4.9403726,-0.1663589933333333,2.1427115333333333
907,1778427645380,5.102279500000001,-0.44594065,4.6410328000000005,-3.3426036,-1.038470936666667,1.8905006
908,1778427645390,6.187373083333333,0.04037838,5.317637666666666,-1.7331774,-1.3785701999999995,1.4097242
909,1778427645400,6.432265357142858,0.0528776548571428,5.071263,-0.65312402,0.0892081314285714,-0.3332051942857142
910,1778427645410,6.3722822500000005,-0.1601109666666666,4.536260733333333,0.2975422866666666,2.4049254999999996,-3.2775974333333333
911,1778427645420,5.269881,-0.8002906,4.1793294,0.57009,3.2728631,-4.4742823
912,1778427645430,4.0746384,-1.1564089666666666,3.940250333333333,1.4262176666666668,3.8516071,-4.712647116666666
913,1778427645440,3.2040894,-1.2515364000000002,3.624175,2.4943156,4.3989935,-4.4090724
914,1778427645450,3.0716021333333337,-1.2446254,3.409406333333333,2.8188378000000003,4.53445275,-4.213442700000001
915,1778427645460,3.043968233333333,-1.216127883333333,2.6500733666666667,3.953876166666667,4.960938316666667,-3.4542647
916,1778427645470,3.1716485,-1.185557,2.1792734,4.375475,5.1185927,-3.2119296
917,1778427645480,3.1716485,-1.185557,2.1792734,4.375475,5.1185927,-3.2119296
919,1778427645500,3.1716485,-1.185557,2.1792734,4.375475,5.1185927,-3.2119296
920,1778427645510,3.1716485,-1.185557,2.1792734,4.375475,5.1185927,-3.2119296
921,1778427645520,3.4538603,-1.2641591,1.8425466,4.6547933,4.978857,-3.7824776
922,1778427645530,3.1133930999999997,-1.8025848666666668,1.369063666666667,5.7636154333333325,4.040466533333333,-5.961485
923,1778427645540,2.8028467,-2.0457902,1.0346946,6.2465553,3.4596353,-6.579477
924,1778427645550,2.721622383333333,-2.0873068666666668,0.9245052033333332,6.2663574833333335,3.419547283333334,-6.610122
925,1778427645560,2.559983885714286,-2.147616514285714,0.6608399571428573,6.3278003428571425,3.031920742857143,-6.867543514285715
926,1778427645570,2.537038,-2.1471984,0.6056451,6.276742333333334,2.966310866666667,-6.897025199999999
927,1778427645580,2.49249904,-2.11719656,0.509737068,5.9395957,2.8554895,-7.0394583
928,1778427645590,2.418904214285714,-2.092813728571429,0.4354261114285714,5.7894536714285705,2.8015588428571427,-7.146141728571429
929,1778427645600,2.3890826166666668,-2.085782083333333,0.3741376866666666,5.664400833333334,2.7382288166666666,-7.237989550000001
930,1778427645610,2.3852003,-2.0849385,0.3635578,5.644395,2.7273605,-7.252803
931,1778427645620,2.239897,-2.04583085,0.2370869933333333,5.377599516666667,2.44167925,-7.459275666666667
932,1778427645630,2.1490889,-2.0183494,0.199036,5.2274795,2.213012,-7.5579305
933,1778427645640,2.07388115,-1.9911629,0.18008165,5.128086333333333,1.9433405,-7.597763833333333
934,1778427645650,2.0588396,-1.9857256,0.17629078,5.1082077,1.8894062,-7.6057305
935,1778427645660,2.0699901142857144,-1.9367680571428572,0.1731198657142857,5.009182014285714,1.4594225428571428,-7.612275542857143
936,1778427645670,2.1673825,-1.8292531,0.15653352,4.732984,0.56199604,-7.634594
937,1778427645680,2.2511578333333335,-1.74293705,0.1513706183333333,4.54835,0.34605515,-7.7537127
938,1778427645690,2.3087933,-1.6960136,0.16336319,4.511010833333334,0.3155118899999999,-7.7894483
939,1778427645700,2.3087933,-1.6960136,0.1633631899999999,4.305618142857143,0.1440114834285714,-7.985514114285715
940,1778427645710,2.29405655,-1.6887367166666667,0.2071157283333333,4.1342595,-0.0342339093333333,-8.141637666666666
941,1778427645720,2.2818403,-1.6258875999999998,0.22135438,4.126624,-0.1383355266666666,-8.200612000000001
942,1778427645730,2.21705005,-1.61018535,0.2008755383333333,4.169333166666667,-0.3406846366666667,-8.354396666666668
943,1778427645740,2.037984742857143,-1.5932461857142857,0.1673006985714285,4.239884571428571,-0.5730788742857141,-8.481253285714285
944,1778427645750,1.88031295,-1.56121915,0.1011034583333333,4.258163466666667,-0.9257408666666668,-8.62979525
945,1778427645760,1.647543842857143,-1.554071557142857,0.0134763959428571,4.2164974,-1.1097895,-8.726974
946,1778427645770,1.3803505714285715,-1.6190143714285714,-0.0247052753428571,4.1126502857142855,-1.1302098142857144,-8.821178
947,1778427645780,1.0446951,-1.7330279,-0.07262619,3.853337999999999,-1.0790935,-9.086315
948,1778427645790,0.32879966,-1.9390156,-0.2001946,3.5526395,-0.9277516,-9.293093
949,1778427645800,-0.2697819916666666,-2.1891317333333333,-0.3347349766666667,3.1900400333333336,-0.9530261366666668,-9.2580445
950,1778427645810,-0.67272216,-2.4037988,-0.42636633,2.4972172,-1.1705705,-9.141446
951,1778427645820,-1.3796231666666667,-2.890900333333333,-0.3894231533333334,1.7070374833333333,-1.51186605,-8.794015833333335
952,1778427645830,-1.9304175,-3.146708,-0.14952092,1.1044444,-1.7789923,-8.083885
953,1778427645840,-2.4375813,-3.2604342,0.22086655,1.0802279714285714,-1.8990273571428573,-7.371005285714285
954,1778427645850,-2.8533575333333334,-3.44180645,0.34975617,1.196685,-2.0092885,-6.117663
955,1778427645860,-3.0732892,-3.5297182,0.41093862,1.1751774166666666,-1.833283,-5.103626583333334
956,1778427645870,-3.1019842,-3.571192814285714,0.4436321571428571,1.1411616714285715,-1.6362244,-4.4418194714285715
957,1778427645880,-3.1563426285714287,-3.7213583,0.4533017342857142,0.9762717428571428,-0.6627669714285714,-2.3598161
958,1778427645890,-3.1388520166666667,-3.733205700000001,0.3360663583333333,0.7208209933333333,0.0124463786666666,-1.062880066666667
959,1778427645900,-2.9537089428571432,-3.6431392714285713,0.0886811414285714,0.23884831,0.8567385,0.5841399
960,1778427645910,-2.8320553,-3.5699642,-0.02713573,-0.34315357,1.6001616000000003,2.0418172
961,1778427645920,-2.80509235,-3.548641833333333,-0.0454193149999999,-0.4281911083333333,1.688787933333333,2.2339343
962,1778427645930,-2.54685584,-3.3565128799999995,-0.178815308,-1.3656504,2.4980724,4.31044876
963,1778427645940,-2.3617232,-3.2282372,-0.24178241,-1.4937183,2.5896106,4.589431
964,1778427645950,-2.107805866666667,-3.1288006,-0.2947936233333333,-1.9200004333333336,2.8479046666666665,5.388340666666667
965,1778427645960,-1.7232407333333333,-2.9849303833333334,-0.34952242,-2.4945955,3.1640019,6.165793783333332
966,1778427645970,-0.7854203714285715,-2.6879354571428573,-0.3640282242857143,-3.946320371428571,3.8590757142857144,7.574969142857143
967,1778427645980,-0.3462803571666666,-2.644005866666667,-0.3590555183333333,-4.448321,3.961613999999999,8.090452
968,1778427645990,0.0572187813333333,-2.6605212000000003,-0.3790464933333333,-4.830365883333333,3.7544796333333337,8.40632
969,1778427646000,0.27617463,-2.6897911999999997,-0.3835589599999999,-5.2079315,3.3241758,8.677188
970,1778427646010,0.401230718,-2.69749888,-0.361362536,-5.3056089,3.05521188,8.736685999999999
971,1778427646020,0.58881485,-2.7090604,-0.3280679,-5.452125,2.651766,8.825933
972,1778427646030,1.1966552375,-2.7744605499999997,-0.104289617,-5.561508,1.19427975,8.8478105
973,1778427646040,1.5716770999999998,-2.7657710333333334,0.1246210886666666,-5.2851553,-0.6686429333333334,8.84599
974,1778427646050,1.861866783333333,-2.719904716666667,0.3820548083333333,-4.745863033333333,-1.9728657333333333,8.841638166666668
975,1778427646060,2.1596992,-2.7405868,0.5778996,-4.2169557,-2.6505444,8.823949
976,1778427646070,2.2005857166666667,-2.7246407666666665,0.5986934899999999,-3.94102275,-2.7972284166666666,8.814251333333333
977,1778427646080,2.4050183,-2.6449106,0.7026629400000001,-2.561358,-3.5306485,8.765763
978,1778427646090,2.3939202,-2.6307023,0.6508306,-2.2162192,-3.4335208,8.849605
979,1778427646100,2.398392,-2.6107825666666664,0.5245224333333334,-2.0608557333333333,-2.9638672000000006,9.109731666666669
980,1778427646110,2.4690466,-2.5827421,0.281022485,-2.169487833333333,-2.238693816666667,9.415673333333332
981,1778427646120,2.483594457142857,-2.5834694,0.2250218328571428,-2.6991952571428572,-1.5175638142857142,9.526094142857144
982,1778427646130,2.4625828,-2.593017,0.2086097299999999,-3.4694092,-0.7443393,9.496205
983,1778427646140,2.4625828,-2.593017,0.2086097299999999,-3.4694092,-0.7443393,9.496205
984,1778427646150,2.4625828,-2.593017,0.2086097299999999,-3.4694092,-0.7443393,9.496205
985,1778427646160,2.252674971428571,-2.634622385714286,0.3119171528571428,-3.775278128571428,-0.5241005571428572,9.436428571428571
986,1778427646170,2.0540223,-2.7561058499999995,0.429689705,-4.437681433333333,-0.43793949,9.264891666666664
987,1778427646180,2.1433568,-2.8446170999999993,0.44215995,-4.7273586666666665,-1.340162,9.242849333333334
988,1778427646190,2.4394717333333333,-2.8063832333333334,0.4288461533333333,-4.6326494,-1.7918205,9.342421
989,1778427646200,2.764592333333333,-2.663509133333333,0.4196382866666666,-4.7270788,-1.8993836333333336,9.147147
990,1778427646210,2.9006570000000003,-2.555332,0.3925229,-4.8530188,-1.7318029,8.887631
991,1778427646220,3.0018215000000006,-2.3662968,0.2373919,-5.324607,-1.560608,8.377559
992,1778427646230,3.0274936999999995,-2.2089703,0.23080614,-5.967237,-1.5008959,7.8803144
993,1778427646240,3.1042766166666667,-2.1059663,0.2967144733333333,-6.307183666666667,-1.5269595,7.645844133333334
994,1778427646250,3.6644415,-2.0270186833333335,0.5184042233333334,-7.233738866666666,-1.7205274166666669,7.056944333333334
995,1778427646260,3.8443098,-2.0031657,0.58814406,-7.6865172,-1.8147279,6.742883
996,1778427646270,4.2222787166666675,-1.9413227,0.7793645516666667,-8.475756,-1.6565138,5.991214
997,1778427646280,4.5530705,-1.9051111,1.2394626,-9.461387,-1.0360274,4.9533534
998,1778427646290,4.5577455,-1.9249802666666664,1.5550805166666668,-9.928825333333334,-0.5822054833333333,4.3960664
999,1778427646300,4.341769,-1.9960311714285712,2.323820242857143,-10.594847,0.75243324,3.072194
1000,1778427646310,4.203375266666666,-2.0073529666666663,2.719244,-10.521644666666669,0.8643743266666667,2.8974356666666665
