id,timestamp,acc_x,acc_y,acc_z,gyro_x,gyro_y,gyro_z
0,1778427203630,-0.4257565399999999,0.30562758,0.6779664,0.295903118,-0.59030964,-0.402132588
1,1778427203640,-0.419353715,0.295413555,0.705305375,0.10476339,-0.6907358766666668,-0.2602794933333333
2,1778427203650,-0.430299475,0.291145025,0.758824765,-0.0193440666666666,-0.5152648266666667,-0.1267036299999999
3,1778427203660,-0.4497562071428572,0.2932314,0.8371481742857142,-0.0867210485714285,-0.2975568214285714,-0.0228856288571428
4,1778427203670,-0.442800225,0.3056276,0.8687092499999999,-0.0970766666666666,-0.0962112766666666,0.0444404466666666
5,1778427203680,-0.3880714171428571,0.3428858685714285,0.8932489714285714,-0.0773398992857142,0.2364484771428571,0.1095848605714285
6,1778427203690,-0.33619847,0.3787212866666666,0.88574272,-0.040927971,0.4505131049999999,0.073303828
7,1778427203700,-0.2879871828571428,0.4360446142857143,0.8148036599999999,-0.0003490654285714,0.4736605414285714,-0.0889899737142857
8,1778427203710,-0.31989673,0.48258913,0.63174415,0.0426333066666666,0.3194825216666667,-0.4268929866666666
9,1778427203720,-0.42818558,0.458299105,0.5103448083333334,-0.0336994,-0.0239510083333333,-0.620613625
10,1778427203730,-0.439111,0.41514617,0.4024625,-0.2637410642857142,-0.4426155042857142,-0.7151050385714285
11,1778427203740,-0.47807668,0.39580561,0.4134285966666666,-0.449673175,-0.6679048000000001,-0.72799865
12,1778427203750,-0.5130178,0.34575188,0.45911217,-1.0013609,-1.258077,-0.66416323
13,1778427203760,-0.5318777285714286,0.2812010728571428,0.5372961914285714,-1.2543245428571428,-1.4215924999999998,-0.55529833
14,1778427203770,-0.5658866666666666,0.2154190766666666,0.6286952,-1.5490524666666667,-1.5241597,-0.28491773
15,1778427203780,-0.5739969166666667,0.2148296133333333,0.6036734133333334,-2.0906353666666666,-1.8574375333333333,0.1824959966666667
16,1778427203790,-0.51393245,0.18193135,0.563813385,-2.5798365999999997,-2.0124192,0.6224717000000001
17,1778427203800,-0.2791887742857142,0.0097653788571428,0.4690169428571428,-3.682906628571428,-2.3589870285714283,1.4047501142857144
18,1778427203810,-0.15580177,-0.031282313,0.4978949,-4.466036,-2.63344,1.8625281
19,1778427203820,-0.10986413,0.0077850076666666,0.5938761266666667,-4.765258,-2.8791096666666665,2.0321450999999997
20,1778427203830,-0.0850252833333333,0.1854579893333333,0.9040364466666664,-4.720104733333334,-2.825098966666667,2.2189680000000003
21,1778427203840,-0.0931964933333333,0.3057902166666666,1.1458391666666663,-4.331594466666667,-2.444428133333333,2.2958352000000004
22,1778427203850,-0.08765755,0.377156155,1.4115153000000005,-2.99835575,-1.3467288,2.3461807
23,1778427203860,0.0935246257142857,0.1797143257142857,1.3385711571428571,-1.0271263000000002,-0.2546871628571429,2.096096857142857
24,1778427203870,0.177113995,0.0122568149999999,1.21626,-0.31016684,-0.25923593,1.48318085
25,1778427203880,0.2115715828571428,-0.1186654671428571,1.009727882857143,0.45413468,-0.6398595357142857,0.1734420971428571
26,1778427203890,0.1032987128999999,-0.0480820774999999,0.994021415,0.74413568,-0.99245244,-0.6981680866666666
27,1778427203900,-0.1131062006999999,-0.0723721041666666,1.0267570666666666,1.07260302,-1.24471435,-1.438664
28,1778427203910,-0.1210030033333333,-0.0877998333333333,0.9926493833333332,1.205364433333333,-1.1185961,-1.5130622666666664
29,1778427203920,-0.0589581428571428,-0.0800743557142857,0.7865703142857143,1.1921035714285717,-0.6541275914285715,-1.2903219142857143
30,1778427203930,-0.0589058733333333,-0.0663453319999999,0.7605118666666667,1.0595967,-0.5964590133333334,-1.14206348
31,1778427203940,-0.0420146449999999,-0.009909115,0.7124196,0.7780895999999999,-0.56947911,-0.851927935
32,1778427203950,-0.0236802441666666,0.049230516,0.7233247500000001,0.56214872,-0.9794715666666668,-0.54652077
33,1778427203960,0.0529299164285714,0.0655177571428571,0.6850399714285714,0.3933753985714286,-1.5211418,-0.1966986057142857
34,1778427203970,0.1466636142857142,0.0438614457142857,0.6122656928571428,0.2919935914285714,-1.8635970571428568,-0.0750055234285714
35,1778427203980,0.27086946,-0.010793312,0.5155179,0.1055487899999999,-2.467742857142857,-0.0150970981428571
36,1778427203990,0.2932691466666666,-0.0247372156666666,0.4860649566666666,-0.0500909466666666,-2.8631254,-0.050345476
37,1778427204000,0.31631926,-0.0814071876666666,0.3837825566666666,-0.5072217600000001,-3.635768,-0.2303470953333333
38,1778427204010,0.2842761657142857,-0.1189703485714285,0.3392706714285714,-0.8074765928571429,-3.889946242857143,-0.3645120142857143
39,1778427204020,0.2569052466666666,-0.2139149216666666,0.2816119533333333,-1.19828855,-4.040873650000001,-0.45226936
40,1778427204030,0.273552565,-0.2902506783333333,0.2630641333333333,-1.6324610000000002,-4.13479425,-0.42050436
41,1778427204040,0.28414261,-0.3154147466666666,0.2624645066666666,-1.885741,-4.13344535,-0.3121521283333333
42,1778427204050,0.3425548214285714,-0.4306087428571428,0.2380278257142856,-2.797806542857143,-3.2316954571428576,0.0946841157142857
43,1778427204060,0.378284265,-0.5108224899999999,0.24568506,-3.57017645,-1.997682016666667,0.2701296883333333
44,1778427204070,0.5544124083333334,-0.6738705899999999,0.24820553,-4.139884716666667,-0.9814822833333332,-0.07035132
45,1778427204080,0.603399025,-0.80819755,0.4264374666666666,-4.7779842,-0.5283475333333333,-0.5028439033333334
46,1778427204090,0.52314025,-0.9006623,0.79492444,-5.422498216666667,-0.24490605,-0.771828225
47,1778427204100,0.5659476833333333,-0.9109475,0.95212868,-5.4854174,-0.22953261,-0.8932376999999999
48,1778427204110,0.6381992857142856,-0.9185466428571428,1.1331932285714286,-5.436068214285714,-0.33261612,-0.9789115285714284
49,1778427204120,0.7153466,-0.9314568,1.4186803,-4.9910236333333335,-1.2089532166666668,-1.4272102999999998
50,1778427204130,0.67930794,-0.9715811,1.7394918,-4.380449271428572,-2.1537799285714287,-1.5695528142857142
51,1778427204140,0.64537302,-0.99832045,1.89065915,-3.90022195,-2.5657104,-1.5711454
52,1778427204150,0.5565568333333334,-1.0249379333333335,2.1893961666666666,-2.9384655,-2.832785833333334,-1.4570154000000002
53,1778427204160,0.4693972800000001,-1.0212182,2.321680133333333,-2.3155357000000003,-2.6376143333333335,-1.297019666666667
54,1778427204170,0.2756345414285714,-0.9841079428571428,2.4198799142857146,-1.5680693571428572,-2.0259782285714287,-0.9485428685714286
55,1778427204180,0.1402724126666666,-0.9397092666666668,2.4296132,-0.4415028666666666,-1.0800097583333332,-0.20937407
56,1778427204190,0.0732272662857142,-0.8849993228571428,2.3472013714285715,0.2334377799999999,-0.6591890471428572,0.33951017
57,1778427204200,0.10171325,-0.8169379,2.2408016,0.8155050899999999,-0.4839579866666666,0.78470732
58,1778427204210,0.1276032614285714,-0.7701407400000001,2.2019838857142857,1.3896966142857143,-0.4557054685714285,1.17336306
59,1778427204220,0.23440392,-0.6814421999999999,2.0637178,2.147395033333334,-0.6270022533333334,1.5931875
60,1778427204230,0.29928576,-0.673911275,2.0171298,2.6676485500000005,-0.828867775,1.83282485
61,1778427204240,0.4129509,-0.6620101833333334,1.9611916333333337,3.1894802,-1.0988702,2.00745595
62,1778427204250,0.48992404,-0.6758059785714285,1.9424565142857144,3.744014971428572,-1.369298057142857,2.1511401285714284
63,1778427204260,0.6218858666666667,-0.68766205,1.9187907666666668,4.2178972833333335,-1.5119169666666668,2.2429952500000003
64,1778427204270,0.8165314333333334,-0.7256419583333334,1.8222202166666663,4.717356083333334,-1.31768725,2.189162833333333
65,1778427204280,0.9262430833333334,-0.746466315,1.65277935,5.094769,-0.8312349,2.0606012
66,1778427204290,0.9611537,-0.7498608,1.5203327,5.152343,-0.651182365,2.00928855
67,1778427204300,0.99392558,-0.7298944542857144,1.4089498142857142,5.218469,-0.2773110071428571,1.8951440142857143
68,1778427204310,1.0437499266666668,-0.6868286633333334,1.3567965833333335,5.1887405,-0.0065922541666666,1.7785341833333332
69,1778427204320,1.0847584,-0.63863486,1.3961180000000002,5.2015176,0.107359566,1.5590808
70,1778427204330,1.0915183999999998,-0.6317006542857142,1.419743142857143,5.358727971428571,0.025285458,1.4082844285714289
71,1778427204340,1.1463474,-0.5791801,1.4512431999999995,5.618738699999999,-0.18112154,1.202641
72,1778427204350,1.175658,-0.5466985666666666,1.4035575333333334,5.901111,-0.32146785,0.9083566
73,1778427204360,1.2080989,-0.4735744083333333,1.2994254333333333,5.942497166666667,-0.3122539666666666,0.8235481533333333
74,1778427204370,1.2159855,-0.3724607499999999,1.1643362,6.0108885,-0.102549,0.35995236
75,1778427204380,1.2248275,-0.2759103916666667,1.0741378666666668,5.987471983333333,-0.036422835,0.2672790083333333
76,1778427204390,1.2126927,-0.1615773685714285,1.0072277714285711,5.710892042857142,0.2143046185714285,-0.1328195571428571
77,1778427204400,1.1983017,-0.011403104,0.9868259,5.533802783333333,0.2400191333333333,-0.40429099
78,1778427204410,1.2029767666666666,0.0275829106666666,0.9834314,5.4570881,0.152487235,-0.59024854
79,1778427204420,1.21442454,0.135971352,0.973861736,5.36938312,-0.011545352,-0.8858157160000001
80,1778427204430,1.2116255833333331,0.228803995,0.94855129,5.29597265,-0.176921845,-1.22425035
81,1778427204440,1.183596914285714,0.2466607414285714,0.9225015457142856,5.2116185999999995,-0.2518728342857143,-1.5471471714285714
82,1778427204450,1.047866,0.25647837,0.8812099,5.008967733333333,-0.27822368,-2.0840687
83,1778427204460,0.93999386,0.24196534,0.8841369,4.8650837,-0.23930646,-2.324495
84,1778427204470,0.8573671183333333,0.2233158733333333,0.9021258416666668,4.782998533333333,-0.2050725516666666,-2.4825564166666667
85,1778427204480,0.7744760700000001,0.2064754549999999,0.9180210633333332,4.752633433333333,-0.2106467033333333,-2.5930721
86,1778427204490,0.717267465,0.19601753,0.925877175,4.7574696,-0.2574288,-2.6805276333333334
87,1778427204500,0.6519486333333334,0.1804373533333333,0.9256230866666668,4.803081,-0.395687955,-2.83502565
88,1778427204510,0.5735293666666667,0.1457605333333333,0.8975320666666667,4.83176605,-0.459574275,-2.912860066666666
89,1778427204520,0.4616733,0.09457869,0.8396832,4.8988338,-0.5253695666666666,-3.1103729833333333
90,1778427204530,0.3881933833333333,0.0639874733333333,0.7988271166666666,4.91280745,-0.54405185,-3.1610748500000003
91,1778427204540,0.2691722166666666,0.0263633275,0.7388236083333334,4.890409099999999,-0.5288565833333333,-3.2109622000000004
92,1778427204550,0.13634941,-0.012988563,0.68863773,4.834692866666667,-0.4832453066666667,-3.173394066666667
93,1778427204560,0.055938221,-0.0037705456666666,0.6600893266666666,4.722064516666666,-0.4489095883333333,-3.0652709
94,1778427204570,-0.045002624,0.023476979,0.6565627,4.5619416,-0.45906523,-2.9068022
95,1778427204580,-0.0708090096,0.0167448789999999,0.6893939,4.54608964,-0.45753807,-2.88111532
96,1778427204590,-0.083358523,-0.00655526,0.7184870499999999,4.4826818,-0.4514294299999999,-2.7783678
97,1778427204600,-0.08945644,-0.028172374,0.7393724,4.537227033333333,-0.495055375,-2.5894832666666665
98,1778427204610,-0.150749212,-0.1186218999999999,0.6945004514285714,4.6821074000000005,-0.5388704000000001,-2.4140521428571424
99,1778427204620,-0.2066279,-0.1216331133333333,0.6117531933333334,4.7926959,-0.62893666,-2.2728768
100,1778427204630,-0.222537364,-0.121885162,0.57730199,4.8554319800000005,-0.694920296,-2.11857226
101,1778427204640,-0.2443435133333333,-0.1009001966666666,0.43124467,4.8380527,-0.7405214,-1.8487836
102,1778427204650,-0.2406237999999999,-0.07549221,0.35428897,4.794172233333334,-0.7248425333333334,-1.7582738000000002
103,1778427204660,-0.21844771,-0.0671380643333333,0.3319705966666667,4.705342266666666,-0.6522513666666666,-1.6186401666666663
104,1778427204670,-0.1588333042857142,-0.0331291107142857,0.2110750328571428,4.641790428571428,-0.5841835171428571,-1.5603679428571429
105,1778427204680,-0.1720019,-0.0257332086666666,0.1731198553333333,4.594317466666667,-0.54514632,-1.5521067000000002
106,1778427204690,-0.2590191916666667,-0.0105595595,0.0262312055833333,4.4423140000000005,-0.38245254,-1.4726942333333335
107,1778427204700,-0.2630234883333333,0.0083541461666666,-0.07775859575,4.283387,-0.14034629,-1.3344351
108,1778427204710,-0.2528602866666666,0.0366891326666666,-0.18592548,4.195117,-0.0528907486666666,-1.2921835666666668
109,1778427204720,-0.2664789766666666,0.0735307133333333,-0.317112,4.0449715,0.0152716311666666,-1.2476413833333335
110,1778427204730,-0.28495566,0.08421223,-0.3757536333333333,3.958864933333333,0.0422515133333333,-1.2202033333333333
111,1778427204740,-0.34545713,0.10692697,-0.5613538766666667,3.5854735000000004,0.2322815,-1.0648909
112,1778427204750,-0.35160586,0.10915271,-0.5818632,3.5854735000000004,0.2322815,-1.0648909
113,1778427204760,-0.340629616,0.148045232,-0.736372224,3.2717332,0.3971234899999999,-0.945680524
114,1778427204770,-0.3690865866666666,0.20629253,-0.9575762316666668,2.894686866666667,0.4767803166666666,-0.84319768
115,1778427204780,-0.39406772,0.2179395466666666,-1.0162178533333333,2.7361164,0.4588106999999999,-0.8076147800000001
116,1778427204790,-0.443684415,0.24272758,-1.1534209,2.329178333333333,0.4972952333333333,-0.6412558133333333
117,1778427204800,-0.4533801033333333,0.2609298533333333,-1.2723303,2.0543399,0.5464698866666667,-0.5201517666666667
118,1778427204810,-0.4391516399999999,0.2560108666666666,-1.3961078333333334,1.6550375833333335,0.6540585383333334,-0.3772856416666667
119,1778427204820,-0.4207765833333334,0.2633893333333333,-1.4710309666666668,1.1929688833333334,0.7842237083333333,-0.234775875
120,1778427204830,-0.414892095,0.2668041666666667,-1.491459,1.0628291333333333,0.8167013750000001,-0.194866014
121,1778427204840,-0.3705297433333334,0.3056276,-1.5908652333333333,0.5121595916666667,0.9188940166666668,-0.038968114
122,1778427204850,-0.33294627,0.33672696,-1.647962,0.3059925766666667,0.9044878,-0.0088066412
123,1778427204860,-0.33294627,0.33672696,-1.647962,0.23258694,0.8921687,-0.0013744468
124,1778427204870,-0.3444713166666666,0.4074424783333333,-1.6234992,-0.2223549466666667,0.7387906166666666,0.0021380284
125,1778427204880,-0.3448372,0.5279576,-1.4256319,-0.9013316833333334,0.5173010416666667,0.0254272656666666
126,1778427204890,-0.30898144,0.5378362666666666,-1.3216015,-1.1275045333333331,0.5014694666666667,0.0172569433333333
127,1778427204900,-0.2838986733333333,0.54340571,-1.2416375000000002,-1.3005321,0.5090543833333333,-0.0136426573333333
128,1778427204910,-0.2738574333333333,0.5412510433333333,-1.1008163,-1.5028303,0.5789475333333333,-0.0916297853333333
129,1778427204920,-0.2767641,0.5275917333333333,-1.0182708133333334,-1.7297158666666668,0.7501934333333334,-0.1561269791666666
130,1778427204930,-0.2873541666666666,0.5081597333333333,-0.92659877,-1.9288833333333333,1.0136290666666667,-0.20894136
131,1778427204940,-0.311756,0.498291265,-0.846116435,-2.0522527,1.2224431666666666,-0.2325869466666666
132,1778427204950,-0.3316169,0.496346026,-0.78352132,-2.13164484,1.38455662,-0.2330756339999999
133,1778427204960,-0.3454673166666667,0.4979355533333333,-0.7188224416666666,-2.152231,1.423316,-0.22418754
134,1778427204970,-0.3480691,0.4978949,-0.71126103,-2.152231,1.423316,-0.22418754
135,1778427204980,-0.3592631342857143,0.4882689171428572,-0.7037257514285714,-2.1765565,1.388409357142857,-0.1934261114285714
136,1778427204990,-0.363204134,0.47222268,-0.69672358,-2.22907778,1.3828156,-0.1464243959999999
137,1778427205000,-0.3720542366666666,0.4614090233333334,-0.6857513666666667,-2.374636766666667,1.432988,-0.03822998
138,1778427205010,-0.3829491599999999,0.433927765,-0.6363786,-2.59297025,1.56602935,0.125303735
139,1778427205020,-0.3339015916666666,0.4164978666666667,-0.5455602833333334,-2.7897451333333336,1.7085137,0.2977713583333333
140,1778427205030,-0.3039506533333333,0.419689145,-0.4897338433333333,-2.8528934000000006,1.7146988,0.36942077
141,1778427205040,-0.2471311371428571,0.4514723328571429,-0.4560022114285714,-2.853678714285714,1.611942457142857,0.3980877842857143
142,1778427205050,-0.2272896833333333,0.4735642133333333,-0.4591324733333333,-2.8433740333333333,1.4865405666666665,0.3876958
143,1778427205060,-0.21434178,0.51338362,-0.5010657799999999,-2.8521298499999994,1.09467055,0.341397315
144,1778427205070,-0.2069734633333333,0.4986266749999999,-0.541759225,-2.995784933333333,0.8328129533333333,0.3363322233333333
145,1778427205080,-0.1689122983333333,0.445961,-0.514003575,-3.2591188,0.8390234150000001,0.352163815
146,1778427205090,-0.14787449,0.403987,-0.4420989499999999,-3.7800341,1.067054333333333,0.3692934883333333
147,1778427205100,-0.1452262471428571,0.3920176571428571,-0.4080028957142857,-3.923849142857143,1.1545571571428572,0.3726496085714285
148,1778427205110,-0.0990423679999999,0.34545918,-0.2102195919999999,-4.331095400000001,1.42111688,0.363617542
149,1778427205120,-0.07639819,0.3416401285714285,-0.1467507257142857,-4.461148685714286,1.482482657142857,0.3203115528571428
150,1778427205130,-0.067077088,0.33583666,-0.0199889712,-4.5367436,1.3666582,0.1966986
151,1778427205140,-0.09198708,0.34633118,0.0732359839999999,-4.524271733333333,1.2534445333333333,0.17786359
152,1778427205150,-0.1204033716666666,0.3596347933333333,0.1197834183333333,-4.4726025,0.8341365000000001,0.14813482
153,1778427205160,-0.1784860216666667,0.3253848516666667,0.1887406933333333,-4.436612333333334,0.2804380566666667,0.2655227566666666
154,1778427205170,-0.178034776,0.288577828,0.227647434,-4.4753513,-0.036957346,0.44165558
155,1778427205180,-0.1324975683333333,0.21495156,0.3389730083333333,-4.5785875,-0.0201585526666666,0.6323473266666667
156,1778427205190,-0.096926385,0.19293808,0.39200455,-4.6760968,0.053908857,0.81008365
157,1778427205200,0.0088623066666666,0.2029386733333333,0.5257217,-4.7552802666666665,0.1394299966666666,0.9608910333333333
158,1778427205210,0.0808177266666666,0.24338819,0.6574570333333334,-4.749731866666667,0.0807360266666666,1.0034479666666665
159,1778427205220,0.1205761433333333,0.28129691,0.7218917,-4.698011800000001,-0.0687986999999999,0.987769075
160,1778427205230,0.1675097799999999,0.36117962,0.8383416,-4.5939612,-0.5321145533333334,0.8833111166666666
161,1778427205240,0.1665442716666666,0.3506606866666666,0.85511085,-4.549826433333333,-0.80257515,0.8290968333333333
162,1778427205250,0.2096971949999999,0.2680135916666666,0.89815195,-4.538118,-0.81527605,0.83398377
163,1778427205260,0.2505634,0.23281846,0.9140777,-4.535368883333333,-0.7409795583333333,0.841263255
164,1778427205270,0.2855552783333333,0.2097175283333333,0.9238039083333334,-4.548807966666667,-0.5106833566666668,0.8151996533333333
165,1778427205280,0.3070606,0.16613775,0.934383825,-4.546771866666667,-0.3779728633333333,0.7875071
166,1778427205290,0.332824305,0.14025209,0.9345972,-4.52681685,-0.262290275,0.75044795
167,1778427205300,0.3784976966666666,0.1570823416666666,0.92346845,-4.4868815,-0.3622431,0.71830117
168,1778427205310,0.386876236,0.15766774,0.90635772,-4.42437476,-0.78065526,0.6665455760000001
169,1778427205320,0.3939254266666667,0.1492566766666666,0.8944830566666666,-4.3975935,-1.0597748666666666,0.6422738583333333
170,1778427205330,0.4797231,0.09457869,0.9445673,-4.460461700000001,-1.5190691,0.634994425
171,1778427205340,0.509877325,0.069912615,0.98014865,-4.6670103166666665,-1.5936456666666663,0.6041711666666667
172,1778427205350,0.60037647,0.0018293744,1.11954088,-4.72174388,-1.5402356999999998,0.581299348
173,1778427205360,0.6230648066666666,-0.0522388216666666,1.2372063333333332,-4.8698177,-1.2134838,0.4496731499999999
174,1778427205370,0.62686586,-0.073845774,1.2830627,-4.912578,-1.0482447,0.3849978
175,1778427205380,0.6210931066666666,-0.14092285,1.4056714999999995,-4.744284966666666,-0.7675012666666666,0.21222476
176,1778427205390,0.61216986,-0.16525355,1.3998379000000003,-4.54583015,-0.81512332,0.145233212
177,1778427205400,0.60905993,-0.16110696,1.37541565,-4.309807,-1.0785589699999998,0.100029187
178,1778427205410,0.6123772,-0.157338442,1.3403708399999998,-4.20428,-1.258077,0.08460484
179,1778427205420,0.6637379066666668,-0.1584848566666666,1.2871482,-3.9499564666666664,-1.6128878,0.0601702266666666
180,1778427205430,0.70502082,-0.1719206066666666,1.2871076,-3.92931435,-1.5913803,0.0065668015
181,1778427205440,0.73196345,-0.19516384,1.31285105,-3.980932600000001,-1.3459652,-0.1004873335
182,1778427205450,0.7299511166666667,-0.2281434016666666,1.3759645,-4.041942766666667,-1.08988539,-0.1833613866666666
183,1778427205460,0.6728441,-0.27355254,1.5100272,-4.0446260857142855,-0.7358308200000001,-0.2661627085714285
184,1778427205470,0.6652338999999999,-0.273820856,1.5445658,-4.0350704,-0.6536258,-0.2828306
185,1778427205480,0.6499972500000001,-0.26810508,1.6233061333333332,-3.7656532333333335,-0.6007605333333333,-0.2866230766666667
186,1778427205490,0.6278414899999999,-0.2439979666666666,1.6917247333333332,-3.3260848333333333,-0.6783404166666668,-0.2882520449999999
187,1778427205500,0.5763141,-0.19220634,1.694672,-2.8031079999999995,-0.83658,-0.24266621
188,1778427205510,0.5509569333333334,-0.1736585066666666,1.6867955,-2.6867381,-0.85561861,-0.2178243599999999
189,1778427205520,0.5309659400000001,-0.16555844,1.6920092666666668,-2.32418955,-0.8733082150000001,-0.12667818
190,1778427205530,0.5054563040000001,-0.142093654,1.7119902,-2.00342426,-0.79675154,-0.007055494
191,1778427205540,0.4877723466666667,-0.1101080476666666,1.7251921999999995,-1.801543433333333,-0.7675521766666668,0.07987063
192,1778427205550,0.4059383,0.11378712,1.8228503,-1.2690725166666668,-0.9044878433333332,0.3438153133333333
193,1778427205560,0.42133555,0.1816264533333333,1.8999888833333332,-1.0029898416666667,-1.1019246333333337,0.46805003
194,1778427205570,0.4432575666666666,0.2087316933333333,1.9580817333333336,-0.9561568499999998,-1.1375839,0.48930305
195,1778427205580,0.5271953800000001,0.231751335,2.0925002,-0.6024913083333333,-1.3454053166666666,0.5844962583333333
196,1778427205590,0.5911930240000001,0.2193176859999999,2.14839366,0.0744339276,-1.45208784,0.69241576
197,1778427205600,0.6612886,0.19723712,2.1338135,0.560545235,-1.24456165,0.7106653500000001
198,1778427205610,0.77208773,0.1718392899999999,2.0682304,1.2541317833333332,-0.6896923166666666,0.6234643166666667
199,1778427205620,0.8246212600000001,0.16293633,2.0217643,1.4240796,-0.4865541566666667,0.55899259
200,1778427205630,0.8871859,0.15817997,1.7589137,1.7977255333333335,0.0342084566666666,0.3330742833333333
201,1778427205640,0.8997883066666666,0.1452930366666666,1.5458421999999998,1.9675970000000005,0.332463405,0.163635532
202,1778427205650,0.8981273428571429,0.1337273185714285,1.3964665,2.1202915,0.6652540357142858,-0.1312051308571428
203,1778427205660,0.8626316466666667,0.109762505,1.2563843166666666,2.1437551999999997,0.72364622,-0.24587327
204,1778427205670,0.8018673385714286,0.0898136057142857,1.2081192285714286,2.1528636428571426,0.7497498028571429,-0.4011857485714286
205,1778427205680,0.7084681859999999,0.0679186,1.18253244,2.1464279,0.66920286,-0.46761733
206,1778427205690,0.6944307766666666,0.0621784266666666,1.1928948333333336,2.1464279,0.66920286,-0.46761733
207,1778427205700,0.7076835766666667,0.0299001186666666,1.2575733,2.1956024,0.6055202,-0.46135598
208,1778427205710,0.7384170666666666,0.0031912432666666,1.3335736666666669,2.2995004,0.6429102266666668,-0.4733187516666666
209,1778427205720,0.7607760833333334,-0.0020123124666666,1.381096833333333,2.4964535,0.67179906,-0.50701815
210,1778427205730,0.7816716033333333,0.0059556319333333,1.4171152333333332,2.68200375,0.6390923016666666,-0.5589416916666666
211,1778427205740,0.7673211933333334,0.0233753483333333,1.3970632166666668,2.8006644,0.6088290166666667,-0.5929465333333334
212,1778427205750,0.7315671,0.04329521,1.3504447,2.9516703800000004,0.56013288,-0.64131688
213,1778427205760,0.7153466333333333,0.0460189473333333,1.3348339666666666,3.0634383,0.5274312333333334,-0.6771950266666668
214,1778427205770,0.699553,0.055267452,1.3087348666666667,3.11930695,0.516028425,-0.69638637
215,1778427205780,0.6933941,0.0553487586666666,1.3097105333333332,3.1627801666666664,0.5021566983333333,-0.7146868733333335
216,1778427205790,0.6899487833333334,0.0522184958333333,1.31746505,3.2063043333333336,0.4618904833333333,-0.7430666783333333
217,1778427205800,0.69523365,0.0534380783333333,1.3532395499999998,3.3336951666666668,0.438346725,-0.7990626449999999
218,1778427205810,0.7042280466666667,0.066833164,1.3592053999999998,3.376150333333334,0.4885394766666667,-0.8300131333333334
219,1778427205820,0.7018905133333334,0.08880599,1.3528432333333331,3.4215071,0.5746205666666667,-0.8783733000000001
220,1778427205830,0.6436961,0.15439926,1.3080641,3.5448001,0.7385360733333334,-0.9995282333333334
221,1778427205840,0.620377676,0.16088744,1.29669758,3.61708586,0.742598324,-1.03831816
222,1778427205850,0.5393607233333333,0.1946556683333333,1.2554086333333332,3.722358266666667,0.6190100916666667,-1.0437650833333334
223,1778427205860,0.52487818,0.20559127,1.2478472,3.76170815,0.541226595,-1.0378600999999998
224,1778427205870,0.5196035,0.21171968,1.2451336,3.7856846,0.48609602,-1.0328205
225,1778427205880,0.5196035,0.21171968,1.2451336,3.7856846000000006,0.48609602,-1.0328205
226,1778427205890,0.5316773666666667,0.2174313933333333,1.2275106,3.9676207666666663,0.2808707516666667,-1.089936316666667
227,1778427205900,0.50587305,0.21374215,1.1762068,4.099109483333334,0.27967448,-1.18131155
228,1778427205910,0.4891749133333333,0.2098089933333333,1.1595595,4.1409029,0.3499239799999999,-1.2131274666666665
229,1778427205920,0.4377607228571429,0.1931820014285714,1.1088277714285713,4.210781357142857,0.4213443057142857,-1.2325951714285712
230,1778427205930,0.3557321333333333,0.185132755,1.0315134833333333,4.259461433333333,0.42551855,-1.2304862333333333
231,1778427205940,0.34721538,0.18635234,1.0237793,4.3142357,0.40026945,-1.2198979
232,1778427205950,0.32532385,0.1864743,0.9705444,4.3715042833333335,0.3482186583333333,-1.2034809
233,1778427205960,0.30985258,0.2039056328571428,0.9144087214285712,4.414243142857143,0.1949969085714285,-1.1986921285714287
234,1778427205970,0.28929532,0.1828765233333333,0.8640646583333332,4.4136543,0.2875648,-1.2098186
235,1778427205980,0.260381046,0.15861901,0.8200112799999999,4.4300255,0.400330528,-1.2082303600000002
236,1778427205990,0.2466345999999999,0.1490330842857143,0.7948721642857143,4.449237142857143,0.4663519771428571,-1.2032518285714286
237,1778427206000,0.1921087679999999,0.131324746,0.7002115699999999,4.50421484,0.506529464,-1.19610468
238,1778427206010,0.1491114899999999,0.12814337,0.6488357571428571,4.560676171428571,0.4801182685714286,-1.1913835000000002
239,1778427206020,0.0374046236,0.1333492419999999,0.52927474,4.580573,0.23044892,-1.0569496
240,1778427206030,0.0079577817999999,0.14119726,0.488077235,4.5303803333333335,0.1547016266666666,-0.9654216333333334
241,1778427206040,-0.0020428021159999,0.1590946399999999,0.459630485,4.441397583333334,0.038433605,-0.8337546916666666
242,1778427206050,0.0142168576194285,0.1606713985714285,0.4723446357142857,4.385314371428572,-0.0445495342857142,-0.7360707857142856
243,1778427206060,0.0209280505999999,0.155631038,0.480601214,4.3700688,-0.0949284639999999,-0.680839836
244,1778427206070,0.0282333545,0.144916985,0.48075977,4.3964733,-0.144087845,-0.615064935
245,1778427206080,0.037593657,0.1197427599999999,0.4632485783333333,4.4883323,-0.1151481,-0.5510005
246,1778427206090,0.0413438749999999,0.119061825,0.4238966799999999,4.50505475,-0.1059342155,-0.5487860999999999
247,1778427206100,0.035916729,0.1255967566666666,0.35888272,4.599255333333333,-0.0588466841666666,-0.5373323166666667
248,1778427206110,-0.0004573435,0.14973435,0.25364284,4.664567,-0.081245075,-0.5292383749999999
249,1778427206120,-0.044331856,0.17190027,0.0846390899999999,4.67706425,-0.1556942766666666,-0.4810563916666666
250,1778427206130,-0.0424502131428571,0.1558540328571428,-0.0013415408571428,4.659636342857143,-0.1168716085714285,-0.4430954785714285
251,1778427206140,-0.050185853,0.15269183,-0.086681888,4.6281186666666665,-0.057523142,-0.4150829466666666
252,1778427206150,-0.087962448,0.17141244,-0.225866835,4.5190285,0.063071836,-0.3559308333333333
253,1778427206160,-0.1267553673333333,0.1949097433333333,-0.3186364733333333,4.350022466666666,0.17633643,-0.2767728633333333
254,1778427206170,-0.13814395,0.2442563985714285,-0.4651490914285713,3.994077057142857,0.3734568414285714,-0.07280205
255,1778427206180,-0.131501575,0.26339951,-0.498291275,3.906228766666666,0.39680789,-0.026521735
256,1778427206190,-0.12598296,0.2757478,-0.515213,3.77548316,0.374124416,0.0264504652
257,1778427206200,-0.122324208,0.3669929633333333,-0.7307539833333334,3.5137477999999995,0.1301652033333333,0.074729182
258,1778427206210,-0.1526105333333333,0.4045154933333333,-0.8559645666666666,3.3819027,-0.0265726375,0.0795651975
259,1778427206220,-0.185266906,0.445147956,-1.02235232,2.9976684399999995,-0.21966714,0.1410793269999999
260,1778427206230,-0.1654974533333333,0.4584617333333333,-1.0979909333333333,2.6552531333333333,-0.2435825066666666,0.1974876366666666
261,1778427206240,-0.117842235,0.45770962,-1.14445705,2.44509,-0.2017891466666666,0.2131919633333333
262,1778427206250,-0.08256579,0.4538678999999999,-1.1687877,2.0874284000000003,-0.1112792866666666,0.2229658166666666
263,1778427206260,-0.0456733971428571,0.4506447428571428,-1.209861557142857,1.8287778714285712,-0.1610502571428571,0.1572105371428571
264,1778427206270,-0.036624088,0.428281096,-1.2753183,1.481501,-0.25870144,0.05131268
265,1778427206280,-0.03060283,0.4058076571428571,-1.3198070285714287,1.3401292857142857,-0.2616684914285714,0.0255690735428571
266,1778427206290,-0.00866920475,0.3892706866666667,-1.3859039666666666,1.0166070416666666,-0.2222785883333333,-0.04158974105
267,1778427206300,0.006768687,0.3822783999999999,-1.4389253999999998,0.7811948583333334,-0.1703041416666666,-0.1122464938333333
268,1778427206310,0.006768687,0.3822783999999999,-1.4389253999999998,0.6921357933333333,-0.1510109816666666,-0.1420007233333333
269,1778427206320,-0.0047157222333333,0.3746763333333334,-1.4987053666666668,0.2348013275,-0.0936151,-0.29680416
270,1778427206330,-0.0468523256666666,0.3703264733333333,-1.5369189666666667,-0.1732821016666667,-0.0900517166666666,-0.41513384
271,1778427206340,-0.11915329,0.41142645,-1.4289858000000002,-0.5997424166666667,-0.0775798866666666,-0.4701371533333333
272,1778427206350,-0.1201725185714285,0.4129944728571428,-1.3679369571428572,-0.7678576285714286,-0.0515962974285714,-0.4714788757142857
273,1778427206360,-0.12088104,0.4134997133333333,-1.2551545333333334,-1.1557570666666666,0.0509563446666666,-0.4569781133333333
274,1778427206370,-0.11958014,0.4103288,-1.1923866,-1.2206615,0.0729984,-0.45540005
275,1778427206380,-0.1363581271428571,0.4280650457142857,-1.1139239285714286,-1.3641711714285716,0.1333213428571428,-0.4466733914285714
276,1778427206390,-0.13714215,0.450819,-0.98786247,-1.58221735,0.1300379333333333,-0.4208607166666667
277,1778427206400,-0.1375893299999999,0.4549249333333334,-0.9778009266666668,-1.6388496333333336,0.1087849133333333,-0.41854452
278,1778427206410,-0.14622805,0.46758825,-0.9465186,-1.7643824333333331,0.0703004066666666,-0.4224133066666666
279,1778427206420,-0.1580173583333333,0.4644884833333333,-0.9314770666666666,-1.9475910999999997,0.069027774,-0.40607268
280,1778427206430,-0.163363195,0.459996365,-0.91746205,-2.0241019999999996,0.089262682,-0.388968455
281,1778427206440,-0.16635117,0.4561241999999999,-0.90645534,-2.1006129,0.1094975899999999,-0.3718642300000001
282,1778427206450,-0.1538910933333333,0.43352123,-0.84366711,-2.43735225,0.26198484,-0.282219735
283,1778427206460,-0.155374918,0.4236588579999999,-0.8309631120000001,-2.5397332799999996,0.31505376,-0.2498744199999999
284,1778427206470,-0.1639729866666666,0.419872025,-0.7821492766666666,-2.8665870666666664,0.4302018533333333,-0.1416698333333333
285,1778427206480,-0.16379005,0.4216709,-0.77638674,-2.962620166666667,0.4386012533333334,-0.1111011183333333
286,1778427206490,-0.14037405,0.424415,-0.7413237,-3.061504,0.42332962,-0.08246681
287,1778427206500,-0.14037405,0.424415,-0.7413237,-3.2805245833333334,0.3098104866666666,-0.0758491016666666
288,1778427206510,-0.1272228733333333,0.4235003,-0.71739955,-3.3243287,0.28710666,-0.07452556
289,1778427206520,-0.10092052,0.4216709,-0.66955125,-3.3243287,0.28710666,-0.07452556
290,1778427206530,-0.1095592366666666,0.4100340666666666,-0.6422122416666666,-3.3243287,0.28710666,-0.07452556
291,1778427206540,-0.11128698,0.4077067,-0.63674444,-3.3473277799999996,0.286373624,-0.0728151372
292,1778427206550,-0.11128698,0.4077067,-0.63674444,-3.4393241,0.28344148,-0.065973446
293,1778427206560,-0.1130989342857142,0.3965910657142856,-0.6065684742857143,-3.4771104857142854,0.2958551357142857,-0.058817596
294,1778427206570,-0.1144579,0.38825434,-0.5839365,-3.7038288,0.37033707,-0.015882496
295,1778427206580,-0.0893039916666666,0.3836301149999999,-0.53347625,-3.7815614,0.386906785,-0.00488692185
296,1778427206590,-0.08427321,0.38270527,-0.5233842,-3.9204568,0.3764456999999999,-0.00053450725
297,1778427206600,-0.0697253171428571,0.3773478128571428,-0.4888438714285714,-3.9816196,0.3494148999999999,-0.0071776668
298,1778427206610,-0.06390616,0.37520483,-0.47502774,-3.9816196,0.3494149,-0.0071776668
299,1778427206620,-0.06390616,0.37520483,-0.47502774,-3.9816196,0.3494149,-0.0071776668
300,1778427206630,-0.06380453,0.3706720366666666,-0.4605146933333333,-3.9816196,0.3494149,-0.0071776668
301,1778427206640,-0.063824862,0.3564232333333333,-0.4208782333333333,-4.20496715,0.3382666199999999,-0.0119118724
302,1778427206650,-0.064272046,0.3460568,-0.3996575,-4.4283147,0.32711834,-0.016646078
303,1778427206660,-0.064272046,0.3460568,-0.3996575,-4.4283147,0.32711834,-0.016646078
304,1778427206670,-0.064272046,0.3460568,-0.3996575,-4.9947395,0.63789606,-0.06490443
305,1778427206680,-0.064272046,0.3460568,-0.3996575,-4.9947395,0.63789606,-0.06490443
306,1778427206690,-0.064272046,0.3460568,-0.3996575,-4.9947395,0.63789606,-0.06490443
307,1778427206700,-0.064272046,0.3460568,-0.3996575,-5.231449916666667,0.62326076,-0.1167007133333333
308,1778427206710,-0.0573901095714285,0.3066816571428571,-0.1053023214285714,-5.278792,0.6203337,-0.12705997
309,1778427206720,-0.054637335,0.2909316,0.01243975,-4.3618578333333335,0.3076470166666666,-0.043066
310,1778427206730,-0.0531738344999999,0.3126097,-0.16650361,-4.178471,0.24510968,-0.026267206
311,1778427206740,-0.051710334,0.3342878,-0.34544697,-4.2630249000000005,0.2826269883333333,-0.0261399423333333
312,1778427206750,-0.050633036,0.32993795,-0.31077015,-4.6857944,0.4702135299999999,-0.025503624
313,1778427206760,-0.0484784399999999,0.32123825,-0.24141651,-4.91135645,0.5827654649999999,-0.0561996019999999
314,1778427206770,-0.0466084106666666,0.3125385499999999,-0.1870231033333333,-5.1369185,0.6953174,-0.08689558
315,1778427206780,-0.0607091145714285,0.2967420471428571,0.0571723214285714,-5.190609142857142,0.5340271444285715,-0.1093012428571428
316,1778427206790,-0.0255807612783333,0.3490447583333333,0.4811967683333333,-5.054833483333334,-0.4498513665,0.0113519133333333
317,1778427206800,0.2800366628333333,0.3023855216666666,0.9795287233333332,-4.648761033333334,-0.8546004733333333,0.3343723766666666
318,1778427206810,0.3144695614285714,0.1354521542857142,1.1258758,-4.214643000000001,-0.5681919428571429,-0.1259909585714285
319,1778427206820,0.32568973,0.05390558,1.0969542,-3.878128866666667,-0.7654141333333334,-0.3090469033333333
320,1778427206830,0.32568973,0.05390558,1.0969542,-3.8316522,-0.7809912,-0.33505958
321,1778427206840,0.32501897,0.03390442,1.0766482,-3.752087,-0.8006915999999998,-0.3791946
322,1778427206850,0.3157501333333333,-0.0342499676666666,1.0189619,-3.7379352666666663,-0.7446447066666666,-0.4154138133333333
323,1778427206860,0.3565452,-0.059759583,1.0081686,-3.8652499,-0.6907359,-0.4601342400000001
324,1778427206870,0.4158982666666667,-0.0694349443333333,1.0293893333333335,-3.9097412666666664,-0.7214827666666667,-0.49668436
325,1778427206880,0.4455748,-0.074272625,1.0399997,-3.998724,-0.7829765,-0.5697846
326,1778427206890,0.4440502733333333,-0.19220633,1.1429122333333332,-4.164242783333333,-0.8065202666666665,-0.8161159733333334
327,1778427206900,0.4158779171428571,-0.2689878314285714,1.245943757142857,-4.229390842857144,-0.7321001857142857,-0.9218393
328,1778427206910,0.3837825633333334,-0.3604072233333333,1.3588394,-4.200054766666667,-0.5299765133333333,-0.9689341
329,1778427206920,0.3666270866666667,-0.3979094033333333,1.4020532999999995,-4.000404,-0.4431827399999999,-0.95340794
330,1778427206930,0.3398978828571429,-0.42354388,1.455137142857143,-3.8895318428571426,-0.5003204442857143,-0.93285668
331,1778427206940,0.3160753466666666,-0.4263663466666667,1.4768748,-3.5568137666666666,-0.7519242166666666,-0.8683958666666666
332,1778427206950,0.306938635,-0.4298726449999999,1.47225055,-3.4643695,-0.8396342999999998,-0.8498663
333,1778427206960,0.28635816,-0.441153775,1.45356045,-3.1622457999999996,-1.1446596333333334,-0.7418958266666666
334,1778427206970,0.2633254571428571,-0.4511674499999999,1.4367563857142858,-2.9126927142857144,-1.3819953857142857,-0.5912302857142857
335,1778427206980,0.26131606,-0.4546403566666666,1.4598413666666668,-2.8004353,-1.4404966,-0.46021061
336,1778427206990,0.27989438,-0.45051408,1.521918,-2.668514,-1.4406747666666668,-0.2999857333333333
337,1778427207000,0.2849759733333333,-0.4474244733333333,1.5550703666666668,-2.5305857,-1.3876567500000003,-0.17821993
338,1778427207010,0.3131193142857142,-0.4265754142857142,1.6619697857142857,-2.1284508285714288,-1.2873767428571428,0.05886123
339,1778427207020,0.3455079633333333,-0.3970760216666666,1.6906373,-1.7912096000000002,-1.27594485,0.20242547
340,1778427207030,0.3727656533333334,-0.3627854033333333,1.65994435,-1.3283774,-1.3446671666666667,0.3692171233333333
341,1778427207040,0.40583667,-0.32060814,1.6051749666666666,-0.964632585,-1.4316391,0.475634945
342,1778427207050,0.435604675,-0.28251648,1.5465231499999998,-0.59936059,-1.4900022,0.5615378766666667
343,1778427207060,0.45938656,-0.228946285,1.46099985,-0.43012548,-1.4291956,0.5871178499999999
344,1778427207070,0.4670191233333333,-0.1593385666666666,1.3977848666666668,-0.2916881533333333,-1.2540554666666666,0.6181447333333333
345,1778427207080,0.4667345600000001,-0.14128873,1.3917886,-0.2762638,-1.1968378,0.6261369
346,1778427207090,0.4845491957142857,-0.1048318985714285,1.415875314285714,-0.2715514,-1.119781457142857,0.6342526714285714
347,1778427207100,0.5029155416666667,-0.08806408,1.4437936,-0.2599485933333333,-1.0256427233333334,0.6379723999999999
348,1778427207110,0.6318254666666666,-0.084476476,1.7003431000000002,-0.0236964833333333,-0.46275587,0.5318600116666666
349,1778427207120,0.6535746933333333,-0.0987252746666666,1.7725018,0.31627548,0.06994407,0.4117231699999999
350,1778427207130,0.6404031742857142,-0.1106075028571428,1.7998959142857145,0.4627085771428571,0.2302525557142856,0.3831870328571428
351,1778427207140,0.6027587666666666,-0.1230153083333333,1.7764755833333332,0.8750390166666667,0.5406157616666666,0.3406591883333333
352,1778427207150,0.595238,-0.1267045483333333,1.7617897833333334,0.93554014,0.57864213,0.33643404
353,1778427207160,0.5816395766666668,-0.1377925983333333,1.709774583333333,1.2119566,0.6412558,0.32268956
354,1778427207170,0.5761224971428572,-0.1361664742857143,1.6377959714285717,1.6709565000000002,0.6133305014285714,0.2895501357142857
355,1778427207180,0.5794414871428571,-0.1374993099999999,1.5997710142857144,1.8109536857142856,0.6301511285714285,0.26265025
356,1778427207190,0.578113035,-0.1385446649999999,1.5562188,2.02257475,0.68676525,0.23159429
357,1778427207200,0.58389998,-0.139520326,1.5630546,2.1244059799999997,0.72876224,0.236343766
358,1778427207210,0.6123702571428572,-0.1612811885714285,1.6146674142857145,2.1956024,0.7457138,0.24358252
359,1778427207220,0.625371835,-0.20543882,1.7045507000000002,2.379905583333333,0.7275914283333332,0.2385937883333333
360,1778427207230,0.6011122616666666,-0.2361316649999999,1.7933973333333333,2.934367583333333,0.63629255,0.2369139066666666
361,1778427207240,0.5885709,-0.22403745,1.7549195,3.321325233333333,0.65001155,0.24113905
362,1778427207250,0.5923516116666666,-0.2204295166666666,1.7430997,3.3819027,0.65576386,0.24190263
363,1778427207260,0.6129930849999999,-0.200529985,1.6466814,3.42547775,0.7786750466666666,0.2243911666666666
364,1778427207270,0.6091209000000001,-0.2050932733333333,1.6103785000000002,3.42183805,1.09001265,0.197767625
365,1778427207280,0.61684495,-0.2249318366666667,1.6718658333333334,3.36510395,1.5243378,0.193491565
366,1778427207290,0.5954310833333334,-0.2560616966666666,1.7378758166666666,3.535738933333333,1.7115935333333334,0.23538674
367,1778427207300,0.5793021,-0.2540188933333333,1.738902333333333,3.6741508166666663,1.6921222333333332,0.2573524333333333
368,1778427207310,0.5630816,-0.1941576699999999,1.6434494,4.1651847,1.349325,0.329867225
369,1778427207320,0.5630816,-0.1941576699999999,1.6434494,4.480849333333333,1.0654508333333332,0.3460042566666666
370,1778427207330,0.6394580433333333,-0.0935725366666666,1.3840035333333331,4.7574185,0.7864126499999999,0.23273966
371,1778427207340,0.6266015666666668,-0.0408560446666666,1.2543008333333334,4.85385885,0.71868297,0.073380186
372,1778427207350,0.5939167666666667,0.0261600626666666,1.1295171333333334,4.8585167,0.73807794,0.004886922
373,1778427207360,0.5426027833333333,0.08413093,1.0810590333333334,4.675918866666667,0.8437830783333333,-0.1648063626666666
374,1778427207370,0.5197051,0.09892854,1.0843518666666667,4.492532,0.938059955,-0.324293095
375,1778427207380,0.4846798442857142,0.1470817499999999,1.1347090285714283,4.402440257142858,0.92085756,-0.4543092099999999
376,1778427207390,0.50161463,0.17769329,1.191228,4.408767,0.905455,-0.57726765
377,1778427207400,0.5031289416666667,0.1818195466666666,1.1879453,4.413755783333333,0.9178250166666668,-0.612952365
378,1778427207410,0.489406584,0.2085243719999999,1.1694097199999998,4.4393103400000005,1.03428646,-0.910861188
379,1778427207420,0.4256142733333333,0.2082032166666666,1.1753125,4.447786,1.08146055,-1.00136085
380,1778427207430,0.3418492,0.18568157,1.1871424,4.456109,1.1149818,-1.0619892
381,1778427207440,0.3288345142857143,0.1797230342857143,1.1767411,4.565737700000001,1.2013537714285716,-1.1656836
382,1778427207450,0.248795,0.1454963,1.0850023,4.6787187,1.210327666666667,-1.2269738
383,1778427207460,0.2058046916666666,0.1141936616666666,1.0656923,4.7780859,1.2507211333333337,-1.266603666666667
384,1778427207470,0.1825193614285714,0.1031767585714285,1.0511327857142858,4.802600485714286,1.260018657142857,-1.268396257142857
385,1778427207480,0.09404207,0.064454984,0.969995592,4.986829,1.21058224,-1.21192616
386,1778427207490,0.0656948899999999,0.047462121,0.9492423733333334,5.031340666666666,1.182482466666667,-1.1915945
387,1778427207500,0.0144520628666666,0.0128056257333333,0.9094840066666668,5.1433325,1.08100245,-1.12635915
388,1778427207510,-0.0225927823499999,-0.0159765417,0.87026422,5.3288064,0.91286175,-1.02213025
389,1778427207520,-0.0465445281428571,-0.0389395531428571,0.8337420285714287,5.446954357142857,0.8050113114285714,-0.9578803285714288
390,1778427207530,-0.0561618155,-0.071924927,0.778246625,5.6253053500000005,0.69905892,-0.8547531999999999
391,1778427207540,-0.0541233685714285,-0.0979064088571428,0.7162874071428572,5.753848971428572,0.6752024542857143,-0.7824965571428572
392,1778427207550,-0.0624629899999999,-0.1039898073333333,0.6092428466666666,5.818822566666667,0.657138295,-0.7453574166666667
393,1778427207560,-0.09695688,-0.0870172766666666,0.4658096983333333,5.859928466666666,0.5364924233333334,-0.6560183733333332
394,1778427207570,-0.1086242259999999,-0.0925663783333333,0.4248825133333333,5.851910833333334,0.5149085216666667,-0.6221662566666667
395,1778427207580,-0.1126895033333333,-0.105697225,0.3089001466666667,5.7938024666666665,0.5719734833333333,-0.4934773133333333
396,1778427207590,-0.0921395233333333,-0.097586996,0.2223503733333333,5.7105211,0.6542366733333334,-0.41823908
397,1778427207600,-0.081437677,-0.084547617,0.154948065,5.620265750000001,0.713719695,-0.38537961
398,1778427207610,-0.0838260256666666,-0.0573712366666666,0.0579810233333333,5.4826682333333325,0.7779369133333334,-0.3643811233333333
399,1778427207620,-0.091102874,-0.0475027733333333,0.0255299433333333,5.406768166666667,0.8024224266666667,-0.3550654333333333
400,1778427207630,-0.1078111733333333,-0.0308351333333333,-0.049393126,5.2725306000000005,0.8447503,-0.3324634099999999
401,1778427207640,-0.1105755591666666,-0.0393417266666666,-0.0951986433333333,5.169956233333333,0.9025534266666666,-0.3075197466666666
402,1778427207650,-0.1236657549999999,-0.026525938,-0.161899685,5.095532449999999,0.90973109,-0.28183796
403,1778427207660,-0.15775311,-0.022257395,-0.31190842,4.97901,0.86009824,-0.21074851
404,1778427207670,-0.15121615,-0.030696911,-0.41489006,4.94144176,0.8376184240000001,-0.17739527
405,1778427207680,-0.15303739,-0.0228062066666666,-0.5239330233333334,4.783405733333333,0.71825025,-0.0750600683333333
406,1778427207690,-0.157692125,-0.0175924885,-0.601224125,4.734969199999999,0.6872742733333334,-0.049072842
407,1778427207700,-0.149764835,-0.0044514785,-0.730347525,4.524017199999999,0.6114251666666667,0.0474438646666666
408,1778427207710,-0.12994661,0.0242493826666666,-0.8720834333333333,4.407901949999999,0.57406059,0.0857502066666666
409,1778427207720,-0.112348016,0.0617231132,-0.99030168,4.1682085,0.5010011459999999,0.115117558
410,1778427207730,-0.12677569,0.111073557,-1.14637785,3.67941945,0.4692717783333333,0.15190183
411,1778427207740,-0.1361055066666666,0.1541553333333333,-1.2615979666666666,3.445483533333333,0.47301332,0.1817833233333333
412,1778427207750,-0.10598179,0.19909698,-1.3736167,2.8868473666666667,0.4854597116666666,0.2305507233333333
413,1778427207760,-0.09098092,0.2335502,-1.3982523999999998,2.4689137999999997,0.5139412716666667,0.2441679183333333
414,1778427207770,-0.056222795,0.256366575,-1.4008948166666668,1.9809341666666669,0.518853655,0.2221258666666666
415,1778427207780,-0.0332946253333333,0.2652796966666667,-1.4089033666666666,1.6563101333333332,0.5047274,0.18183422
416,1778427207790,-0.0240257915,0.272089045,-1.418284,1.3954961416666667,0.4965316266666666,0.1408807983333333
417,1778427207800,-0.01201289625,0.278308925,-1.43392515,0.90194255,0.5056437,0.06047566
418,1778427207810,0.0120128958333333,0.2751380066666666,-1.4725045666666663,0.7433466750000001,0.525038675,0.0195476885
419,1778427207820,0.0052267855714285,0.2790319657142857,-1.4920207714285714,0.4889322085714286,0.5155920871428571,-0.0484765204285714
420,1778427207830,-0.050551733,0.299590642,-1.51099058,0.0338724764,0.437379516,-0.1385747828
421,1778427207840,-0.0547186406666666,0.3063390066666666,-1.5190113666666667,-0.2110030323333333,0.44145195,-0.1522072533333333
422,1778427207850,-0.0499114486666666,0.3156078583333333,-1.4906255666666668,-0.5854634433333333,0.39833505,-0.1722130866666666
423,1778427207860,-0.0468320015,0.323250575,-1.4738359999999997,-0.8415178033333334,0.3156137,-0.1954768733333333
424,1778427207870,-0.042095953,0.3320315733333333,-1.4443729,-1.2187270883333334,0.0822377333333333,-0.2532545483333333
425,1778427207880,-0.032623855,0.33361704,-1.3874996333333334,-1.4514158,-0.0182241466666666,-0.2841541466666666
426,1778427207890,-0.027257688,0.326360525,-1.3560546999999998,-1.6256142,-0.0600175133333333,-0.3047199466666666
427,1778427207900,-0.0251408382857142,0.3074743785714285,-1.2687065142857143,-2.169269685714286,-0.061064708,-0.3698789028571428
428,1778427207910,-0.026891813,0.298554,-1.1875693,-2.4528275,-0.0353792786666666,-0.4033237866666666
429,1778427207920,-0.0229037762,0.287504568,-1.12716328,-2.7391808,-0.00913243548,-0.438295832
430,1778427207930,-0.01835473,0.27574779,-1.06905625,-2.8997008333333327,0.0080685115333333,-0.4590652416666667
431,1778427207940,-0.0244526455,0.254953905,-0.98889918,-3.1632129333333334,0.0705549336666666,-0.4879795233333333
432,1778427207950,-0.0534177529999999,0.23598938,-0.8246212600000001,-3.4755176999999997,0.14752395,-0.49586987
433,1778427207960,-0.06561358,0.23080614,-0.7826676,-3.490000333333333,0.1504001083333333,-0.4934264083333333
434,1778427207970,-0.0675649153333333,0.2303792866666666,-0.7563246,-3.5891134,0.1643736566666666,-0.4720206666666666
435,1778427207980,-0.0698577332,0.234599044,-0.69002812,-3.789808,0.06918049,-0.40500367
436,1778427207990,-0.068896295,0.2352068016666666,-0.685477045,-3.8050541666666664,0.0493782744999999,-0.4014657416666666
437,1778427208000,-0.0432139046666666,0.2173907266666666,-0.6721327233333333,-4.059454166666666,-0.1262454838333333,-0.3630321166666666
438,1778427208010,-0.0075309274166666,0.1972777683333333,-0.6548146416666667,-4.202244083333333,-0.15187637,-0.3669009366666667
439,1778427208020,0.0021952500999999,0.17948608,-0.622694862,-4.2782560400000005,-0.164292208,-0.37675114
440,1778427208030,0.01372031275,0.1600093299999999,-0.588387965,-4.607298299999999,-0.24625505,-0.42302418
441,1778427208040,0.0261397366666666,0.1317963,-0.5458854733333334,-4.774268166666666,-0.3068579633333333,-0.4431318233333333
442,1778427208050,0.0053255142666666,0.0735408759999999,-0.4751903333333334,-5.063920433333333,-0.32009339,-0.4559599966666667
443,1778427208060,-0.0219525007999999,0.0466490649999999,-0.43191546,-5.282992,-0.23197608,-0.4373795099999999
444,1778427208070,-0.047960115,0.0114335954999999,-0.330202185,-5.564626133333333,-0.0462221366666666,-0.39008836
445,1778427208080,-0.0467535985714285,-0.0200534342857142,-0.1550525928571428,-5.9658409714285705,0.2118175257142857,-0.3249803028571428
446,1778427208090,-0.0303676256666666,-0.0075817433333333,-0.0560601799999999,-6.003965699999999,0.102930795,-0.350560285
447,1778427208100,-0.0338556322,0.075358054,0.14591096,-5.919437,-0.5815437,-0.46654832
448,1778427208110,-0.062839028,0.1090612449999999,0.1897671699999999,-5.896020333333333,-0.8389215933333333,-0.49189924
449,1778427208120,-0.1795125033333333,0.1615947983333333,0.303188415,-5.953289000000001,-1.51586209,-0.4773402833333333
450,1778427208130,-0.243733732,0.137593396,0.425561406,-6.07740658,-1.76057468,-0.357081282
451,1778427208140,-0.2765811766666666,0.1029328361666666,0.5367284583333333,-6.1708842,-1.82803965,-0.2249765841666667
452,1778427208150,-0.27215002,-0.004471805,0.8678351533333334,-6.2602997,-1.6230180666666667,0.1515963966666666
453,1778427208160,-0.26343,-0.022196416,0.92944443,-6.2398357,-1.4387403999999997,0.3491095
454,1778427208170,-0.1399167,0.0071142356666666,1.088793155,-5.942853333333333,-1.1057678666666668,0.6319909899999999
455,1778427208180,0.0382644275,0.123421835,1.1862582,-5.50061235,-1.07359565,0.647135365
456,1778427208190,0.1140716933333333,0.20883332,1.1709016,-5.2466960333333335,-1.2398019,0.5360087783333334
457,1778427208200,0.0907573283333333,0.2913381383333333,1.0446442333333332,-4.6560659,-1.9807305,0.1322014166666666
458,1778427208210,0.0427057453333333,0.28800461,0.9787155866666668,-4.57309,-2.1197023,0.06780604
459,1778427208220,-0.0338434406666666,0.2407355966666666,0.768713535,-4.4719915,-2.401464,0.04046982
460,1778427208230,-0.019818231,0.18078291,0.7620972766666666,-4.871116,-2.3526711,0.31925346
461,1778427208240,0.0062808535833333,0.1474374666666666,0.7834298183333334,-5.137325833333333,-2.125556483333334,0.46944995
462,1778427208250,0.2178277473333333,0.1096303833333333,0.904625935,-5.515197000000001,-1.7034741000000002,0.59521185
463,1778427208260,0.26013713,0.1021604366666666,0.92877368,-5.661193999999999,-1.5491543000000003,0.6033822
464,1778427208270,0.36372041,0.0683779766666666,1.0181692333333334,-5.790213550000001,-1.4209998333333334,0.5211189883333334
465,1778427208280,0.4452394,0.0214036875,1.1230838666666667,-6.053750966666667,-1.1677961666666667,0.0115555316666666
466,1778427208290,0.44749563,-0.015092345,1.1605250500000002,-6.082995999999999,-1.1155926,-0.31566462
467,1778427208300,0.4042396171428571,-0.103420672,1.219853442857143,-6.064670285714286,-1.1371910571428572,-0.5692173171428571
468,1778427208310,0.37886357,-0.1402012716666666,1.2491786333333332,-6.061616,-1.1407908,-0.6114761
469,1778427208320,0.32367742,-0.20580468,1.3224553,-6.009437666666667,-1.1778245333333337,-0.75403675
470,1778427208330,0.2841106657142857,-0.3390790199999999,1.4683261285714286,-5.845064285714286,-1.0431614857142857,-0.8416632171428572
471,1778427208340,0.2800163466666667,-0.4126460116666666,1.5526515333333333,-5.785963,-0.9622655,-0.84559023
472,1778427208350,0.2886144133333333,-0.42691514,1.594910133333333,-5.582341199999999,-0.9518808,-0.8278751
473,1778427208360,0.292761,-0.43295208,1.6135088,-5.5263453,-0.9828822,-0.8213083
474,1778427208370,0.3259510814285714,-0.4707678685714286,1.6756204,-5.261753157142857,-1.2377220714285715,-0.8037022857142857
475,1778427208380,0.388447445,-0.5047651999999999,1.7707841666666668,-4.630307766666667,-1.8555032333333337,-0.7804312666666666
476,1778427208390,0.4700274166666667,-0.5166765,1.7840065,-3.9402336666666664,-2.4122050666666666,-0.7640906366666668
477,1778427208400,0.5381411714285714,-0.5259801771428572,1.758595642857143,-3.3798738285714287,-2.714510657142857,-0.7749261928571428
478,1778427208410,0.5648500500000001,-0.5242379,1.6862875,-3.1757357,-2.7716484,-0.78801614
479,1778427208420,0.5690576,-0.51972544,1.6352785,-2.9593368,-2.679713,-0.81397796
480,1778427208430,0.4526890233333333,-0.5502963,1.5902757333333335,-2.8710666,-2.0702224,-0.6704246
481,1778427208440,0.3973300783333333,-0.55373145,1.6892957666666668,-2.8710666,-2.0702224,-0.6704246
482,1778427208450,0.4175751783333333,-0.5385476833333334,1.7503258333333334,-2.5849780166666667,-1.3264939,-0.16760615
483,1778427208460,0.4587158,-0.51396292,1.77739035,-2.2704842333333333,-1.1324424,0.06062838
484,1778427208470,0.5324875214285714,-0.4678844514285714,1.8153586,-1.8793487142857144,-1.159182242857143,0.1656535714285714
485,1778427208480,0.5611303,-0.44953844,1.829863,-1.6824756,-1.1962268,0.1965458999999999
486,1778427208490,0.5900141,-0.4168739266666666,1.8530248333333332,-1.3051644933333335,-1.2499575166666668,0.1957059566666666
487,1778427208500,0.62101185,-0.37057042,1.8829147,-0.6980662299999999,-1.3219124,0.1963931799999999
488,1778427208510,0.6252397266666666,-0.3136971666666666,1.8602101666666664,-0.2473495076666666,-1.1780027666666666,0.2914845266666666
489,1778427208520,0.6715025857142857,-0.26613922,1.850569642857143,0.1228929987142857,-0.8341583285714285,0.3957970542857142
490,1778427208530,0.7027036,-0.2448923366666666,1.8522422333333333,0.303141885,-0.548862415,0.43860126
491,1778427208540,0.7526048849999999,-0.22284836,1.8713593,0.50778174,-0.113086425,0.456087265
492,1778427208550,0.8191941399999999,-0.2164150599999999,1.905721,0.8489063285714286,0.4895430228571428,0.4366595714285714
493,1778427208560,0.8222939083333333,-0.2156426583333333,1.9026313833333333,0.98552925,0.6613634166666666,0.41505749
494,1778427208570,0.8442565,-0.19867012,1.8655967,1.259146,0.914618,0.35613444
495,1778427208580,0.83770128,-0.197389565,1.85824875,1.5299629999999995,1.04417225,0.2689588733333333
496,1778427208590,0.8086853933333334,-0.2044936433333333,1.8054713,2.033366733333333,1.0989974333333334,0.1093957833333333
497,1778427208600,0.7979995200000001,-0.2182444471428571,1.8012724428571427,2.391166557142857,1.0302460714285715,0.008988445
498,1778427208610,0.7898022,-0.2684303,1.8265699,2.52574965,0.99481955,-0.023620122
499,1778427208620,0.78961925,-0.286022785,1.8255028,2.8952721999999995,0.9076694,-0.0824668085
500,1778427208630,0.7924243,-0.3112783233333333,1.822708,3.1028136666666666,0.8652397266666667,-0.1126282833333333
501,1778427208640,0.7991117166666667,-0.3288200033333333,1.8152889333333333,3.5449528000000003,0.8353073200000001,-0.1963422766666666
502,1778427208650,0.802888316,-0.344910366,1.7703350400000002,3.83922688,0.8670010400000001,-0.268750174
503,1778427208660,0.8004735333333333,-0.34471523,1.7018676,4.094324333333334,0.9112073333333334,-0.34966945
504,1778427208670,0.7895408157142858,-0.3359429442857143,1.6399824571428572,4.271846057142858,0.9425650914285716,-0.4280856342857143
505,1778427208680,0.7823017,-0.33069003,1.61296,4.3551636,0.95722586,-0.46853364
506,1778427208690,0.7718743242857143,-0.3259597885714286,1.5569114142857143,4.509778085714286,1.0008590714285714,-0.5534002714285714
507,1778427208700,0.75906867,-0.31550622,1.4840498999999998,4.645783,1.0574077,-0.6658431
508,1778427208710,0.7236092849999999,-0.28254698,1.40742965,4.7078621499999995,1.10742235,-0.7534259
509,1778427208720,0.6721036714285714,-0.2287589971428571,1.3028199571428571,4.7714685857142864,1.1765264999999998,-0.9135489857142858
510,1778427208730,0.636561525,-0.18281555,1.2497376,4.7671161,1.16446185,-0.98952535
511,1778427208740,0.582472975,-0.1386259766666666,1.2240145,4.757978433333333,1.0865256,-1.1243484
512,1778427208750,0.5620246333333333,-0.13021085,1.2195426666666669,4.76627615,1.03526385,-1.21409465
513,1778427208760,0.4943378,-0.1123236233333333,1.1829145333333333,4.810767666666667,0.9998846,-1.3291409666666667
514,1778427208770,0.47295445,-0.10659158,1.1670803,4.827821,0.9932669,-1.3637567
515,1778427208780,0.4228295433333333,-0.0980341739999999,1.1050644333333333,4.86587235,0.96056015,-1.4454090333333334
516,1778427208790,0.3831059842857143,-0.1012341328571428,1.0624139,4.879591514285714,0.9568549857142856,-1.508968014285714
517,1778427208800,0.33648303,-0.10732334,1.0299382,4.886245585714286,0.9882708857142856,-1.543961942857143
518,1778427208810,0.27105242,-0.1175068539999999,0.95292145,4.9035375000000005,1.05084092,-1.56146324
519,1778427208820,0.25164362,-0.1109211028571428,0.9287562785714286,4.922854028571429,1.1203923285714286,-1.5695091714285714
520,1778427208830,0.187846335,-0.0875051025,0.849744705,4.9237266,1.1362094,-1.5635096
521,1778427208840,0.17257105,-0.08055348,0.83114606,4.914054616666666,1.0968085666666667,-1.5388714166666666
522,1778427208850,0.1225942542857142,-0.0532261002857142,0.7299990142857143,4.9084113714285715,1.0522153571428572,-1.5278831
523,1778427208860,0.08882051,-0.0491753415714285,0.6935073557142858,4.9036988571428575,0.9639889571428572,-1.5318100142857145
524,1778427208870,0.0234334235714285,-0.04989838,0.6308991885714287,4.909065685714286,0.9057386257142858,-1.5258540714285715
525,1778427208880,-0.0263429989999999,-0.042116278,0.57558236,4.9151234,0.8525133500000001,-1.4912238333333334
526,1778427208890,-0.0553081045714285,-0.029905926,0.53839378,4.890194414285714,0.75594576,-1.412931285714286
527,1778427208900,-0.0799088457142857,-0.015061854,0.5056741085714286,4.854066214285715,0.7021459828571428,-1.3485286285714284
528,1778427208910,-0.1076688866666666,0.0036180973333333,0.4690110999999999,4.8012991666666665,0.7046839766666667,-1.2683598333333332
529,1778427208920,-0.1367588485714286,0.0316743228571428,0.4036994971428571,4.718454214285714,0.7953901571428572,-1.1220940285714285
530,1778427208930,-0.1546431685714286,0.055386508,0.3706836457142857,4.673860957142857,0.8152432857142857,-1.0368783257142855
531,1778427208940,-0.18019344,0.097017854,0.32562876,4.6285257,0.79076505,-0.9118691
532,1778427208950,-0.18019344,0.097017854,0.32562876,4.6285257,0.79076505,-0.9118691
533,1778427208960,-0.1969017328571428,0.1094837362857142,0.2965503985714285,4.6329547714285715,0.7205592000000001,-0.8146106214285714
534,1778427208970,-0.2426259483333333,0.1570416833333333,0.2173094383333333,4.6951103,0.4007276,-0.62964934
535,1778427208980,-0.2520650124999999,0.18153498,0.177411265,4.71381815,0.2625575225,-0.5586935424999999
536,1778427208990,-0.24824621,0.19897503,0.1428132,4.7230573,0.111941054,-0.46746463
537,1778427209000,-0.239221285,0.199584815,0.13208087,4.7349500375,0.101384543,-0.4160183225
538,1778427209010,-0.2269383257142857,0.2051600457142857,0.1023578862857143,4.736649,0.09987647,-0.40866885
539,1778427209020,-0.2187932399999999,0.21757366,0.054881252,4.736649,0.09987647,-0.40866885
540,1778427209030,-0.225013122,0.23367217,0.0023781883999999,4.744071,0.121317842,-0.3691764119999999
541,1778427209040,-0.2416604399999999,0.2752193133333333,-0.2079084683333333,4.585485333333334,0.2637156166666667,-0.2488003233333333
542,1778427209050,-0.2411116285714285,0.2783350528571428,-0.2387508585714285,4.471686285714286,0.3336633257142857,-0.2109012257142857
543,1778427209060,-0.2351792257142857,0.2930571771428571,-0.3466578514285715,4.326387714285715,0.3983495757142857,-0.1970476685714285
544,1778427209070,-0.2537343128571429,0.3079186557142857,-0.4118968528571428,4.2407138714285715,0.4014911742857143,-0.1929679628571428
545,1778427209080,-0.2681864,0.3284338,-0.52405494,4.070271616666666,0.3947716566666666,-0.1645772716666666
546,1778427209090,-0.2608166,0.3169348857142857,-0.6029794199999999,3.996345999999999,0.41706824,-0.1511673271428571
547,1778427209100,-0.2590191666666666,0.3084326333333333,-0.6746328333333333,3.7400224666666664,0.5358306466666667,-0.1165225466666666
548,1778427209110,-0.2540305142857142,0.3153842528571428,-0.8256143914285714,3.4617078428571424,0.6633342000000001,-0.0884009242857142
549,1778427209120,-0.26904008,0.34093451,-0.96560514,3.119885157142857,0.770672,-0.057726764
550,1778427209130,-0.2780649885714285,0.3548726185714286,-1.0295461457142856,2.8878436,0.7961755942857144,-0.0393135415714285
551,1778427209140,-0.2925693414285714,0.3841426114285714,-1.1516699571428572,2.493966357142857,0.7918558771428572,-0.0061304691428571
552,1778427209150,-0.2944509857142857,0.4075586114285714,-1.2076575285714284,2.3151574142857143,0.7745989414285714,0.0107774082857142
553,1778427209160,-0.2867139016666667,0.4303401766666666,-1.29774845,1.8178840333333337,0.6763805566666666,0.0394008086666666
554,1778427209170,-0.2905657514285714,0.4384750714285714,-1.3629279142857142,1.3774793142857145,0.5371250957142857,0.0412334051428571
555,1778427209180,-0.29349273,0.4600878,-1.4299614,0.89369583,0.38423425,0.05100725
556,1778427209190,-0.2922731449999999,0.460789065,-1.44044985,0.504142005,0.327856475,0.0625882333333333
557,1778427209200,-0.288187545,0.458045015,-1.4409072,0.1765909666666666,0.32218052,0.07406741
558,1778427209210,-0.2801121614285714,0.4587637085714285,-1.4141852428571429,-0.30178925,0.3279910171428571,0.0892517742857142
559,1778427209220,-0.253478188,0.464441738,-1.30723482,-0.6231436419999999,0.317497216,0.09028588
560,1778427209230,-0.22963883,0.4601749457142857,-1.2311346285714284,-0.8890270814285713,0.2842486914285714,0.0849975337142857
561,1778427209240,-0.2202364266666666,0.4591528099999999,-1.2004969333333333,-0.9745845666666666,0.2591086733333334,0.0789543306666666
562,1778427209250,-0.2039956433333333,0.4607179133333334,-1.1461644666666668,-1.1123856,0.2017891466666666,0.0616973866666666
563,1778427209260,-0.1973460071428571,0.4742785142857143,-1.1131486285714287,-1.2400782857142858,0.1184860427142857,0.034535702
564,1778427209270,-0.1972472733333333,0.5082410333333333,-1.0898197666666667,-1.3920091333333335,-0.0014762576666666,0.0062613688
565,1778427209280,-0.1950926833333333,0.5261079166666667,-1.0844332,-1.5498160333333333,-0.0747800876666666,-0.0223474859333333
566,1778427209290,-0.197602995,0.53451287,-1.0751542,-1.70836105,-0.0880409529999999,-0.045662176
567,1778427209300,-0.2003775442857142,0.5421396171428572,-1.0535109857142857,-1.843155,-0.0710130831428571,-0.0614574065714285
568,1778427209310,-0.20714623,0.5519427666666666,-0.9716421,-2.284254133333333,0.0198022156666666,-0.1110247583333333
569,1778427209320,-0.2100935566666666,0.5482840133333333,-0.930969,-2.3744840333333332,0.041793364,-0.1191696299999999
570,1778427209330,-0.2085894066666666,0.5374703666666667,-0.8564117666666666,-2.61786305,0.12873985,-0.135612085
571,1778427209340,-0.208924795,0.5241159666666667,-0.7619245766666666,-2.8599183499999996,0.24740042,-0.149891055
572,1778427209350,-0.2395087428571428,0.5271125857142857,-0.6769645914285715,-3.041388871428571,0.3512256971428572,-0.14804755
573,1778427209360,-0.27660152,0.56759405,-0.5488735,-3.2330042333333338,0.4476624233333333,-0.1190678133333333
574,1778427209370,-0.2756156833333333,0.56841727,-0.5376635,-3.2954652,0.4783074999999999,-0.106901415
575,1778427209380,-0.2630844466666666,0.5833063900000001,-0.4033162333333333,-3.3970216,0.4921537666666666,-0.0678569466666666
576,1778427209390,-0.26207832,0.593672875,-0.3129958916666666,-3.371187133333333,0.3558799166666666,-0.0421751558333333
577,1778427209400,-0.25751504,0.5871161514285715,-0.2903479442857142,-3.354850042857143,0.2824379142857142,-0.0190022729999999
578,1778427209410,-0.23132447,0.56491101,-0.25711866,-3.33562955,0.214490065,0.01488984075
579,1778427209420,-0.21196358,0.55277616,-0.24044085,-3.3238704,0.18325958,0.034513887
580,1778427209430,-0.1742987866666666,0.5366268366666667,-0.2262327133333333,-3.319085283333333,0.158621345,0.0480547338333333
581,1778427209440,-0.1463151671428571,0.5328708142857143,-0.2267205442857142,-3.3764266571428574,0.1638864185714285,0.0505490995714285
582,1778427209450,-0.15708233,0.5336897,-0.2344039199999999,-3.5442402,0.21135938,0.060170226
583,1778427209460,-0.157862866,0.5341043400000001,-0.225037516,-3.61955988,0.216734992,0.0758694635999999
584,1778427209470,-0.1577226183333333,0.5355291833333333,-0.2043310183333333,-3.771278466666667,0.2154318066666666,0.10802134
585,1778427209480,-0.1381700857142857,0.5317034571428572,-0.0990562994285714,-3.966042542857143,0.1399754057142857,0.1596976314285714
586,1778427209490,-0.1246210933333333,0.5310269166666667,-0.0291683679333333,-4.088571833333334,0.06515896175,0.1950696366666666
587,1778427209500,-0.0889686033333333,0.577869125,0.0998838757,-4.249204166666666,-0.1494329057916666,0.2155081616666666
588,1778427209510,-0.0605348892857142,0.5717842257142857,0.1794007085714286,-4.306556342857143,-0.3161227599999999,0.1944078614285714
589,1778427209520,-0.0443013634999999,0.5700942299999999,0.245349685,-4.3368378000000005,-0.4108577833333333,0.1684969999999999
590,1778427209530,-0.07476046,0.57033813,0.37654635,-4.3661594,-0.49098295,0.1337795
591,1778427209540,-0.08646846,0.5428975433333334,0.4174023833333333,-4.4855070999999995,-0.5161047766666667,0.0915025233333333
592,1778427209550,-0.060552314,0.45094094,0.5687527,-4.609698371428571,-0.21982422,0.1101302742857142
593,1778427209560,-0.025950992,0.4084471571428571,0.6351328857142857,-4.552386028571428,0.0574649657142857,0.0781034885714285
594,1778427209570,-0.020184105,0.40136486,0.64619625,-4.5414777,0.09682214,0.07223482
595,1778427209580,0.0354085696666666,0.4316308533333333,0.6151171966666666,-4.318817216666667,0.04220061,-0.1299361306666666
596,1778427209590,0.0398295583333333,0.45462,0.5733261433333333,-4.1265473,-0.3034473,-0.36453384
597,1778427209600,-0.019427964,0.425707756,0.48913832,-4.11249746,-0.5545129400000001,-0.444923696
598,1778427209610,-0.0742421308333333,0.3937932916666666,0.44854244,-4.171853333333334,-0.768468475,-0.4533129266666666
599,1778427209620,-0.09198707,0.3895959,0.4472517,-4.296597,-0.9217193,-0.3973678499999999
600,1778427209630,-0.0993757166666666,0.3451319333333333,0.5277442333333334,-4.6164612,-1.1034771666666667,-0.2351322133333333
601,1778427209640,-0.0531128529999999,0.25294158,0.68247885,-4.969108883333333,-1.0305296833333333,-0.0545706291666666
602,1778427209650,-0.0306521936666666,0.2290174233333333,0.7254488333333334,-5.1040845,-0.91011287,0.022983806
603,1778427209660,0.0512921928571428,0.1303821778571428,0.89440755,-5.206099000000001,-0.6955136971428572,0.0915425228571428
604,1778427209670,0.0703293083333333,0.1034511641666666,0.942300875,-5.176624733333334,-0.61575214,0.090968018
605,1778427209680,0.1126590083333333,0.0742827933333333,1.0360564166666666,-4.9348495,-0.62455885,0.0331648926666666
606,1778427209690,0.1169493285714285,0.08026601,1.0268978714285717,-4.734402,-0.8674286857142857,-0.0273798542857142
607,1778427209700,0.1542569666666666,0.1045996,0.9567834333333334,-4.578740466666666,-1.2215268666666663,-0.0934114799999999
608,1778427209710,0.1840148066666666,0.093989225,0.9170453666666668,-4.3918922333333335,-2.0951150666666667,-0.2583450933333333
609,1778427209720,0.1918201316666666,0.0298594666666666,0.9323003333333334,-4.4665957333333335,-2.2839233333333335,-0.3004948
610,1778427209730,0.19653587,-0.07268717,1.0398778,-4.600019016666667,-2.225229416666666,-0.3043381599999999
611,1778427209740,0.1936088642857143,-0.10993673,1.101762942857143,-4.6578913,-1.9794652,-0.2513274142857143
612,1778427209750,0.207359665,-0.14820987,1.1968077,-4.64372125,-1.7141642,-0.17669277
613,1778427209760,0.28959006,-0.16257046,1.2757452,-4.517195666666667,-1.6084081666666667,-0.1334740553333333
614,1778427209770,0.28959006,-0.16257046,1.2757452,-4.350735,-1.5943583,-0.119729586
615,1778427209780,0.3694117933333333,-0.1537691333333333,1.1963706666666667,-3.832568566666667,-2.0509799999999996,-0.2180279866666666
616,1778427209790,0.4090076066666666,-0.1697253533333333,1.1444773666666668,-3.6959639,-2.25852155,-0.2726749799999999
617,1778427209800,0.45869748,-0.235672268,1.09464916,-3.64649904,-2.42797564,-0.34104608
618,1778427209810,0.4770806666666667,-0.2960741733333333,1.1086012333333333,-3.6950475,-2.5302802,-0.4326453249999999
619,1778427209820,0.4808207266666667,-0.3298261533333333,1.1369159333333332,-3.76114825,-2.476498533333334,-0.464104885
620,1778427209830,0.4591731433333333,-0.41194477,1.2855526833333333,-3.753894166666667,-2.0740911166666667,-0.4551964183333333
621,1778427209840,0.4560631933333333,-0.4292526933333334,1.3285327666666669,-3.628997666666667,-1.9653062,-0.4215733783333333
622,1778427209850,0.4733609333333333,-0.46321807,1.3500788,-3.3041701,-1.8467983,-0.35430184
623,1778427209860,0.4767147933333333,-0.4964720666666666,1.3282279,-3.108056933333333,-1.8823048833333331,-0.297287765
624,1778427209870,0.4729544333333333,-0.5056596066666667,1.2928600833333337,-2.9362764,-1.9798143,-0.2196060599999999
625,1778427209880,0.4727105199999999,-0.5055783,1.288307,-2.9362764,-1.9798143,-0.2196060599999999
626,1778427209890,0.5116965066666667,-0.5059035266666667,1.3455867333333331,-2.8686230666666668,-2.063757333333333,-0.162337442
627,1778427209900,0.5839365,-0.5109444399999999,1.4799745166666665,-2.5312219,-2.2149719833333332,0.010104729
628,1778427209910,0.6071695666666667,-0.5113509933333333,1.5398255666666667,-2.3105978,-2.1445443666666666,0.050701816
629,1778427209920,0.6250567666666668,-0.49419552,1.5919018333333332,-2.038661,-2.0226257666666667,0.0957531286666666
630,1778427209930,0.6372830749999999,-0.4548639266666667,1.6616721,-1.8468747,-1.8992564,0.127289045
631,1778427209940,0.6385738,-0.4486847,1.6723536000000003,-1.7460055,-1.820073,0.14355333
632,1778427209950,0.6487675,-0.4045459633333333,1.7486793333333337,-1.4333953,-1.4797447,0.194866015
633,1778427209960,0.6503428,-0.4013039,1.7529682,-1.3417655,-1.3810136,0.20922135
634,1778427209970,0.6494789666666666,-0.2674546333333333,1.8055627,-0.9128872,-1.0968339333333332,0.2579633083333333
635,1778427209980,0.6552008466666667,-0.2112928266666666,1.9231610666666663,-0.6037384866666667,-0.9279042666666668,0.27382034
636,1778427209990,0.663672868,-0.197474938,2.00743412,-0.439761888,-0.8301964,0.279134868
637,1778427210000,0.6762996416666667,-0.2322086633333333,2.1163938333333334,0.0172060466666666,-0.36626462,0.3113376466666666
638,1778427210010,0.6845114833333333,-0.2452988633333333,2.1113630666666667,0.5068145533333333,0.2112575733333333,0.3724750733333333
639,1778427210020,0.6945832200000001,-0.2446484249999999,2.0599982999999997,0.86460345,0.656603775,0.4310417849999999
640,1778427210030,0.7222271166666667,-0.23639592,1.9175,1.2560917,1.13335865,0.4849760866666666
641,1778427210040,0.7319329533333333,-0.23202574,1.8657592,1.3881403833333332,1.2825115833333334,0.4934009333333333
642,1778427210050,0.7567718000000001,-0.21755334,1.7050181999999998,1.8069903333333333,1.5800538666666668,0.4466443
643,1778427210060,0.7668943766666668,-0.21224816,1.6236923,1.945504033333333,1.6278032,0.4142175333333333
644,1778427210070,0.765166625,-0.1884052933333333,1.5135334666666669,2.1724913166666666,1.4961362500000002,0.24200445
645,1778427210080,0.7355917,-0.19421865,1.4996607,2.296548,1.3764321,0.079107046
646,1778427210090,0.7043398499999999,-0.2221471,1.5259427499999998,2.3509913,1.3641384499999998,0.0539852144999999
647,1778427210100,0.6385331733333334,-0.2880859166666666,1.5821046,2.577876766666667,1.3529902166666667,0.049225558
648,1778427210110,0.6091574719999999,-0.338946604,1.6195335399999995,2.74174638,1.3475382,0.0898582771999999
649,1778427210120,0.6015594928571428,-0.3827139657142857,1.6432318,3.1692562428571427,1.3116803714285712,0.2199987542857142
650,1778427210130,0.6036084039999999,-0.398254942,1.64393742,3.37463348,1.27560878,0.274278492
651,1778427210140,0.6271184828571429,-0.3980807128571428,1.6016352714285715,3.695429285714286,1.1942197428571428,0.3380702771428572
652,1778427210150,0.6570505,-0.36813122,1.4678296,4.156174,0.9958631,0.3419318199999999
653,1778427210160,0.6566134833333334,-0.3637610466666667,1.4546987500000002,4.181906783333333,0.9778934833333331,0.3364594883333333
654,1778427210170,0.6607702320000001,-0.324628684,1.36726272,4.36402122,0.80557856,0.261877938
655,1778427210180,0.7029678533333333,-0.2316801733333333,1.2474102,4.4563126,0.6310747,0.109701216
656,1778427210190,0.7098585000000001,-0.2116383566666666,1.2196037333333334,4.4623704,0.6056729,0.069027774
657,1778427210200,0.6975000166666666,-0.1861897233333333,1.1872034,4.422817133333333,0.5892304199999999,-0.1590794933333333
658,1778427210210,0.6711367,-0.1630461,1.1692144800000002,4.37199304,0.6368575639999999,-0.282555718
659,1778427210220,0.6084501333333333,-0.1138887616666666,1.2003443666666669,4.3251295333333335,0.7514660666666667,-0.40266201
660,1778427210230,0.6037242500000001,-0.093267638,1.20464345,4.353992833333334,0.8719846833333333,-0.499255055
661,1778427210240,0.607925696,-0.0572472412,1.17134886,4.392732,0.93111134,-0.6017023
662,1778427210250,0.6109299566666667,-0.01778559,1.1344361333333337,4.369061166666667,0.94103789,-0.7229844666666666
663,1778427210260,0.6063768599999999,0.0090737,1.11934584,4.34050322,0.97665134,-0.828699804
664,1778427210270,0.5580914916666666,0.0335385425,1.1170367499999998,4.31446505,1.05519335,-0.97791892
665,1778427210280,0.5103869157142856,0.0289128359999999,1.1052735714285713,4.318010142857143,1.1776391142857143,-1.1401145
666,1778427210290,0.4326065366666666,0.015183812,1.0698592,4.3550619,1.257517,-1.2224431666666666
667,1778427210300,0.40166977,0.009634708,1.0544518,4.36845,1.272585,-1.2383766
668,1778427210310,0.3051397466666666,0.0170233516666666,0.9770184166666668,4.429485433333333,1.2747485166666668,-1.2123129833333337
669,1778427210320,0.23403804,0.053112853,0.90377223,4.4555856,1.266192757142857,-1.1507609857142858
670,1778427210330,0.22440335,0.0600035,0.8739533999999999,4.4813075,1.3159565,-1.1053606
671,1778427210340,0.2042293916666666,0.0723517833333333,0.8437687333333334,4.49841175,1.30923695,-1.1059715
672,1778427210350,0.1651315928571428,0.0849265578571428,0.8083311571428571,4.569185142857143,1.2552626,-1.110640285714286
673,1778427210360,0.1268366733333333,0.0963267583333333,0.7698620333333333,4.584900333333333,1.22819545,-1.11004395
674,1778427210370,0.114701815,0.100005835,0.7565076,4.6680794,0.9851729,-1.0958922
675,1778427210380,0.0773114201666666,0.1119679141666666,0.7151636666666666,4.691903133333333,0.9410888066666666,-1.0892744666666667
676,1778427210390,0.0461917177833333,0.1176084866666666,0.6794705333333333,4.703815,0.91904676,-1.0859656
677,1778427210400,-0.0121145277666666,0.1345403733333333,0.5798915666666667,4.7517171,0.8881980666666666,-1.0279843666666666
678,1778427210410,-0.0311516428571428,0.15038334,0.5359546142857143,4.764378014285714,0.8371690285714285,-0.9595820142857144
679,1778427210420,-0.0636520833333333,0.188354485,0.4780360166666666,4.70272055,0.8028550999999999,-0.8796459666666667
680,1778427210430,-0.08000467,0.20354846,0.47167388,4.682053000000001,0.786794425,-0.84536113
681,1778427210440,-0.0954527266666666,0.2019223466666666,0.47167388,4.6861509,0.7585419,-0.7872016466666666
682,1778427210450,-0.1274290342857142,0.2039665942857143,0.4532407314285714,4.7890092428571425,0.6448337142857143,-0.6514005342857142
683,1778427210460,-0.12823918,0.20793895,0.43941587,4.800943,0.6310238,-0.6401868
684,1778427210470,-0.1336053466666666,0.22127307,0.3992915966666666,4.832606,0.56250508,-0.6159557999999999
685,1778427210480,-0.14490392,0.2350659785714285,0.3237558371428571,4.985075,0.1890846162857143,-0.4823435571428572
686,1778427210490,-0.17141244,0.2651069199999999,0.191809975,4.9842024,-0.017562376,-0.399964
687,1778427210500,-0.18098617,0.27928457,0.16561942,4.9842024,-0.017562376,-0.399964
688,1778427210510,-0.1663076142857142,0.3105843257142857,0.0984203785714285,4.858909257142857,-0.0288851987142857,-0.3272274228571428
689,1778427210520,-0.1629566633333333,0.3251612566666667,0.06152798,4.755433,0.024129177,-0.31322116
690,1778427210530,-0.1605886399999999,0.32448031,0.00936030167,4.709618333333333,0.0927497056666666,-0.3051781066666666
691,1778427210540,-0.14769155,0.3372148,-0.0484784399999999,4.637536,0.2078468999999999,-0.3136793
692,1778427210550,-0.1513502966666666,0.3435362999999999,-0.0867327066666666,4.637536,0.2078468999999999,-0.3136793
693,1778427210560,-0.1666125057142857,0.3555782285714285,-0.1887479471428571,4.5529094285714296,0.2575887857142857,-0.3838197157142857
694,1778427210570,-0.1960277,0.3581103333333333,-0.29727343,4.48222385,0.29336805,-0.40424007
695,1778427210580,-0.22347122,0.36513455,-0.3892823071428571,4.416664928571429,0.3158827914285714,-0.4112213971428571
696,1778427210590,-0.2728614466666667,0.3744425883333333,-0.5319720916666667,4.327115,0.3269656333333333,-0.4044437083333334
697,1778427210600,-0.2998447333333333,0.386496125,-0.6481069166666666,3.9672133333333335,0.3269656333333333,-0.3257947833333333
698,1778427210610,-0.30544465,0.3944539033333333,-0.6917476666666666,3.848603666666667,0.3075706533333333,-0.2967277866666666
699,1778427210620,-0.3108805071428571,0.4123498285714286,-0.7959436142857143,3.5484289999999996,0.2226603771428571,-0.2335905142857142
700,1778427210630,-0.3212992283333333,0.4152478183333333,-0.87190045,3.3489668666666668,0.1718567533333333,-0.1974621933333333
701,1778427210640,-0.3256897314285714,0.4159389085714285,-0.9472591142857144,3.1226994571428572,0.1453859271428571,-0.15435256
702,1778427210650,-0.3342369833333333,0.42837867,-1.0324992666666668,2.620535416666667,0.1160643966666666,-0.0662788783333333
703,1778427210660,-0.34837398,0.43654987,-1.05445175,2.24406435,0.1435533366666666,0.0106646891666666
704,1778427210670,-0.36337486,0.44673342,-1.0533541,1.980621457142857,0.1819505842857142,0.0890554301428571
705,1778427210680,-0.34756093,0.4495994166666666,-1.0328549166666667,1.75364135,0.204945295,0.169591465
706,1778427210690,-0.3009322,0.44856274,-0.9957288,1.5198836333333332,0.1406008183333333,0.2822451933333333
707,1778427210700,-0.2758436114285714,0.4503921314285714,-1.0020009428571428,1.420567114285714,0.0561996028571428,0.32655112
708,1778427210710,-0.26601144,0.46199851,-1.0180879,1.3657419666666666,-0.0047851093333333,0.34569884
709,1778427210720,-0.2629770014285714,0.4733464357142857,-1.0383446142857145,1.282533442857143,-0.0875282571428571,0.3719951257142857
710,1778427210730,-0.2526163633333333,0.4975493333333333,-1.0871772666666668,1.130355233333333,-0.13708834,0.41223222
711,1778427210740,-0.2305622349999999,0.5092573383333333,-1.10612145,1.0243191766666666,-0.1452841166666666,0.4257730633333333
712,1778427210750,-0.18409611,0.5247867,-1.1318953,0.8040004766666667,-0.1601485033333333,0.4324925966666667
713,1778427210760,-0.1572043,0.5288723,-1.1397007,0.6091417571428571,-0.1571668971428571,0.4004876171428572
714,1778427210770,-0.1286965416666666,0.5366979666666666,-1.1454428666666667,0.4238386833333333,-0.1708641,0.36364299
715,1778427210780,-0.1199053766666666,0.5384053999999999,-1.1423634333333337,0.3987423,-0.17394388,0.3585779
716,1778427210790,-0.105929525,0.5504937857142858,-1.0967102714285717,0.00988293,-0.0095774928571428,0.2727295228571428
717,1778427210800,-0.0949648916666666,0.5610693,-1.043820966666667,-0.1828014233333333,0.0915788833333333,0.2195551533333333
718,1778427210810,-0.08738315,0.563234085,-1.008229525,-0.27845274,0.1220712399999999,0.1808161133333333
719,1778427210820,-0.0865555714285714,0.5604247057142857,-0.9752659285714286,-0.4180936214285714,0.1221512328571428,0.1036071085714285
720,1778427210830,-0.0895174166666666,0.5559064366666667,-0.9655847666666668,-0.4798346533333333,0.122987534,0.075085518
721,1778427210840,-0.0991869771428571,0.5391865371428571,-0.9383736071428572,-0.6536694457142858,0.1613993242857143,0.0296924134285714
722,1778427210850,-0.0956675999999999,0.5340207428571428,-0.9160551657142856,-0.7122252628571429,0.1856594085714285,0.016406095
723,1778427210860,-0.0883588083333333,0.5325006166666667,-0.90762405,-0.7421503899999999,0.1986075716666666,0.0011962774999999
724,1778427210870,-0.05949534,0.5235061666666666,-0.8962311666666668,-0.8597419483333333,0.2492584633333333,-0.1129591649999999
725,1778427210880,-0.0543237278571428,0.5120420857142857,-0.9086680314285714,-0.9270534685714286,0.2907718428571428,-0.1715004162857142
726,1778427210890,-0.0678088345,0.5077430500000001,-0.92048052,-1.08146055,0.38851028,-0.271758675
727,1778427210900,-0.090523572,0.502864725,-0.91996217,-1.2525792,0.47708575,-0.3305544549999999
728,1778427210910,-0.1156774857142857,0.4964488214285714,-0.8989548914285714,-1.4248868428571428,0.54262288,-0.3626576014285714
729,1778427210920,-0.1410448142857142,0.4938789857142857,-0.8717755914285714,-1.5948818571428571,0.5662502971428571,-0.3753548728571428
730,1778427210930,-0.1524275899999999,0.4924677566666666,-0.8584647266666666,-1.672803533333333,0.5602143566666666,-0.3713042533333333
731,1778427210940,-0.1737296499999999,0.490485935,-0.8257799,-1.7990745,0.49877146,-0.3352123099999999
732,1778427210950,-0.1824903266666666,0.49273199,-0.8053111999999999,-1.8722510666666663,0.4234314166666666,-0.3019710666666667
733,1778427210960,-0.1842790399999999,0.5064726566666666,-0.7751875333333333,-1.9524780666666668,0.2184861299999999,-0.2475022399999999
734,1778427210970,-0.1726929957142857,0.5076167571428571,-0.755601557142857,-2.032741414285714,0.0387026742857142,-0.1971785814285714
735,1778427210980,-0.15988737,0.5085053,-0.7361405,-2.129985383333333,-0.058057654,-0.161828385
736,1778427210990,-0.154978555,0.51143227,-0.7234873250000001,-2.209805,-0.09399689,-0.1474475999999999
737,1778427211000,-0.14881531,0.5145596128571428,-0.7051195371428571,-2.2894137285714287,-0.1215839985714285,-0.1372265157142857
738,1778427211010,-0.13027183,0.51015175,-0.6395698599999999,-2.512183333333333,-0.1200859283333333,-0.138055535
739,1778427211020,-0.11964113,0.5095114500000001,-0.60710858,-2.61801575,-0.091248,-0.1563814999999999
740,1778427211030,-0.121267244,0.5183026000000001,-0.5802777333333333,-2.6971228000000003,-0.06566802,-0.1740966
741,1778427211040,-0.1323422111428571,0.5292468857142857,-0.5508161071428571,-2.935752885714286,-0.033859388,-0.2149373057142856
742,1778427211050,-0.1381178,0.5349702,-0.5324701,-2.954297,-0.030390546,-0.21685717
743,1778427211060,-0.1283204866666666,0.5662322,-0.4621407666666666,-3.1207578666666667,-0.068162382,-0.2630792966666666
744,1778427211070,-0.1269760457142857,0.5814973285714286,-0.4033510442857143,-3.2470542428571427,-0.1039343614285714,-0.3054980642857142
745,1778427211080,-0.13421515,0.57521647,-0.348130065,-3.33876035,-0.1209513219999999,-0.341626375
746,1778427211090,-0.1352924533333333,0.5515768799999999,-0.2927406533333333,-3.43133195,-0.0737110723333333,-0.36231943
747,1778427211100,-0.136257955,0.52487815,-0.25870411,-3.4560719666666664,-0.0408261596666666,-0.36565374
748,1778427211110,-0.14318925,0.5023666583333334,-0.23738172,-3.4890077166666664,0.0280488958333333,-0.36417749
749,1778427211120,-0.19177948,0.4847843600000001,-0.20184104,-3.5807902666666664,0.1728748566666666,-0.29937488
750,1778427211130,-0.16317008,0.50165531,-0.1621029483333333,-3.6240090333333335,0.1856012166666666,-0.2688316233333333
751,1778427211140,-0.1434665571428571,0.5076864285714285,-0.1207474657142857,-3.6531706,0.0654280314285714,-0.2705478485714285
752,1778427211150,-0.1390121766666666,0.5091150666666667,-0.1012050953333333,-3.6427422666666662,-0.0272344073333333,-0.2898555466666666
753,1778427211160,-0.15671646,0.50265127,-0.101957168,-3.621362,-0.13271047,-0.31398472
754,1778427211170,-0.17462401,0.4931995066666666,-0.1183199133333333,-3.6149986333333337,-0.43651412,-0.3207551533333333
755,1778427211180,-0.1734857285714285,0.4718742042857143,-0.1396335814285714,-3.6910224142857144,-0.5404630342857143,-0.2890919714285714
756,1778427211190,-0.1490940683333333,0.4344054449999999,-0.1501815366666666,-3.8661406666666664,-0.60898175,-0.241877185
757,1778427211200,-0.1334659771428571,0.40536339,-0.1440240928571428,-4.004548971428571,-0.5484915442857143,-0.2230748971428571
758,1778427211210,-0.108677072,0.34591043,-0.09452991,-4.4182968,-0.2562885099999999,-0.1870164
759,1778427211220,-0.0917126673333333,0.3320519,-0.0522794753333333,-4.634049166666666,-0.1007927616666666,-0.18262325
760,1778427211230,-0.0336401735,0.366190075,0.065217217,-4.829653266666667,-0.2210823133333333,-0.27835092
761,1778427211240,-0.0495455748333333,0.3671758916666667,0.1554155733333333,-4.967403566666667,-0.5964590133333334,-0.4336125033333333
762,1778427211250,-0.0547592939999999,0.365875,0.16940013,-5.005175433333333,-0.8106436333333334,-0.4983387666666667
763,1778427211260,-0.0781491614285714,0.3474680071428571,0.1990795585714286,-5.0565896,-1.1192578,-0.5534439
764,1778427211270,-0.1860677666666666,0.2611127833333333,0.35811032,-5.176141033333333,-1.4236468666666664,-0.4905756816666666
765,1778427211280,-0.1602735766666666,0.21793954,0.49476462,-5.4004814166666675,-1.57893395,-0.2446006166666667
766,1778427211290,-0.0505430171428571,0.1770922171428571,0.6365615428571428,-5.480072285714286,-1.4378676857142858,-0.1505782814285714
767,1778427211300,-0.03506302,0.17311986,0.6504648,-5.488319,-1.4149166,-0.14156802
768,1778427211310,0.0249506449999999,0.1139599041666666,0.7648820399999999,-5.5016816,-1.00166625,-0.2130392499999999
769,1778427211320,0.0191648823428571,0.073018195,0.83434314,-5.490282428571429,-0.7668540571428571,-0.2852958714285714
770,1778427211330,0.0031709165999999,0.06274756,0.8498667,-5.489235,-0.6423248,-0.3297145
771,1778427211340,-0.0685231638285714,0.0928886928571428,0.9304462714285714,-5.412004285714285,-0.8287478,-0.3675663571428572
772,1778427211350,-0.1563505853333333,0.1053516753333333,1.0283323666666666,-5.3011903333333334,-1.1882856,-0.3517565866666667
773,1778427211360,-0.1926027,0.096194637,1.12561445,-5.178711866666666,-1.4992669,-0.2727004333333333
774,1778427211370,-0.17891288,0.078388722,1.2252544,-4.9177706,-1.9530125,-0.0742964830999999
775,1778427211380,-0.1274871163333333,0.05800135555,1.2720965833333333,-4.4831398,-2.2562817,0.1496619846
776,1778427211390,0.0940124541428571,-0.0236599162,1.3103900714285714,-4.234757742857143,-2.3382394428571422,0.2371029857142857
777,1778427211400,0.1242958699999999,-0.0403275566666666,1.2855425,-4.018933533333333,-2.27934175,0.2651155333333333
778,1778427211410,0.1271502828571428,-0.0742203572857142,1.2035807285714284,-3.9332304857142857,-1.904677857142857,0.2983858714285713
779,1778427211420,0.1186451366666666,-0.0924444191666666,1.16318775,-3.9857684,-1.6669494,0.3380630066666667
780,1778427211430,0.10509324,-0.1044137557142857,1.157367142857143,-4.052545457142857,-1.5597134571428573,0.3760966371428572
781,1778427211440,0.0699431025,-0.1408923616666666,1.2079363333333333,-4.2626176,-1.3929254999999998,0.5665775
782,1778427211450,0.0902186733333333,-0.171046565,1.3105236,-4.23131085,-1.553914,0.699567975
783,1778427211460,0.1514286928571428,-0.2153610128571428,1.4452410714285715,-4.064369857142857,-1.8133316285714287,0.8200865914285715
784,1778427211470,0.17421748,-0.23086715,1.4917942999999998,-4.000098,-1.9042196,0.8576548
785,1778427211480,0.2490389199999999,-0.2514781,1.5978371000000002,-3.70596675,-2.1691314666666663,0.9013316916666666
786,1778427211490,0.3231460357142857,-0.2931442785714285,1.7179225714285715,-3.0864403571428576,-2.418306314285714,0.911978162857143
787,1778427211500,0.30245668,-0.270869465,1.7329059999999998,-2.7850111,-2.3700044,0.97455917
788,1778427211510,0.28158148,-0.2237528966666666,1.7469109333333332,-2.2682954,-2.223549466666667,1.1372274666666666
789,1778427211520,0.2857382216666667,-0.2085081049999999,1.7433741333333332,-2.1052961666666667,-2.1649063666666666,1.2025391
790,1778427211530,0.3606046585714285,-0.1483274799999999,1.6537636571428571,-1.6331482142857143,-2.0901844857142855,1.3297663142857143
791,1778427211540,0.4061822433333333,-0.1072217066666666,1.5842997333333333,-1.3853405666666667,-2.0293452,1.3390166
792,1778427211550,0.45295325,-0.069760166,1.5102102000000002,-1.3057244666666663,-1.9756145166666663,1.324152233333333
793,1778427211560,0.45295325,-0.069760166,1.5102102,-1.2438743,-1.8377881,1.2788464
794,1778427211570,0.4554969528571428,-0.0653348214285714,1.5006974,-1.240732757142857,-1.7230326714285715,1.2554589714285715
795,1778427211580,0.5025902999999999,-0.0536006895,1.5588714499999998,-1.227177416666667,-1.3128002666666667,1.1964305333333334
796,1778427211590,0.5444742542857143,-0.0548551185714285,1.6283877714285713,-1.1027645285714287,-0.9160578428571428,1.1045316
797,1778427211600,0.5857658766666667,-0.0636216,1.7536593333333332,-0.88315844,-0.5999714666666667,1.0040079333333332
798,1778427211610,0.58997345,-0.0646989,1.9034038,-0.58312181,-0.3736968083333333,0.9314422666666666
799,1778427211620,0.58997345,-0.0646989,1.9034038,-0.5371033,-0.34345898,0.9219484
800,1778427211630,0.5779518385714286,-0.0447674222857142,1.9060171142857143,-0.0850629971428571,-0.1704095857142857,0.8736900571428572
801,1778427211640,0.5767104383333334,-0.0242798723333333,1.8863804333333336,0.3721950966666666,-0.0048614695,0.8240063000000001
802,1778427211650,0.5765231714285715,-0.0047737977142857,1.8582268714285717,0.6557202128571429,0.0652971305428571,0.7497497857142857
803,1778427211660,0.556567025,0.0128869311666666,1.8569681166666667,1.0860674783333333,0.1586213366666666,0.6713917833333333
804,1778427211670,0.5415966533333333,0.0102241741333333,1.8687676333333336,1.133155,0.16783522,0.66645396
805,1778427211680,0.5277341,0.0172977581333333,1.9246651666666663,1.5316428,0.09870564,0.7120652533333334
806,1778427211690,0.5320433,0.02426971,1.9441378,1.7308867,0.06414085,0.7348709000000001
807,1778427211700,0.5529852714285715,0.0299494842857142,1.9732335714285711,1.8625718142857144,0.0495237175,0.73692166
808,1778427211710,0.6249755,0.055673982,2.0556383,2.7403669833333333,0.0970003091666666,0.7136178933333334
809,1778427211720,0.6529547833333333,0.07167085,2.0671431166666667,2.864296233333333,0.131132405,0.6989825833333333
810,1778427211730,0.6946746999999999,0.09402988,2.0763407,3.2221105,0.2448806083333333,0.6380996499999999
811,1778427211740,0.7972939428571427,0.1072710642857143,2.0798599714285713,3.700185428571429,0.4715007142857143,0.4913101857142857
812,1778427211750,0.8319997999999998,0.108146552,2.02874635,3.98986635,0.69432473,0.35941785
813,1778427211760,0.8512692,0.1103113139999999,1.9835913,4.1905355,0.86819226,0.2591596
814,1778427211770,0.87133133,0.15872878,1.8608403,4.4354925,1.1693488,0.07971791
815,1778427211780,0.8502238,0.2744411057142857,1.6198070285714288,4.627238728571428,1.4627822857142856,-0.2347467942857143
816,1778427211790,0.7987457833333335,0.33201125,1.5085026166666669,4.6446375,1.5279267,-0.39767328
817,1778427211800,0.7052850999999999,0.3808759,1.4442916,4.586681666666666,1.5696182333333333,-0.6009386666666666
818,1778427211810,0.6760963666666667,0.3587607799999999,1.4701467333333331,4.5568,1.6681202666666666,-0.7127779066666667
819,1778427211820,0.6602301428571428,0.3459086942857143,1.4881094428571429,4.569882714285715,1.747380057142857,-0.7596109171428572
820,1778427211830,0.6492757083333333,0.3378652466666667,1.5170092999999998,4.698546416666667,1.8863518666666668,-0.8970555933333334
821,1778427211840,0.6401999566666666,0.3314217799999999,1.5274672333333337,4.7768135,1.9090557,-0.9613491666666666
822,1778427211850,0.5885200933333333,0.2964908766666667,1.5292354999999995,5.02184685,1.92048395,-1.1196650333333331
823,1778427211860,0.5501946933333334,0.2741013466666667,1.5098035333333335,5.170108833333333,1.8878790666666667,-1.1913908
824,1778427211870,0.484875855,0.244099595,1.44529775,5.555667,1.752267,-1.2942708
825,1778427211880,0.3431704366666666,0.1719815866666666,1.262218,5.749743666666667,1.670691,-1.2819261333333334
826,1778427211890,0.29831009,0.1558424366666666,1.1946835666666666,5.8536925,1.58221735,-1.2383002
827,1778427211900,0.24489233,0.14360595,1.1108575,6.003074333333333,1.3480523166666665,-1.0714067
828,1778427211910,0.1635664483333333,0.1591861133333333,0.9138439833333334,6.04283175,1.211804,-0.9665924333333334
829,1778427211920,0.15882024,0.16217409,0.866270035,6.041711866666667,1.0673852666666666,-0.8916087366666666
830,1778427211930,0.15292559,0.1572144533333333,0.8241943749999999,6.030589,0.8029569166666667,-0.764090625
831,1778427211940,0.12025092,0.1168767366666666,0.7634998,6.027865500000001,0.66958465,-0.694859235
832,1778427211950,0.11343345,0.110128377,0.7358233999999999,6.0015068,0.5238780399999999,-0.650846354
833,1778427211960,0.1127199899999999,0.09921311,0.706748535,5.9867085,0.514730325,-0.6514877499999999
834,1778427211970,0.0887159771428571,0.0995876949999999,0.6203759057142858,5.905910714285715,0.5881105,-0.6787149142857143
835,1778427211980,0.0449782336,0.105457378,0.53883632,5.7177292,0.78239621,-0.7086037199999999
836,1778427211990,0.0124092601,0.104548785,0.48835168,5.644242000000001,0.867275925,-0.7067711
837,1778427212000,-0.0147772846,0.0867936793333333,0.3807742533333333,5.381824666666667,1.1938343500000002,-0.6572401
838,1778427212010,-0.0234160004999999,0.083937822,0.31239627,5.213327566666667,1.3890057666666664,-0.6304638499999999
839,1778427212020,-0.0481857356,0.1326906699999999,0.161302088,5.05393248,1.44460464,-0.63936212
840,1778427212030,-0.079913197,0.149551405,0.085248873,4.73420565,1.4531719999999997,-0.657291
841,1778427212040,-0.13216218,0.1629566533333333,0.0368314173333333,4.574387883333333,1.4073061999999998,-0.65074964
842,1778427212050,-0.18786462,0.187145052,0.0282211575999999,4.171659780000001,1.49408476,-0.513248968
843,1778427212060,-0.1730182299999999,0.19927992,0.0028456939999999,3.939877133333334,1.6616044333333333,-0.4064290099999999
844,1778427212070,-0.20391434,0.23775777,-0.048661377,3.6680711428571433,1.804605057142857,-0.2948733971428571
845,1778427212080,-0.2336112,0.2853825,-0.048112564,3.5073591500000005,1.81266625,-0.19249892
846,1778427212090,-0.2373614199999999,0.29638923,-0.056009362,3.394985466666667,1.7406095666666666,-0.0762563439999999
847,1778427212100,-0.23472102,0.321518748,-0.096786128,3.31547116,1.51357134,0.0959058408
848,1778427212110,-0.21692323,0.3516871766666666,-0.1718799399999999,3.2342261999999997,1.2341514666666666,0.29983303
849,1778427212120,-0.205621758,0.370619174,-0.207316968,3.13758728,1.12530544,0.398131428
850,1778427212130,-0.16773337,0.48805693,-0.3594315466666666,2.9320004999999996,0.98639465,0.5235878500000001
851,1778427212140,-0.16439984,0.559544865,-0.437312095,2.705904,0.90614223,0.5906303
852,1778427212150,-0.1533727616666666,0.6749784033333333,-0.545367175,2.2554672,0.745561,0.6627888
853,1778427212160,-0.1444189966666666,0.7172979833333333,-0.5831641,2.1266764666666664,0.6826419,0.6647232
854,1778427212170,-0.1023840159999999,0.7979123600000001,-0.6681487,1.6770541833333332,0.4609232833333334,0.6481280083333334
855,1778427212180,-0.073016456,0.808498392,-0.69907734,1.37484384,0.334418174,0.59122593
856,1778427212190,-0.0491927682857142,0.8179048428571428,-0.7310966428571428,1.3185526,0.31230485,0.5778785300000001
857,1778427212200,-0.0375936591666666,0.827284,-0.7534077666666666,0.9541206033333332,0.2556725566666667,0.4863505533333332
858,1778427212210,-0.08729168,0.8496939166666667,-0.78735285,0.4143957,0.1744783899999999,0.313526585
859,1778427212220,-0.10457927,0.8626418,-0.78184438,0.0519999049999999,0.131259675,0.23747386
860,1778427212230,-0.1157210335714285,0.8659041314285714,-0.7447385514285714,-0.3488913071428571,0.05288348,0.1751437914285714
861,1778427212240,-0.1093559716666666,0.85482628,-0.7247170666666666,-0.527558505,0.0155007075,0.1366811
862,1778427212250,-0.082281225,0.8113684999999999,-0.6589815333333333,-0.89858276,-0.06047566,0.016798794
863,1778427212260,-0.072107865,0.7847103999999999,-0.63122585,-0.95860023,-0.0629954775,-0.013133603
864,1778427212270,-0.0630626216666666,0.7238938583333333,-0.6125966833333333,-1.2555825333333337,-0.050625455,-0.1632028333333333
865,1778427212280,-0.0556536513333333,0.69632109,-0.6136943333333333,-1.4117095666666668,-0.047851109,-0.2491312133333333
866,1778427212290,-0.0564492839999999,0.6727744142857143,-0.6235381371428571,-1.5527322,-0.0528616597142857,-0.3334233485714285
867,1778427212300,-0.061710916,0.6535747,-0.63479316,-1.668273,-0.059406646,-0.4045455199999999
868,1778427212310,-0.0942737903333333,0.6044051866666666,-0.6588189366666667,-1.9292651,-0.09203703,-0.48805587
869,1778427212320,-0.120738745,0.5638134,-0.6760760500000002,-2.292271766666667,-0.127976262,-0.54942238
870,1778427212330,-0.1164963471428571,0.4547739042857143,-0.6706924171428571,-2.512881457142857,-0.1336922157142857,-0.5576981571428571
871,1778427212340,-0.123950325,0.3693305133333333,-0.6125763666666667,-2.8875346333333334,-0.0429896408333333,-0.5613342416666667
872,1778427212350,-0.1263691566666666,0.3312795,-0.5745457066666667,-3.1194851499999996,0.0586939708333333,-0.53723056
873,1778427212360,-0.1412277485714285,0.3058366642857142,-0.5412162485714286,-3.2330261142857144,0.1189660057142857,-0.5178392171428572
874,1778427212370,-0.16927817,0.266235045,-0.48252815,-3.4456618,0.22915082,-0.44593162
875,1778427212380,-0.170558725,0.21876276,-0.424597935,-3.628615850000001,0.28871018,-0.35246925
876,1778427212390,-0.16305829,0.1639323333333333,-0.35876077,-3.76422795,0.263053845,-0.283288765
877,1778427212400,-0.17027126,0.1454701642857143,-0.3182677,-3.903516257142857,0.09149889,-0.1927279785714285
878,1778427212410,-0.18952326,0.1367153,-0.26739365,-3.9374337333333336,-0.0058032193333333,-0.1430442766666666
879,1778427212420,-0.1884778971428571,0.1359051414285714,-0.2427232228571428,-4.002061771428571,-0.1872956537142857,-0.1019272282857143
880,1778427212430,-0.19528578,0.1420001466666667,-0.2019223533333333,-4.0801471000000005,-0.39629884,-0.0461712291666666
881,1778427212440,-0.2392009566666666,0.18019344,-0.15655385,-4.0706022,-0.4259257999999999,0.2760092716666666
882,1778427212450,-0.22876771,0.1752454171428571,-0.1388757028571428,-4.0036108,-0.3790855142857143,0.551480427142857
883,1778427212460,-0.204371685,0.160497175,-0.13345291,-3.96611895,-0.36621371,0.67836586
884,1778427212470,-0.1421221166666666,0.13352405,-0.12604394,-3.9166134333333336,-0.3679444999999999,0.9028588133333332
885,1778427212480,-0.119946025,0.12549512,-0.12384869,-3.906636,-0.3735441,0.96684694
886,1778427212490,-0.0006910966666666,0.071691176,-0.1320300616666666,-4.02109685,-0.60193133,1.0200686
887,1778427212500,0.0300714399999999,0.0887421142857143,-0.1123062042857142,-4.1255220999999995,-0.7542658285714285,1.0052223571428571
888,1778427212510,0.078002515,0.1406992716666666,-0.0533770992833333,-4.231234416666667,-0.6850599166666668,0.8359182333333334
889,1778427212520,0.06515624,0.179522665,0.10680501715,-4.19389525,-0.5575672500000001,0.6869179750000001
890,1778427212530,0.0363029313333333,0.1918811133333333,0.2272490266666667,-4.0717223,-0.43569964,0.6194682533333333
891,1778427212540,0.031831127,0.18494982,0.23720895,-3.6054030666666663,-0.1175915616666666,0.5785657266666667
892,1778427212550,0.0671206385714285,0.1538417314285714,0.2349962885714285,-3.399399642857143,-0.0306959790285714,0.5316709171428571
893,1778427212560,0.09555435,0.13305654,0.2289158,-3.297756,-0.0018325958,0.49953505
894,1778427212570,0.0325454507142857,0.1803153985714285,0.3001307657142857,-3.2356876999999997,-0.0246745927142857,0.41069779
895,1778427212580,-0.0322986328333333,0.22810274,0.3956429933333333,-3.2618676000000004,-0.0350483925,0.409203365
896,1778427212590,-0.0148179369999999,0.2394651799999999,0.47039333,-3.34143295,-0.1894445816666666,0.4482733
897,1778427212600,0.01689123,0.23922127,0.5016756,-3.356508257142857,-0.2466804742857142,0.4511676257142857
898,1778427212610,0.0277556858333333,0.23787973,0.4996531216666666,-3.347159833333333,-0.25765787,0.4391102983333333
899,1778427212620,0.0955340313333333,0.24288003,0.4730357066666666,-3.26874,-0.1777108833333333,0.3615813166666666
900,1778427212630,0.1255125462857143,0.2727336885714286,0.4301557471428571,-3.219565257142857,-0.1521708985714285,0.2509565328571428
901,1778427212640,0.1463906566666666,0.34203216,0.3474389666666667,-3.3437745666666667,-0.2899064633333333,0.1068505133333333
902,1778427212650,0.141776562,0.4189675333333333,0.3152622933333333,-3.544647466666667,-0.4842125166666666,0.025656341
903,1778427212660,0.1153551622857142,0.4349905214285714,0.3693421014285714,-4.057934157142857,-0.9165160428571428,-0.0296705982857142
904,1778427212670,0.04463675,0.19586508,0.7517512,-4.670828285714286,-1.2809189142857142,0.0559814378571428
905,1778427212680,0.0543629275,0.1308308,0.8934972999999999,-4.971985,-1.3264429333333334,0.1944587683333333
906,1778427212690,0.2043411899999999,-0.030184686,1.4599632,-5.121290666666667,-1.154535366666667,0.37125335
907,1778427212700,0.26428371,-0.0311298629999999,1.55926775,-4.98534775,-0.7986554166666666,0.415770165
908,1778427212710,0.41793089,0.0067483633333333,1.7233729666666668,-4.9524374,-0.7443393,0.4123340499999999
909,1778427212720,0.4761079285714286,0.0426070178571428,1.7439432714285714,-4.5121777142857145,-0.3498294371428571,0.0115191742857142
910,1778427212730,0.4908518083333333,0.1016624383333333,1.63412995,-4.373337,-0.345978795,-0.216933525
911,1778427212740,0.4529329433333333,0.06935364,1.5165722333333334,-4.334242,-0.39278635,-0.28588495
912,1778427212750,0.4353303,0.051405437,1.4658172,-4.334242,-0.39278635,-0.28588495
913,1778427212760,0.495852085,-0.106744035,1.38465395,-4.538168683333333,-1.81925855,-0.7630724833333332
914,1778427212770,0.7108951,-0.3505692199999999,1.5145396,-4.76077815,-2.0497584,-0.8441394
915,1778427212780,0.7952641285714286,-0.4561938485714286,1.6401566714285714,-5.121952285714286,-2.1498312142857143,-1.0209303685714286
916,1778427212790,0.8577736233333333,-0.6448445,1.8862990833333333,-5.5602484,-1.2834278,-1.4462235
917,1778427212800,0.81880795,-0.7134054433333333,1.9850853666666664,-5.6219454,-0.7313584,-1.6103935
918,1778427212810,0.80986434,-0.7212616,1.9970068,-5.6219454,-0.7313584000000001,-1.6103935
919,1778427212820,0.5615978033333333,-0.6714822666666667,2.08664615,-5.224297766666667,-0.1288925616666666,-1.8062267
920,1778427212830,0.3823495383333333,-0.6230546666666666,2.1199814000000003,-4.8072551,0.1192714383333333,-1.8956421
921,1778427212840,0.2518032966666666,-0.4926710333333333,1.9727574666666667,-3.5851680666666668,-0.8129089066666667,-1.7157167666666666
922,1778427212850,0.2109356471428571,-0.3738023114285714,1.7552504142857142,-3.038007342857143,-1.3405437714285713,-1.621694457142857
923,1778427212860,0.210459425,-0.308412305,1.5599080666666667,-1.8935295000000003,-2.6080892,-1.3808609
924,1778427212870,0.210744,-0.275503875,1.43288845,-1.8284469,-2.670881066666667,-1.3505467166666667
925,1778427212880,0.21050009,-0.25294158,1.3392854,-1.474541414285714,-3.007835057142857,-1.153204542857143
926,1778427212890,0.2382252783333333,-0.19003141,1.2327345,-1.4535029333333334,-3.0510682333333334,-0.8822930666666666
927,1778427212900,0.3496646999999999,-0.154754965,1.231565783333333,-1.5299119666666667,-2.977560833333333,-0.69908436
928,1778427212910,0.469021265,-0.1789128783333333,1.3103407,-1.5539393666666663,-2.8395053000000003,-0.5539529733333333
929,1778427212920,0.49008957,-0.18318142,1.3242846,-1.5531249,-2.7870727,-0.50762904
930,1778427212930,0.5649807057142857,-0.1916139671428571,1.3785386142857143,-1.511695157142857,-2.7639034,-0.4789619957142857
931,1778427212940,0.70327276,-0.20909756,1.4719150999999997,-1.2802209,-2.7304149,-0.4370741
932,1778427212950,0.77192512,-0.2345462116666666,1.516623066666667,-1.0322095666666666,-2.7754153,-0.5031493666666667
933,1778427212960,0.8917593199999999,-0.278857735,1.637931,-0.5938628266666667,-2.8442395166666667,-0.6195191666666667
934,1778427212970,1.0163195133333334,-0.3059934666666666,1.8006538,0.1127555566666666,-2.9711977,-0.8336274333333332
935,1778427212980,1.0864048333333332,-0.34335336,1.8862075333333337,0.3672063833333333,-3.0131437833333337,-0.9249263333333332
936,1778427212990,1.1298626333333333,-0.3612202633333333,1.8836262333333331,1.3270029666666667,-2.900082733333333,-1.2682071333333331
937,1778427213000,1.1376680666666668,-0.36042754,1.8206753333333332,1.6351845,-2.707812933333333,-1.3749049333333332
938,1778427213010,1.1130528142857143,-0.3522592357142857,1.705334657142857,2.1508565,-1.2348641,-1.464244
939,1778427213020,1.0468293666666666,-0.30820905,1.525271933333333,2.124283966666667,-0.5926411066666667,-1.3700689333333331
940,1778427213030,1.0211164666666666,-0.2701072333333333,1.4805640166666665,2.1109977,-0.27152961,-1.3229814
941,1778427213040,0.9918871,-0.1410651425,1.40390295,1.94565675,0.2615012466666666,-1.1060224
942,1778427213050,1.0388411,-0.017988855,1.3867272,1.7163786,1.0505356,-0.7643451
943,1778427213060,1.0518819428571429,-0.00997445,1.3819272714285713,1.7104663142857144,1.1167053857142857,-0.7627961285714286
944,1778427213070,1.1311026666666668,0.0407137579999999,1.3541034333333333,1.6728545,1.61283695,-0.7849618499999998
945,1778427213080,1.1211020333333332,0.0311603543333333,1.4119117,1.7105245333333334,2.040188133333334,-0.9094765333333332
946,1778427213090,1.08783785,0.0050612705,1.46971995,1.78135945,2.3751968,-0.97730805
947,1778427213100,1.01493725,-0.0404596785,1.5292966,1.9470312333333333,2.724255433333333,-0.9625709333333332
948,1778427213110,0.8964750583333334,-0.1047926941666666,1.5815252,2.324495033333333,2.9079222,-0.7804312666666666
949,1778427213120,0.8616356233333334,-0.1112259983333333,1.5517368666666669,2.686432566666667,2.872237433333334,-0.6159049
950,1778427213130,0.8384838866666667,-0.09089961,1.4840906333333332,3.1384728,2.5309675,-0.4737259999999999
951,1778427213140,0.8337072,-0.0681543813333333,1.4292297333333333,3.4266486,2.2321017,-0.5047274
952,1778427213150,0.837244,-0.042258564,1.37008,3.4395276666666668,2.2110522833333333,-0.5144757933333334
953,1778427213160,0.85517186,-0.008293167,1.3431271,3.503923,2.1058052,-0.56321776
954,1778427213170,0.8618491,-0.0001219584999999,1.31355225,3.6001342666666667,1.9476928666666664,-0.77712242
955,1778427213180,0.86852634,0.00804925,1.2839774,3.6482399,1.8686367,-0.88407475
956,1778427213190,0.7849340066666667,-0.0207125916666666,1.3276282333333331,3.7271433166666665,2.343966366666667,-1.0994047083333334
957,1778427213200,0.7617110933333334,-0.0275422583333333,1.3323032833333333,3.7526724166666665,2.45476205,-1.1412998833333334
958,1778427213210,0.71644423,-0.0374716985,1.28425175,3.8214203166666665,2.5352434,-1.13547125
959,1778427213220,0.6860156666666667,-0.0209971603333333,1.2227746,3.997044066666667,2.4433592333333336,-1.1679234166666668
960,1778427213230,0.646989,0.025245376,1.153482,4.0303871,2.379829266666667,-1.1838313666666669
961,1778427213240,0.63749658,0.0326441806666666,1.1410625333333333,4.138281,2.138512,-1.2401582833333331
962,1778427213250,0.5949389228571428,0.0500029169999999,1.1119899142857144,4.253760285714286,1.95034,-1.2997249285714287
963,1778427213260,0.5528981,0.021769563,1.1090281,4.292244666666666,1.9563469333333336,-1.3863077666666666
964,1778427213270,0.5538331,0.0325222226666666,1.1156138666666666,4.3386702999999995,1.99989655,-1.4526375499999995
965,1778427213280,0.49277264,0.048783336,1.109272,4.4267220571428565,2.0109902714285712,-1.5107352285714286
966,1778427213290,0.4902115266666667,0.0525233906666666,1.0890879333333334,4.486499733333333,2.2111795,-1.6140587333333334
967,1778427213300,0.4829042083333333,0.06073525,1.035294205,4.48507445,2.3405556666666665,-1.658066466666667
968,1778427213310,0.4536037,0.062910175,0.9408475533333333,4.432641633333334,2.6572638666666664,-1.7266615333333333
969,1778427213320,0.39547024,0.0643330216666666,0.8536474,4.34294625,3.0099620999999996,-1.7789923
970,1778427213330,0.3241652666666667,0.0775045233333333,0.7894363066666666,4.256814333333334,3.2499559333333337,-1.8155424
971,1778427213340,0.29385862,0.08299265,0.76547146,4.230089,3.3185255999999996,-1.8287778
972,1778427213350,0.1651490142857143,0.0806493031428571,0.7358356171428572,4.342205,2.976615457142857,-1.7540123428571428
973,1778427213360,0.0491927668571428,0.0669725485714285,0.7123063628571428,4.3955902857142855,2.850755371428572,-1.7016306428571428
974,1778427213370,0.007927292,0.057564333,0.7035776400000001,4.497801,2.6209173,-1.594511
975,1778427213380,-0.044758707,0.049210187,0.6363176,4.7461176,2.033723,-1.259146
976,1778427213390,-0.0441314931428571,0.0438962882857142,0.6300890142857144,4.771948514285714,2.0026561571428574,-1.2295626571428573
977,1778427213400,-0.04036821,0.012012896,0.5927175,4.926934,1.8162551,-1.0520626
978,1778427213410,-0.0570358483333333,0.0095737292333333,0.5761413333333333,4.9642221,1.7981836666666666,-1.0106765033333334
979,1778427213420,-0.1301469757142857,-0.0005488125285714,0.4960742285714286,5.144837857142858,1.7619753714285715,-0.7984881385714286
980,1778427213430,-0.1505837071428571,0.0033190089285714,0.4318022057142857,5.228984557142858,1.7168149714285714,-0.6969536028571428
981,1778427213440,-0.1666909071428571,0.0092601222142857,0.3379639828571429,5.3892057,1.577974,-0.5240787457142857
982,1778427213450,-0.1719409199999999,0.0136593335,0.2818965333333333,5.478850166666667,1.4573717333333331,-0.4368704666666667
983,1778427213460,-0.1879465071428571,0.0142517021285714,0.163145404,5.577635857142857,1.2911727714285717,-0.33124168
984,1778427213470,-0.20229839,0.00146350015,0.081712088,5.63042135,1.2213486999999998,-0.24327708
985,1778427213480,-0.20818289,-0.00073175,0.0512225,5.6402717,1.2122620000000002,-0.21212296
986,1778427213490,-0.2299872728571428,0.0122306788571428,-0.1108252842857142,5.578181314285715,1.2628329857142857,-0.032877639
987,1778427213500,-0.2329404,0.00951275,-0.13714215,5.5487943,1.2922854,0.009010263
988,1778427213510,-0.248703535,0.036435053,-0.3380990049999999,5.286937066666667,1.5037975666666668,0.2150754733333333
989,1778427213520,-0.2459899549999999,0.06091819,-0.41365218,5.1737997,1.52494875,0.284739565
990,1778427213530,-0.2318863457142857,0.0774348342857143,-0.4631803357142857,5.0867404714285716,1.5048228857142856,0.3292127371428571
991,1778427213540,-0.1972676,0.1092485314285714,-0.60418163,4.906578671428571,1.242238142857143,0.3332706314285714
992,1778427213550,-0.21895877,0.1136913034285714,-0.7179164642857143,4.7546041571428574,0.9464047914285716,0.3017237928571429
993,1778427213560,-0.2289158,0.107292847,-0.786661745,4.6699121,0.8459720000000001,0.3029128
994,1778427213570,-0.2295560799999999,0.0932371479999999,-0.886057795,4.543462866666666,0.7476990633333332,0.3175481133333333
995,1778427213580,-0.1981997171428571,0.0663627568571428,-0.9752921285714288,4.128816542857143,0.7768460728571428,0.3912591714285714
996,1778427213590,-0.11842154,0.054637335,-1.1295781,3.8234819666666664,0.8851692066666667,0.4018729666666666
997,1778427213600,-0.1063171775,0.0686015625,-1.1669888000000002,3.6645043,0.89522303,0.381561695
998,1778427213610,-0.0868604692857143,0.0951100757142857,-1.2453426714285716,3.386855114285715,0.7874707714285715,0.2907936642857143
999,1778427213620,-0.072544885,0.1352111366666666,-1.4043299333333332,3.2006793666666673,0.6726644666666667,0.21227567
1000,1778427213630,-0.074577525,0.13958131,-1.4326446,3.0831897,0.591623,0.16035213
