id,timestamp,acc_x,acc_y,acc_z,gyro_x,gyro_y,gyro_z
0,1778426790310,0.11814278,1.0862741,0.2985104514285714,1.8501144285714288,-0.4896739357142857,-0.8610581714285714
1,1778426790320,0.12445848,1.0635376,0.29032183,1.870622,-0.5375614,-0.7473936
2,1778426790330,0.1255038385714285,1.0629713714285711,0.29479073,1.8770361714285717,-0.4952808057142857,-0.6459463714285715
3,1778426790340,0.13177599,1.059574,0.32160413,1.9404135,-0.30650163,-0.50854534
4,1778426790350,0.1187961385714285,0.9997796285714284,0.43565259,2.0631755857142857,-0.1004218828571428,-0.4408265571428571
5,1778426790360,0.0584790235,0.9414879,0.46932616,2.439083133333334,0.4091269966666666,-0.2739221666666667
6,1778426790370,0.0168041145714285,0.9301849714285714,0.4084820214285714,2.6710301428571426,0.5756532385714286,-0.2062324814285714
7,1778426790380,-0.1329955666666666,0.8833645233333334,0.19245025,2.8298332,0.6669630633333333,-0.1360956865833333
8,1778426790390,-0.24641682,0.85181797,0.08110229,2.8535042,0.71837753,0.0012217305
9,1778426790400,-0.2926085325,0.88874848875,-0.03266196625,2.8254236125,0.64757442875,0.1542434726875
10,1778426790410,-0.32032356,0.9109068,-0.10092052,2.866179733333333,0.1990657166666666,0.1598430633333333
11,1778426790420,-0.39563283,0.93188363,-0.2816018,2.877328,0.1244638,0.13744467
12,1778426790430,-0.5158837533333333,0.9016176533333334,-0.3635374666666666,2.8948395,-0.2481130999999999,0.1047124766666666
13,1778426790440,-0.7563856,0.8410857,-0.5274088,2.9298625,-0.9932669,0.03924809
14,1778426790450,-0.9354610666666666,0.6961179,-0.5907458333333334,2.848871933333333,-1.2701415666666669,0.2137519316666666
15,1778426790460,-1.0330916142857145,0.6160464428571428,-0.6230589857142858,2.7247644142857146,-1.5879223714285715,0.51720652
16,1778426790470,-1.0890182571428573,0.5484117857142857,-0.6321797314285715,2.6297968000000003,-1.6358971285714283,0.8930195714285715
17,1778426790480,-1.0868114,0.5046635766666667,-0.63434596,2.5571584,-1.6392569,1.2198216
18,1778426790490,-1.062745,0.47612533,-0.6246706,2.528066,-1.6297885,1.3530666
19,1778426790500,-1.0438109783333334,0.4712876749999999,-0.6286037833333333,2.5160012,-1.5645787,1.4763086
20,1778426790510,-0.9380773642857144,0.4411058657142857,-0.6633052571428572,2.499246028571428,-1.4023939,1.650797857142857
21,1778426790520,-0.8260644733333334,0.4367734666666666,-0.7258553666666666,2.3979005333333334,-0.9792169666666668,1.6767741666666665
22,1778426790530,-0.7884344857142856,0.4493816085714285,-0.7726583142857143,2.2770656,-0.6569855514285713,1.6360062428571427
23,1778426790540,-0.78955823,0.45941702,-0.78925335,2.1708624,-0.43096542,1.6039795
24,1778426790550,-0.7779025357142857,0.4774494542857143,-0.8071812471428572,1.9197313,-0.051596295,1.689958742857143
25,1778426790560,-0.7458158899999999,0.4810240033333333,-0.8077910533333333,1.8150333666666667,0.0678569486666666,1.748958133333333
26,1778426790570,-0.71292775,0.4781884833333333,-0.7887249,1.623298,0.2898555599999999,1.888719
27,1778426790580,-0.6836897428571429,0.4823365028571428,-0.7380396142857143,1.503361142857143,0.4598724571428571,2.0121901571428573
28,1778426790590,-0.6669291999999999,0.48752844,-0.7040655,1.4488196,0.547488,2.0867157
29,1778426790600,-0.6051485714285715,0.4899763385714286,-0.6448895642857142,1.3984232,0.6560038285714285,2.2016456142857144
30,1778426790610,-0.5235468233333334,0.49647209,-0.57690358,1.4323263,0.8343401266666667,2.4652485333333334
31,1778426790620,-0.4558628228571429,0.5210844099999999,-0.5643273228571429,1.6089754428571428,0.8368199728571428,2.521150014285714
32,1778426790630,-0.3864859600000001,0.54631233,-0.5575325,1.89009345,0.7308239049999999,2.54310835
33,1778426790640,-0.34239805,0.5672282,-0.6132675,1.9857702,0.6456845400000001,2.5372288
34,1778426790650,-0.3141748583333333,0.5773914166666666,-0.6958637866666667,2.1854722,0.2921462933333333,2.5399776666666667
35,1778426790660,-0.2884488942857143,0.5731693285714287,-0.7503747857142857,2.3597942571428576,-0.1063123714285714,2.563539685714286
36,1778426790670,-0.203629755,0.5457940250000001,-0.816755025,2.5010350999999997,-0.5526039800000001,2.6272550999999997
37,1778426790680,-0.1643795066666666,0.5129770833333334,-0.8421629666666667,2.56996105,-0.8369617500000001,2.6615144
38,1778426790690,-0.1360880785714285,0.4826152714285714,-0.8489170857142857,2.5879306428571427,-1.1912963285714286,2.693413942857142
39,1778426790700,-0.0709361904285714,0.4134474714285714,-0.8320868171428571,2.531840157142857,-1.3836752428571428,2.7652561142857146
40,1778426790710,0.0194784896428571,0.3324322828571429,-0.7942623714285714,2.4628995857142857,-1.3946707857142857,2.8722447428571427
41,1778426790720,0.1130553728571428,0.3100529228571428,-0.758267242857143,2.420749942857143,-1.3031064428571428,2.945483142857143
42,1778426790730,0.208762175,0.31413418,-0.748488815,2.3589325999999997,-1.2073751,2.9826259500000005
43,1778426790740,0.2890151171428571,0.32428722,-0.7435190057142858,2.3072162714285716,-1.1399181142857144,2.9788189285714286
44,1778426790750,0.5085052499999999,0.3603564049999999,-0.7245849799999999,2.245184233333333,-0.9850711533333332,2.8125253666666663
45,1778426790760,0.6031013714285713,0.3769296614285714,-0.7410624142857143,2.224989285714286,-0.8726428314285715,2.530269371428571
46,1778426790770,0.7132835166666668,0.3969845416666667,-0.7915502833333333,2.1813488333333333,-0.7770205933333333,2.2410101
47,1778426790780,0.7292499,0.40112096,-0.7986442,2.088522833333333,-0.650622375,1.8459075
48,1778426790790,0.7424301,0.3967740185714286,-0.8179049,1.9517145,-0.55771995,1.4688255
49,1778426790800,0.8179033666666667,0.360722275,-0.9356745166666668,1.75272515,-0.505109195,1.224072175
50,1778426790810,0.7998637,0.3108718,-0.9467016,1.3426818,-0.38438696,0.8121453500000001
51,1778426790820,0.75744835,0.2092717999999999,-0.9265174885714283,1.1142182085714285,-0.2569342885714286,0.7417213071428571
52,1778426790830,0.6903451333333334,0.1141326733333333,-0.8923082066666667,0.54305923,0.06169739,0.5656612
53,1778426790840,0.6666852,0.09128582,-0.8732827,0.22220223,0.26526824,0.69226307
54,1778426790850,0.7160987016666667,0.1008188933333333,-0.7865906333333333,0.1366810991666666,0.1431715418,0.9202939283333332
55,1778426790860,0.80486405,0.11457986,-0.66314846,0.18325958,-0.0022907446,1.0622946
56,1778426790870,0.9423517583333334,0.090523574,-0.5208840566666667,0.66197428,-0.4242968099999999,1.2160800333333333
57,1778426790880,0.9906676,0.082199916,-0.47600338,1.0714576,-0.70325863,1.2582297
58,1778426790890,1.0908389285714286,0.0406818165714285,-0.5312766585714286,1.6593718714285717,-0.9743518714285714,1.1489065857142855
59,1778426790900,1.1139267666666666,0.0243713396666666,-0.62960992,2.1281017666666666,-1.1252646666666666,0.9675595866666667
60,1778426790910,1.0955517,0.008476105,-0.74656796,2.3434317,-1.2292136,0.83001316
61,1778426790920,0.9752485285714284,-0.0127359340714285,-0.9190344714285714,2.422997,-1.3336716,0.7079928000000001
62,1778426790930,0.8287068666666667,-0.0417504033333333,-1.026625,2.06841515,-1.40066305,0.7852163499999999
63,1778426790940,0.7972213199999999,-0.0525030633333333,-1.0322554000000002,1.99111525,-1.355051783333333,0.8332201833333333
64,1778426790950,0.8281987533333334,-0.0555723466666666,-1.0214620333333333,1.7050012499999998,-1.1119783733333333,1.03136965
65,1778426790960,0.87999034,-0.0453685,-1.0247549,1.5037975,-0.8625417399999998,1.1630874
66,1778426790970,0.9483073616666668,-0.0086285521066666,-1.05346595,1.2348386166666667,-0.7051675566666665,1.051757243333333
67,1778426790980,0.951305515,-0.0071955416,-1.1028387,0.9182832,-0.546418975,0.814130665
68,1778426790990,0.91255323,-0.00899442715,-1.1091805,0.67408982,-0.391870055,0.68974322
69,1778426791000,0.86166608,-0.00628085435,-1.11290025,0.4446335516666667,-0.2423862433333333,0.5892304199999999
70,1778426791010,0.8326705,-0.0059759584,-1.1148821,0.18081611,-0.06612616,0.47571132
71,1778426791020,0.7785820166666667,0.0213427089333333,-1.1740522,-0.05879578,-0.0027488935,0.4151593
72,1778426791030,0.7406733266666666,0.0441285916666666,-1.2128755666666666,-0.2060397583333333,0.0326303841666666,0.375376695
73,1778426791040,0.7128973,0.0587839183333333,-1.2369216666666667,-0.46665015,0.0683660016666666,0.29189178
74,1778426791050,0.66604495,0.0604608425,-1.2559879,-0.8216137666666666,0.1171334066666666,0.1876374433333333
75,1778426791060,0.6515624,0.05329579,-1.2578783,-1.0494665,0.1601994,0.14202617
76,1778426791070,0.6482593499999999,0.0468421633333333,-1.239533716666667,-1.247081433333333,0.2237294,0.1215621833333333
77,1778426791080,0.6438383316666666,0.035083348,-1.1825588,-1.70889555,0.3941862616666666,0.0525089595
78,1778426791090,0.6454645,0.026708877,-1.1084183,-1.8387043,0.45845437,0.021838432
79,1778426791100,0.6691244116666667,0.0315465541666666,-0.9295461016666668,-1.846951,0.5332344450000001,-0.0427605698333333
80,1778426791110,0.65814817,0.028904125,-0.86694086,-1.8112154,0.62598413,-0.1253801
81,1778426791120,0.64616576,0.0251843964999999,-0.836451265,-1.72622875,0.6437755799999999,-0.13156511
82,1778426791130,0.63418335,0.021464668,-0.80596167,-1.6412421,0.66156703,-0.13775012
83,1778426791140,0.6059151214285714,0.0166298901428571,-0.7466811914285714,-1.110225757142857,0.59722984,-0.0715366848571428
84,1778426791150,0.6357281333333333,0.027826827,-0.67284415,-0.4797328166666666,0.5156211566666666,0.035582902
85,1778426791160,0.6918493199999999,0.0331929923333333,-0.7074803,-0.19924388,0.4492404733333333,0.0364482953333333
86,1778426791170,0.8034440600000001,0.0339218384285714,-0.8018586414285716,0.2162681057142857,0.3146828542857142,-0.0544979094285714
87,1778426791180,0.8287068599999999,0.027196707,-0.8405368300000001,0.3315471,0.2669481,-0.13897185
88,1778426791190,0.8226176585714287,0.0247314065714285,-0.8523667971428572,0.38637227,0.28145617,-0.23441954
89,1778426791200,0.76531905,0.0062503645,-0.9281944,0.3136792983333333,0.5285257083333333,-0.3740022466666666
90,1778426791210,0.7008945766666667,-0.0083744729999999,-0.9342618,0.1888337199999999,0.81626868,-0.41431935
91,1778426791220,0.6888555028571428,-0.0109152714285714,-0.9457782,0.06627888,1.024093757142857,-0.3536255257142857
92,1778426791230,0.7142489333333333,-0.0074597848666666,-0.96306435,0.0038942658333333,1.0818678,-0.3126102916666666
93,1778426791240,0.7791307885714286,-0.0079011578571428,-0.9969919357142858,-0.0452694785714285,0.8986263714285715,-0.3380266428571428
94,1778426791250,0.8475291399999999,-0.0131715,-1.0457114,-0.0879645949999999,0.542601035,-0.5209153350000001
95,1778426791260,0.817334275,0.016464376,-1.0691783,-0.11178834,0.44073927,-0.59635717
96,1778426791270,0.7683549285714285,0.0602822645714285,-1.0771011857142858,-0.3070252285714285,0.3109086028571429,-0.8199775285714287
97,1778426791280,0.7037605666666668,0.0977292793333333,-1.0792093333333332,-0.3913100933333333,0.34972036,-0.8527169933333334
98,1778426791290,0.6234306666666667,0.13242642,-1.0665257,-0.5109124266666667,0.4570544666666666,-0.8454629499999999
99,1778426791300,0.5824526666666667,0.15746853,-1.0384345666666668,-0.6743443399999999,0.6472626333333333,-0.6892596133333333
100,1778426791310,0.6459087928571429,0.1876503114285714,-0.9682359285714286,-0.7133379,0.6965391,-0.57360244
101,1778426791320,0.67174655,0.19409668,-0.9497505,-0.7118107,0.77304995,-0.35506544
102,1778426791330,0.7768920471428571,0.2068500457142857,-0.919957842857143,-0.6659739985714286,0.7872744028571429,-0.2655518528571429
103,1778426791340,0.9353595,0.2309891,-0.8825515,-0.46984262,0.6301293157142858,-0.1677043214285714
104,1778426791350,1.0270315,0.2349527333333333,-0.8607412600000001,-0.27249681,0.4071416766666667,-0.2487239666666666
105,1778426791360,1.0621698714285714,0.2437773014285714,-0.8310240571428571,-0.0671297271428571,0.3382448157142858,-0.4293946457142857
106,1778426791370,1.0076893714285713,0.2535252442857142,-0.8387771485714286,0.0442440965714285,0.4084507,-0.5827654271428572
107,1778426791380,0.9432779857142856,0.2642749914285714,-0.8471748714285715,0.061850104,0.4529566,-0.6258314
108,1778426791390,0.8355670000000001,0.2797419299999999,-0.83224365,0.049632803,0.4663956199999999,-0.64553183
109,1778426791400,0.7966318,0.28440684,-0.8147426,-0.0027052601714285,0.5449790885714286,-0.5648976514285715
110,1778426791410,0.7897005333333333,0.26291168,-0.767300885,-0.0297033216666666,0.6623560916666666,-0.408897915
111,1778426791420,0.9489578416666666,0.23252373,-0.6990549933333333,-0.0020871233333333,0.8530733,-0.1878410633333333
112,1778426791430,0.96414167,0.23245259,-0.6957113,0.05085453,0.9456194,-0.12370021
113,1778426791440,0.961834625,0.2368634149999999,-0.698272425,0.090128075,0.9653707,-0.1551597683333333
114,1778426791450,0.9466145142857142,0.2591527442857143,-0.7151897914285714,0.2938261857142857,1.0564041285714283,-0.3225804728571429
115,1778426791460,0.8838777625,0.275580095,-0.7793442525,0.375796675,0.7258224499999999,-0.4519448375
116,1778426791470,0.8146613199999999,0.28373607,-0.81116522,0.406454475,0.3279582749999999,-0.50228396
117,1778426791480,0.7922413300000001,0.28330922,-0.8152305,0.41431937,0.10064005,-0.51144695
118,1778426791490,0.7770139714285714,0.2435595057142857,-0.7890879142857142,0.3370230885714286,-0.1956077742857142,-0.4322307914285714
119,1778426791500,0.77614284,0.24007498,-0.7861435,0.32589662,-0.20433442,-0.42241332
120,1778426791510,0.7343285485714286,0.2393954971428571,-0.7083688771428571,0.16822793,-0.0357356182857142,-0.3657337457142857
121,1778426791520,0.7287707285714287,0.2408328614285714,-0.6813463857142857,0.0826631574285714,0.12020955,-0.3621340114285715
122,1778426791530,0.73349805,0.242422675,-0.6408910683333334,0.0756963826666666,0.1779145,-0.3885357416666666
123,1778426791540,0.7364047266666667,0.2167606133333333,-0.58985152,0.171907662,0.16233744,-0.4389575833333333
124,1778426791550,0.7320142500000001,0.2093516383333333,-0.5757246733333333,0.19761491,0.15454891,-0.44425175
125,1778426791560,0.69891272,0.199036005,-0.5734176200000001,0.25614342375,0.2357558,-0.45664086375
126,1778426791570,0.68003964,0.19019403,-0.5804607,0.277867315,0.37446039,-0.471129835
127,1778426791580,0.6179715885714286,0.1870056885714286,-0.5965940428571429,0.2753475,0.43508878,-0.47311515
128,1778426791590,0.5707446866666667,0.1867487083333333,-0.6238778666666667,0.2107994133333333,0.6315837733333333,-0.4732933033333333
129,1778426791600,0.46697846,0.18301881,-0.6302603666666666,0.117744275,0.8387180000000001,-0.4302272966666667
130,1778426791610,0.4169929571428571,0.1947500357142857,-0.6062810428571428,0.0579012971428571,0.8844892571428572,-0.2615157757142857
131,1778426791620,0.3888641399999999,0.2137319899999999,-0.5583557499999999,0.05955936,0.8854492,-0.15042557
132,1778426791630,0.39575478,0.21903718,-0.5413121,0.0896662885714285,0.8798859571428572,-0.0781689371428571
133,1778426791640,0.39575478,0.21903718,-0.5413121,0.12980886,0.8724683,0.01817324
134,1778426791650,0.44209896125,0.24750683,-0.5530886625,0.2646764474999999,0.84364308125,0.1030262399999999
135,1778426791660,0.49008957,0.286785,-0.6222924,0.345597,0.82634795,0.15393804
136,1778426791670,0.49008957,0.286785,-0.6222924,0.345597,0.82634795,0.15393804
137,1778426791680,0.4750887,0.29513916,-0.68333256,0.345597,0.82634795,0.15393804
138,1778426791690,0.4750887,0.29513916,-0.6833325599999999,0.345597,0.82634795,0.15393804
139,1778426791700,0.4750887,0.29513916,-0.6833325599999999,0.42271876,0.7145596,0.03924809
140,1778426791710,0.4750887,0.29513916,-0.68333256,0.42271876,0.7145596,0.03924809
141,1778426791720,0.4750887,0.29513916,-0.6833325599999999,0.43284894,0.6916012466666667,-0.0030543283333333
142,1778426791730,0.4750887,0.29513916,-0.6833325599999999,0.4531093,0.64568454,-0.087659165
143,1778426791740,0.4497213666666666,0.2927,-0.7360185866666665,0.4531093,0.64568454,-0.087659165
144,1778426791750,0.4370377,0.29148042,-0.7623615999999999,0.44450628,0.6415103066666666,-0.1259400533333333
145,1778426791760,0.4370377,0.29148042,-0.7623615999999999,0.4273002399999999,0.63316184,-0.20250183
146,1778426791770,0.4370377,0.29148042,-0.7623616,0.42730024,0.63316184,-0.2025018299999999
147,1778426791780,0.4370377,0.29148042,-0.7623615999999999,0.33485596,0.6902777133333333,-0.21074851
148,1778426791790,0.4370377,0.29148042,-0.7623615999999999,0.28863382,0.71883565,-0.21487185
149,1778426791800,0.3995616357142856,0.2841106542857143,-0.7813348257142857,0.28863382,0.71883565,-0.21487185
150,1778426791810,0.34959355,0.2742843,-0.80663246,0.28863382,0.71883565,-0.21487185
151,1778426791820,0.3102924949999999,0.287852165,-0.81019973,0.28863382,0.71883565,-0.21487185
152,1778426791830,0.27099144,0.30142003,-0.813767,0.2235766742857143,0.7619452928571429,-0.1821469257142857
153,1778426791840,0.27099144,0.30142003,-0.813767,0.06093381,0.8697194,-0.100334615
154,1778426791850,0.259185864,0.328885046,-0.8038151600000001,-0.0161268396,0.90215636,-0.04389066722
155,1778426791860,0.25623447,0.3357513,-0.8013272,-0.067500606,0.923781,-0.0062613687
156,1778426791870,0.25623447,0.3357512999999999,-0.8013271999999999,-0.067500606,0.923781,-0.0062613687
157,1778426791880,0.25623447,0.3357513,-0.8013272,-0.067500606,0.923781,-0.0062613687
158,1778426791890,0.25623447,0.3357513,-0.8013272,-0.067500606,0.923781,-0.0062613687
159,1778426791900,0.3528559599999999,0.3971268249999999,-0.786036725,-0.288252039,0.695355555,-0.286304910675
160,1778426791910,0.093153304025,0.51237744375,-0.912576125,-0.14897475775,-0.46559387,-0.6833864225
161,1778426791920,-0.0010366458,0.5041757,-0.9296274,-0.178830795,-0.333990575,-0.46021061
162,1778426791930,-0.0072913665142857,0.4945584542857143,-0.8808527614285715,-0.19303341,-0.24388795,-0.43295074
163,1778426791940,-0.0448908325,0.4992872666666666,-0.8144987416666667,0.0779871246666666,0.45937068,-0.1939497166666667
164,1778426791950,-0.0605348928571428,0.5782044300000001,-0.8905484714285714,0.5339398571428572,0.6139414142857144,-0.0687005247142857
165,1778426791960,-0.0543934164999999,0.671929435,-1.0461281,1.18492587,0.5317582,-0.0400880305
166,1778426791970,-0.0524624079999999,0.7121147083333333,-1.1717248500000002,1.5745815333333333,0.390979205,-0.0767653966666666
167,1778426791980,-0.0623816921428571,0.7204252928571429,-1.382336742857143,1.9779162142857143,0.0532761757142857,-0.2136719328571428
168,1778426791990,-0.0872350592857142,0.6864947285714286,-1.560395942857143,2.089922685714286,-0.3077233685714285,-0.3973023942857143
169,1778426792000,-0.102810875,0.6418057,-1.624424,2.0312796,-0.3883575799999999,-0.452193
170,1778426792010,-0.103690716,0.5002295,-1.5663718285714283,1.346739671428571,-0.2003201657142857,-0.6231261971428571
171,1778426792020,-0.10405078,0.3379262,-1.4198998666666665,0.8370381,0.0293215333333333,-0.7228572133333334
172,1778426792030,-0.1274261266666666,0.2253586733333333,-1.1494369333333332,0.3937535533333333,0.4308636066666667,-0.7270314333333334
173,1778426792040,-0.1350514271428571,0.1749753642857143,-1.0233959285714285,0.2913609,0.58021288,-0.6880306057142856
174,1778426792050,-0.12906241,0.1396626183333333,-0.932656075,0.3119994333333333,0.7086036866666667,-0.5526803333333333
175,1778426792060,-0.1024043499999999,0.14202048,-0.9056625666666666,0.4514294333333333,0.7278459666666667,-0.3673845333333334
176,1778426792070,-0.07805333,0.16970502,-0.9445673,0.5849035,0.6563747,-0.26374108
177,1778426792080,-0.0625544633333333,0.210510245,-1.0221633,0.75691297,0.284968649,-0.0484619733333333
178,1778426792090,0.0274319142857142,0.3018904471428571,-1.2609011714285714,0.79183409,-0.2062979169999999,0.1493565514285714
179,1778426792100,0.071809072,0.317359988,-1.31834528,0.7155980980000001,-0.47326784,0.243399254
180,1778426792110,0.0942738,0.32294568,-1.34081,0.510683335,-0.73105297,0.344298925
181,1778426792120,0.13080032,0.3181892999999999,-1.3451395,0.39400807,-0.79779,0.376293
182,1778426792130,0.16015162,0.31390044,-1.2870669666666668,0.0690786833333333,-0.7288640333333333,0.39059742
183,1778426792140,0.1580667171428571,0.3121610628571428,-1.226142957142857,-0.20767236,-0.5776821714285714,0.3844524114285714
184,1778426792150,0.146827675,0.3162074666666667,-1.1851606833333337,-0.3043636,-0.5175556,0.3808744799999999
185,1778426792160,0.13244675,0.3331292,-1.1194556,-0.43066,-0.4123340499999999,0.3805690399999999
186,1778426792170,0.12594812,0.3591237485714286,-1.0484322714285714,-0.4487677914285714,-0.3691153171428571,0.3603668628571428
187,1778426792180,0.1042743783333333,0.3837012466666666,-1.0193481666666666,-0.3830634066666666,-0.4128430966666667,0.3136793
188,1778426792190,0.0703699578571428,0.4011819457142857,-1.0047363571428571,-0.3016365257142857,-0.5024148571428572,0.2696315571428572
189,1778426792200,0.036526519,0.382186935,-0.990606615,-0.29703322,-0.5876524,0.28069258
190,1778426792210,0.0021749236666666,0.3624195233333333,-0.97192662,-0.3206533466666666,-0.5908594233333333,0.3104722633333334
191,1778426792220,-0.0183721507142857,0.3546722785714286,-0.9421803885714286,-0.37535488,-0.6070473171428572,0.3843869614285714
192,1778426792230,-0.0076833743333333,0.33806852,-0.8671847533333333,-0.42052982,-0.7479536000000001,0.5718207833333333
193,1778426792240,0.0017480698333333,0.3259946333333333,-0.8347438333333334,-0.4141157416666667,-0.7994444500000001,0.6398304499999999
194,1778426792250,0.0123177925,0.31392074,-0.8047421,-0.3810271999999999,-0.8512407,0.7266242000000002
195,1778426792260,0.01602881,0.2994512771428571,-0.7477527028571428,-0.2869975885714285,-1.0097820914285711,1.0239192285714285
196,1778426792270,0.026830835,0.30215177,-0.72754246,-0.257327,-1.0584768,1.1134546
197,1778426792280,0.0888379364285714,0.2930745871428571,-0.6832541514285715,-0.1721112828571428,-1.2108876,1.2087932
198,1778426792290,0.1591962833333333,0.2594257033333333,-0.6406065,-0.0754927631666666,-1.3635784833333335,1.2691997333333334
199,1778426792300,0.23265585,0.23434293,-0.6020270333333334,0.0677296855,-1.4390458,1.28419145
200,1778426792310,0.25745404,0.22970851,-0.5907662,0.1516473,-1.4573717000000002,1.281748
201,1778426792320,0.25745404,0.22970851,-0.5907662,0.1516473,-1.4573717,1.281748
202,1778426792330,0.28241485,0.2241492433333333,-0.5985918616666667,0.318948015,-1.3742177,1.18423865
203,1778426792340,0.4171889849999999,0.1762297899999999,-0.646318235,0.4755076866666667,-1.2486085666666666,1.0752246333333335
204,1778426792350,0.4393244249999999,0.1318064725,-0.65473335,0.34811683,-0.915610635,1.0448086
205,1778426792360,0.4702365114285714,0.1154161407142857,-0.6517976,0.1420697974285714,-0.4670501000000001,1.014821692857143
206,1778426792370,0.526628294,0.14022769,-0.6648071,-0.0740979556,-0.0631634679999999,0.952094558
207,1778426792380,0.5712964071428571,0.1665602385714285,-0.684282117142857,-0.2174025828571428,0.1603957628571428,0.8839220171428571
208,1778426792390,0.6124138,0.20092636,-0.70784616,-0.33337972,0.2724459,0.7684685
209,1778426792400,0.6737762500000001,0.2016319814285714,-0.7137002,-0.38866302,0.23533584,0.6414085
210,1778426792410,0.758611325,0.13747753,-0.684125275,-0.4625777,0.1177442799999999,0.3419318233333333
211,1778426792420,0.7941723333333334,0.10264826,-0.6604856833333334,-0.49240828,0.23640486,0.2723440933333333
212,1778426792430,0.8281145,0.0794123,-0.6469280142857142,-0.5246677714285715,0.5772240314285714,0.2699151628571429
213,1778426792440,0.8136711571428572,0.0946222485714285,-0.6483044,-0.5418156428571429,0.7269078142857143,0.2804525857142857
214,1778426792450,0.8101997500000001,0.1740955199999999,-0.64461075,-0.53068918,0.6982189499999999,0.3180317
215,1778426792460,0.8408722650000001,0.2335502149999999,-0.65165385,-0.4641048599999999,0.52557318,0.36377024
216,1778426792470,0.8566353300000001,0.24824621,-0.6612581000000001,-0.4009021228571429,0.3627448777142857,0.3636175328571429
217,1778426792480,0.9472910166666668,0.30611543,-0.8214910233333333,-0.2897792083333333,-0.0488437683333333,0.2500475158333333
218,1778426792490,0.95676315,0.31074983,-0.90413815,-0.28328875,-0.36254853,0.117438845
219,1778426792500,0.9363351333333334,0.28753711,-0.9093417166666669,-0.39683334,-0.5503132166666667,0.0450004078333333
220,1778426792510,0.90728871,0.2483478333333333,-0.8723070333333333,-0.6844745266666666,-0.5999205333333334,0.0344629813333333
221,1778426792520,0.89346683,0.2309891,-0.8230359000000002,-0.8191703,-0.551764,0.05971208
222,1778426792530,0.8909056666666667,0.1919624166666666,-0.7435799466666667,-0.9431759333333334,-0.3323870483333333,0.183030495
223,1778426792540,0.8750162285714287,0.1953598242857142,-0.6850051142857143,-0.9671523714285714,-0.1562069742857142,0.2751729799999999
224,1778426792550,0.8811692666666667,0.2074917866666666,-0.6505054,-0.9065749,-0.0819068486666666,0.3081306133333333
225,1778426792560,0.8949912333333333,0.20944312,-0.6596319666666667,-0.796695545,-0.1405753616666666,0.286648505
226,1778426792570,0.9132748666666668,0.21602887,-0.6930383833333332,-0.6203845516666667,-0.4041128,0.1981239616666666
227,1778426792580,0.9000322000000001,0.20783733,-0.7228876566666668,-0.4223115066666666,-0.8252280333333334,0.0374154936666666
228,1778426792590,0.87988875,0.2027862233333333,-0.7171454866666666,-0.3371975999999999,-0.9830349000000002,-0.024892759
229,1778426792600,0.8623065,0.19440159,-0.7227860700000001,-0.1921171166666666,-1.12070865,-0.1058833033333333
230,1778426792610,0.8014390433333333,0.1395914726666666,-0.7729007783333333,-0.09132435,-1.0554224,-0.14584407
231,1778426792620,0.7158954333333334,0.1175068553333333,-0.8466754666666666,-0.08603019,-0.81586148,-0.0633772743333333
232,1778426792630,0.6971951833333333,0.1454759666666666,-0.86299754,-0.2052507233333333,-0.47387872,0.2005165123333333
233,1778426792640,0.6991261999999999,0.15878975,-0.86309916,-0.2643773916666667,-0.4022293133333334,0.2859103833333333
234,1778426792650,0.7309979666666667,0.1745630333333333,-0.86108684,-0.3378085,-0.35094208,0.3631594
235,1778426792660,0.7919568,0.2043412,-0.8630585000000001,-0.3599778033333333,-0.3184644066666667,0.3256420883333333
236,1778426792670,0.7520764,0.2121871866666666,-0.9015160333333332,-0.4355978333333333,-0.13398311,0.2778418833333333
237,1778426792680,0.7272070500000001,0.2242813799999999,-0.9311519,-0.49663345,-0.0417424606666666,0.2666426866666667
238,1778426792690,0.7154380833333334,0.231365115,-0.9540699,-0.5753586966666667,0.0112755542999999,0.2553416716666667
239,1778426792700,0.6831293,0.2339160833333333,-0.9921717,-0.6913467633333333,-0.0390953761333333,0.2206750633333333
240,1778426792710,0.6771127,0.23348923,-0.9949361,-0.77442443,-0.1151481,0.20631973
241,1778426792720,0.6751787714285714,0.2289157942857143,-0.9898661171428572,-0.7992517357142858,-0.1288053028571428,0.2070614985714285
242,1778426792730,0.6664209966666667,0.2035484633333333,-0.90956527,-1.0951287,-0.07971791,0.26267207
243,1778426792740,0.6608515866666667,0.2321273666666666,-0.8188282533333333,-1.2588406,0.162490155,0.366519155
244,1778426792750,0.6631972399999999,0.25102684,-0.782191988,-1.5020871,0.567005116,0.5276043159999999
245,1778426792760,0.6743178,0.2584297116666667,-0.757706815,-1.6468417333333332,0.87501354,0.63163467
246,1778426792770,0.7187614766666667,0.2684709633333333,-0.71613936,-1.7080301333333334,1.0678433333333337,0.6771950333333333
247,1778426792780,0.7947821833333334,0.2944480833333333,-0.6600385133333333,-1.6743816666666664,1.1772900666666668,0.6593781333333334
248,1778426792790,0.8361951839999999,0.292809776,-0.629939188,-1.38067762,0.94635244,0.500023758
249,1778426792800,0.8637176571428571,0.2873599714285714,-0.5970644542857143,-1.0759300571428572,0.6745915871428572,0.3932226914285714
250,1778426792810,0.8851532666666667,0.2840612733333333,-0.5389542,-0.6946301500000001,0.419359,0.31528282
251,1778426792820,0.9022884133333332,0.29123649,-0.5175301800000001,-0.2904664365,0.29703323,0.29642236
252,1778426792830,0.94631535,0.3042860466666666,-0.5154772133333333,0.0869464846666666,0.2555453,0.2731076766666667
253,1778426792840,0.97420317,0.3003834,-0.53722644,0.312763,0.28496864,0.2386955899999999
254,1778426792850,1.02396215,0.323890865,-0.62153015,0.6230825666666667,0.3626503433333334,0.0484110686666666
255,1778426792860,1.0404876,0.32794597,-0.6762792833333333,0.66706485,0.3715588,0.012064588
256,1778426792870,1.0490003,0.3200308639999999,-0.7120903199999999,0.73884153,0.41309762,-0.10781772
257,1778426792880,1.0603667,0.2932488,-0.79029,0.7277441433333333,0.5066618066666667,-0.2263255733333333
258,1778426792890,1.0494428,0.2696237442857143,-0.8705995757142857,0.5833763214285714,0.7298967,-0.4536547142857143
259,1778426792900,0.9937978666666666,0.2527993,-0.9026949766666666,0.4127922099999999,0.9366855,-0.5578727
260,1778426792910,0.9745691,0.2476364,-0.90365034,0.32498032,1.0535898,-0.581391
261,1778426792920,0.92938346,0.22178122,-0.8737095,0.16661349,1.3330606,-0.5161811
262,1778426792930,0.9571028642857142,0.2336808828571428,-0.8398312057142857,0.0598866082857142,1.5733924857142856,-0.4386012314285714
263,1778426792940,1.024828076,0.270552376,-0.806412882,-0.0145691353999999,1.66900602,-0.387746696
264,1778426792950,1.0995662166666669,0.3109734416666667,-0.7888569950000001,0.086539244,1.3866641,-0.4738787066666667
265,1778426792960,1.1214678,0.30873755,-0.77132547,0.22082779,1.0867293,-0.581391
266,1778426792970,1.1476888666666667,0.2947529766666666,-0.76072529,0.4832453066666666,0.562046945,-0.7385360833333333
267,1778426792980,1.1430950666666666,0.2706255533333333,-0.77396792,0.75625116,0.0183259575,-0.921490225
268,1778426792990,1.1020052833333334,0.2584195416666666,-0.7854421916666667,0.7680612233333334,-0.0208203256666666,-0.9631308766666667
269,1778426793000,1.0255069666666667,0.2577182866666667,-0.7757363333333333,0.6330091066666667,0.1678861286666666,-0.9252572066666668
270,1778426793010,0.9732275,0.25763696,-0.7578491,0.4579962199999999,0.42455134,-0.8460483599999999
271,1778426793020,0.9629423666666668,0.2665806,-0.7247577,0.35246925,0.5986479400000001,-0.7811439300000002
272,1778426793030,0.9513766583333334,0.2998549083333333,-0.6167636566666667,0.1167261693333333,1.0733920466666669,-0.6218608333333333
273,1778426793040,0.99957925,0.3273100385714286,-0.5422267714285715,0.0585557958285714,1.4610369142857142,-0.5450227
274,1778426793050,1.0827460999999998,0.3576834733333333,-0.5207011333333333,0.270078795,1.21646175,-0.623387975
275,1778426793060,1.07863005,0.35471583,-0.526890525,0.6150140333333333,0.5023603,-0.7934885166666666
276,1778426793070,1.03286518,0.332677952,-0.5366044600000001,0.8121453439999999,0.0421802459999999,-0.8351749820000001
277,1778426793080,1.0124981,0.32294568,-0.5378972,0.91599244,-0.20387627,-0.85062987
278,1778426793090,0.93279833,0.28315677,-0.59762633,0.9863692466666668,-0.3915137283333333,-0.8017860950000001
279,1778426793100,0.866855428,0.283199462,-0.6283049679999999,0.8425969719999999,-0.1945911304,-0.653289836
280,1778426793110,0.7764884083333333,0.32168545,-0.6321507233333333,0.6174829533333334,0.105577876,-0.5208644133333333
281,1778426793120,0.751415825,0.358740445,-0.59710802,0.3916664466666666,0.30349821,-0.3917682466666667
282,1778426793130,0.7632152900000001,0.37394458,-0.5595854866666667,0.2837723716666666,0.33012175,-0.3408118899999999
283,1778426793140,0.7810455839999999,0.376363424,-0.490443244,0.272048838,0.1381166316,-0.383501208
284,1778426793150,0.7593024433333334,0.3689646333333333,-0.4444873333333333,0.372093285,-0.113162788,-0.467311915
285,1778426793160,0.7359982333333334,0.3638423733333333,-0.4380337066666667,0.42119157,-0.19593503,-0.49586987
286,1778426793170,0.6817064466666668,0.3624601666666667,-0.4336635166666667,0.5574654516666667,-0.300545695,-0.4964298116666666
287,1778426793180,0.65003794,0.3751438599999999,-0.43801335,0.6077345833333333,-0.3272201433333333,-0.487419555
288,1778426793190,0.5842922333333334,0.3814043666666666,-0.464224225,0.6471862766666666,-0.3212642066666667,-0.458937975
289,1778426793200,0.49225432,0.36624087,-0.4870711,0.68600166,-0.28130344,-0.3979787000000001
290,1778426793210,0.48075974,0.36367974,-0.4867967,0.70707655,-0.3361286,-0.3268129
291,1778426793220,0.4695395742857143,0.3331553171428571,-0.4665167685714286,0.7826056642857143,-0.4424191571428572,-0.2175771057142857
292,1778426793230,0.467374825,0.30260912,-0.45584976,0.931798575,-0.626289585,-0.0388663
293,1778426793240,0.4736252,0.29495624,-0.4603927,0.980286,-0.66843927,-0.00580322
294,1778426793250,0.4736252,0.29495624,-0.4603927,0.980286,-0.66843927,-0.00580322
295,1778426793260,0.4650532571428571,0.2747285771428571,-0.48114304,1.0510373142857143,-0.5795583857142858,0.0394880757142857
296,1778426793270,0.39293234,0.2769063957142857,-0.6173095,1.1484703285714286,-0.0473202371428571,0.2195842357142857
297,1778426793280,0.3799002199999999,0.28202865,-0.6344882,1.1248574666666666,0.06907868,0.2669481133333333
298,1778426793290,0.3638322,0.2954948916666666,-0.6817775833333334,1.0421361,0.091222542,0.3248276
299,1778426793300,0.3570069,0.3061851228571428,-0.7227947571428571,0.9259407928571428,0.0486510531428571,0.3827070714285714
300,1778426793310,0.35930959,0.3111970266666666,-0.7376649533333334,0.8249735233333334,0.0291179093333333,0.3830125066666667
301,1778426793320,0.3559557333333333,0.31542491,-0.7628900166666667,0.7735081300000001,0.0355828996666666,0.36590828
302,1778426793330,0.35111806,0.3186771299999999,-0.78407013,0.72616607,0.052687127,0.3454443
303,1778426793340,0.3444306633333333,0.3330072366666666,-0.8245196433333334,0.6438519566666666,0.100690951,0.2866994266666666
304,1778426793350,0.3191954716666667,0.32327088,-0.8818807333333334,0.514959395,0.18333593,0.21510092
305,1778426793360,0.3074163199999999,0.3364017299999999,-0.8879989666666667,0.4253149283333333,0.219835135,0.2064978999999999
306,1778426793370,0.2882398085714285,0.3670249042857142,-0.8924475428571429,0.1357429828571428,0.2284636042857142,0.2091559014285714
307,1778426793380,0.28294334,0.3651432700000001,-0.8893812,0.0693332,0.2333505299999999,0.20845777
308,1778426793390,0.3504472699999999,0.3473983,-0.8667578700000002,-0.04352415,0.28214339,0.16432275
309,1778426793400,0.35117903,0.32392135,-0.86462367,-0.06337727,0.3715588,0.1432479
310,1778426793410,0.35855752,0.33069003,-0.8675506000000001,-0.078343466,0.42653665,0.11010846
311,1778426793420,0.338475025,0.3988647183333333,-0.89088535,-0.0306450720166666,0.4240423033333333,-0.0331394391666666
312,1778426793430,0.3180586157142857,0.4132296599999999,-0.9364135571428572,0.0070467672,0.3312635,-0.1293288957142857
313,1778426793440,0.282546965,0.417676795,-0.9885638,0.043829583,0.21135938,-0.22540927
314,1778426793450,0.26885715,0.41288993,-1.0043879,-0.0237801102,0.1381864442857143,-0.2812379928571428
315,1778426793460,0.2406673457142857,0.3832453528571428,-1.0068705714285715,-0.1712604342857142,0.18439403,-0.2659881742857143
316,1778426793470,0.1976944733333333,0.3714037866666667,-0.9806466666666668,-0.3593923866666667,0.2815070533333333,-0.19771671
317,1778426793480,0.1783031,0.37977824,-0.951458,-0.47525316,0.3411682199999999,-0.13500121
318,1778426793490,0.1798537085714285,0.3928974685714285,-0.9341398971428572,-0.4821472142857143,0.3262020228571428,-0.1038907185714285
319,1778426793500,0.1837302299999999,0.42569554,-0.89084464,-0.49938235,0.28878653,-0.02611449
320,1778426793510,0.18684018,0.4427697399999999,-0.87883174,-0.355829,0.1160644,-0.043982297
321,1778426793520,0.1723445485714285,0.4454266771428571,-0.9085460857142856,-0.0767944857142857,-0.1895427542857142,-0.1047197538571428
322,1778426793530,0.1467260366666666,0.4304722616666667,-0.9797828,0.08119417,-0.31485012,-0.1432478933333333
323,1778426793540,0.1385795085714285,0.4302951285714286,-0.9990130142857144,0.1013163631428571,-0.3023783028571428,-0.1653044957142857
324,1778426793550,0.12677568,0.4314275999999999,-1.0265843,0.087964594,-0.28344148,-0.17516561
325,1778426793560,0.105951305,0.42228073,-1.0354465333333334,-0.0019853125,-0.1437315066666666,-0.1892664133333333
326,1778426793570,0.0677783505,0.4100391625,-1.026172675,-0.071394875,0.042875105,-0.190055445
327,1778426793580,0.0402462496666666,0.4180833333333333,-1.0081787,-0.0822122783333333,0.1548543383333333,-0.1834122933333333
328,1778426793590,0.0115657156666666,0.4223620466666666,-0.99466175,0.0096720333333333,0.2400700333333333,-0.1700750666666667
329,1778426793600,-0.0115686191428571,0.4212789342857143,-0.9966784,0.1381209942857142,0.2654863871428571,-0.1477857571428571
330,1778426793610,-0.030205014,0.4156340066666666,-1.0406704666666666,0.3202461066666667,0.2233221433333333,-0.0993674159999999
331,1778426793620,-0.0276947051666666,0.4144449166666666,-1.0593605833333335,0.38438696,0.20219639,-0.081397794
332,1778426793630,-0.016769271,0.4094140999999999,-1.0845145,0.50823987,0.15577064,-0.055588737
333,1778426793640,0.0249506428333333,0.4007753933333333,-1.17368635,0.6665558116666667,0.0106901424999999,-0.1113301936666666
334,1778426793650,0.04402696,0.4012429,-1.2122048,0.698219,-0.018325957,-0.1224784849999999
335,1778426793660,0.0496893122857142,0.3911116614285714,-1.2461179999999998,0.6980444571428571,-0.0318522588571428,-0.1379682828571428
336,1778426793670,0.0249927457142857,0.3497155485714285,-1.2642288285714287,0.5933901257142857,-0.1012290985714285,-0.3231913414285715
337,1778426793680,0.02042802,0.33947104,-1.2624518,0.48716503,-0.06566802,-0.3691153199999999
338,1778426793690,-0.0190690562857142,0.3016378257142857,-1.1906182428571428,0.1350666645714285,0.1414153042857143,-0.3736749971428571
339,1778426793700,-0.032745812,0.29379764,-1.1543356,0.0215330002857142,0.2079777985714286,-0.3272274228571428
340,1778426793710,-0.0417097502857142,0.2954963342857142,-1.075959957142857,-0.0176932757142857,0.2327178428571428,-0.2742348742857143
341,1778426793720,-0.0398716665714285,0.3103926785714285,-1.029746442857143,0.02977968,0.2151772771428571,-0.16445366
342,1778426793730,-0.0223488664999999,0.3480690849999999,-1.02426705,0.1043561458333333,0.1493565542,-0.1241838126666666
343,1778426793740,-0.0002439165,0.3849309999999999,-1.0335664,0.2810489266666666,-0.0581340065333333,-0.0939205306666666
344,1778426793750,0.009390792,0.39801103,-1.039024,0.36209038,-0.18142697,-0.10338894
345,1778426793760,0.0289549403333333,0.4038548633333333,-1.0467988333333331,0.4103487266666666,-0.2819143033333333,-0.1341358266666666
346,1778426793770,0.0411435164285714,0.3958767657142857,-1.0562810857142857,0.4379685571428571,-0.3681553842857142,-0.1947787485714285
347,1778426793780,0.0420553,0.3829695066666667,-1.0598788666666668,0.4119776966666666,-0.36667186,-0.2255619933333333
348,1778426793790,0.0226406931428571,0.3505692457142856,-1.0560111428571428,0.2163553785714285,-0.2199769357142857,-0.2249293085714285
349,1778426793800,0.015610667,0.34471524,-1.0512809,0.129198,-0.14996742,-0.19135354
350,1778426793810,0.0185071761666666,0.3479674399999999,-1.0318183166666668,0.033750303,-0.07880162,-0.10842858
351,1778426793820,0.0185884816666666,0.3484654366666666,-1.0269501333333333,0.0072794766666666,-0.0640390423333333,-0.0815505096666666
352,1778426793830,0.0172309714285714,0.3453511628571428,-0.9942915142857144,-0.1101957278571428,-0.0530361935714285,0.0358228828571428
353,1778426793840,0.0219829905,0.347977625,-0.96179395,-0.1544980066666666,-0.1395318,0.10990484
354,1778426793850,0.026343001,0.34428838,-0.9498116,-0.1647809,-0.23747386,0.14767668
355,1778426793860,0.0673384215714285,0.3150532285714286,-0.9106977714285714,-0.1262527571428571,-0.48688142,0.2139991914285714
356,1778426793870,0.0970788333333333,0.2891530583333333,-0.8860883166666667,-0.0852157,-0.6525568,0.25885415
357,1778426793880,0.12425522,0.2434898199999999,-0.8678351833333333,-0.023518313,-0.80924374,0.31795537
358,1778426793890,0.12749002,0.2070852457142857,-0.8567573,0.0127845372857142,-0.7923794985714286,0.5356851728571429
359,1778426793900,0.1203118999999999,0.21025616,-0.8467566999999999,-0.004581489,-0.74097955,0.63194007
360,1778426793910,0.1483114883333333,0.22433219,-0.85174686,-0.0429132821666666,-0.73983414,0.8016079500000001
361,1778426793920,0.1888089257142857,0.22308792,-0.8548320657142857,-0.0308268792142857,-0.8483390942857143,0.8894634571428571
362,1778426793930,0.26574721,0.2135896933333333,-0.8551717999999999,0.0264199216666666,-0.9988664666666668,0.8982773666666667
363,1778426793940,0.33899191,0.1862303771428571,-0.8465824800000001,0.1230238971428571,-1.172948542857143,0.8625417571428572
364,1778426793950,0.35441092,0.1829375,-0.84590304,0.18432859,-1.2403619,0.8312349
365,1778426793960,0.3611795971428572,0.1920582457142857,-0.8495356371428572,0.18432859,-1.2403619,0.8312349
366,1778426793970,0.38672986,0.199889715,-0.8523668,0.2091449916666666,-1.3327298166666666,0.7869217083333333
367,1778426793980,0.40325522,0.19556019,-0.8503545,0.22021692,-1.5248724,0.6866125500000001
368,1778426793990,0.4471689571428571,0.1769005628571428,-0.8051340928571429,0.0585994274285714,-1.3951944285714286,0.6563747071428571
369,1778426794000,0.4729137866666666,0.16582268,-0.7816716333333334,-0.110006646,-1.1886928666666667,0.6479753100000001
370,1778426794010,0.5307539485714285,0.18019344,-0.7402348285714285,-0.2465495728571428,-0.9606073828571428,0.6424338928571428
371,1778426794020,0.5642402,0.20970736,-0.7206518,-0.25625798,-0.91522884,0.6239988
372,1778426794030,0.6052690266666666,0.2020849633333333,-0.7523507983333334,-0.12021319,-1.1533644566666668,0.4958698466666666
373,1778426794040,0.5998418833333333,0.2099512766666666,-0.7544443916666667,0.0151698199999999,-1.3942489833333334,0.41151955
374,1778426794050,0.6122918,0.23251356,-0.8090715999999999,0.33592498,-1.8287269666666663,0.34035376
375,1778426794060,0.59303255,0.2184375266666667,-0.8292963499999999,0.4699081,-1.9422461,0.32834008
376,1778426794070,0.5766451428571429,0.1250944085714285,-0.8420439428571428,0.6708827428571429,-1.7718800428571428,0.3318089114285714
377,1778426794080,0.5697283666666667,0.12167376,-0.9321275666666669,0.694935575,-1.2681563,0.35491271
378,1778426794090,0.5707040333333333,0.12140952,-0.9955459,0.5394449066666667,-0.9219484333333332,0.3284927866666666
379,1778426794100,0.5577067714285714,0.0735757231428571,-1.0871017714285711,0.1543089168571428,-0.5098543228571428,0.3013965428571428
380,1778426794110,0.5527152,0.098969187,-1.1014972,-0.1934915626666666,-0.2913318033333333,0.36621371
381,1778426794120,0.56927538,0.1338405571428571,-1.0673009428571427,-0.44089198,-0.19165897,0.43371433
382,1778426794130,0.6422834416666667,0.160324385,-0.99978395,-0.6778059233333332,-0.3043127,0.5145012333333333
383,1778426794140,0.8023377685714286,0.1936262714285714,-0.8883793871428571,-0.65353855,-0.6277731085714285,0.4191190057142857
384,1778426794150,0.88330354,0.2133660966666666,-0.8374065566666666,-0.405232725,-1.0278571,0.1734093785
385,1778426794160,0.98950895,0.19476746,-0.884685765,-0.12622003155,-1.5497651,-0.0898735465
386,1778426794170,1.0155877333333334,0.1337679703333333,-0.9269443,-0.0015271631,-1.8839084,-0.21792617
387,1778426794180,0.8082484000000001,0.0292090205,-0.9281029,0.1572977923,-1.6667203833333335,-0.30136019
388,1778426794190,0.6358501133333333,0.0529299166666666,-0.9573932666666668,0.0471384366666666,-1.0490592666666665,-0.2331469066666666
389,1778426794200,0.4761558299999999,0.1150676899999999,-0.9840818,-0.32818735,-0.7655159666666665,0.22260948
390,1778426794210,0.51907504,0.1657413833333333,-0.9578811333333332,-0.5954409100000001,-0.69317935,0.562377815
391,1778426794220,0.5683259,0.1815349899999999,-0.9389573,-0.70707655,-0.7290677,0.70066243
392,1778426794230,0.5683259,0.18153499,-0.9389573,-0.73236635,-0.7917424439999999,0.691132942
393,1778426794240,0.6713074840000001,0.186559666,-0.905174808,-0.7029531600000001,-0.832792588,0.546541132
394,1778426794250,0.9081525833333334,0.175884245,-0.8173952283333333,-0.5304855333333333,-0.8654433466666666,0.1623374476666666
395,1778426794260,0.6368359,0.144642585,-0.809589935,-0.326583825,-0.8323038700000001,-0.0203876279
396,1778426794270,0.4926018959999999,0.1166165616,-0.816035398,-0.2181705239999999,-0.65173214,0.13032809448
397,1778426794280,0.4560835266666667,0.114559524,-0.8215723033333333,-0.1704314133333333,-0.4331543966666666,0.3026328199999999
398,1778426794290,0.47222266,0.1348859,-0.82888985,-0.14935656,-0.19746219,0.4689918
399,1778426794300,0.52375007,0.16263144,-0.83882946,-0.1373174083333333,0.0203876291666666,0.5297983416666666
400,1778426794310,0.5511093966666666,0.16803826,-0.8435654866666668,-0.13057245,0.13454308,0.48258355
401,1778426794320,0.636256625,0.17802868,-0.8462078900000001,-0.13057245,0.13454308,0.48258355
402,1778426794330,0.65534308,0.16464375,-0.8383009266666667,-0.10333804,0.1062142025,0.4134030593333333
403,1778426794340,0.63265884,0.13952033,-0.8361462999999999,0.03283401,-0.035430185,0.067500606
404,1778426794350,0.533049405,0.0963877363333333,-0.8462689333333332,0.172798505,-0.093920535,-0.075518218
405,1778426794360,0.37150542,0.0622190786666666,-0.8345406166666667,0.2635374466666667,-0.0707585606666666,-0.0687223434999999
406,1778426794370,0.3083513333333333,0.06597946,-0.8315322666666667,0.34890587,0.012980887,0.0752382396666666
407,1778426794380,0.29641976,0.081529145,-0.84440903,0.4237877633333333,0.1385136933333333,0.2736676366666666
408,1778426794390,0.31526232,0.08866371,-0.85297656,0.44425175,0.21548271,0.36468655
409,1778426794400,0.4070257966666666,0.1005749733333333,-0.8848991766666666,0.4544073816666666,0.3034982166666666,0.4316781066666666
410,1778426794410,0.509999305,0.1115918799999999,-0.93648757,0.46723555,0.4965570749999999,0.5185482499999999
411,1778426794420,0.5409706240000001,0.11792152,-0.958580338,0.4539339599999999,0.507781716,0.500298646
412,1778426794430,0.5831438,0.1310442333333333,-0.96977204,0.42546764,0.45952338,0.45448375
413,1778426794440,0.5877782,0.1378739,-0.95225066,0.4108068599999999,0.3846924,0.39599338
414,1778426794450,0.6157589428571428,0.1457750542857143,-0.9220660114285714,0.4378594714285714,0.4856596914285713,0.3749621742857142
415,1778426794460,0.641122788,0.142349764,-0.919504896,0.46883907,0.5758015799999999,0.36804631
416,1778426794470,0.65398123,0.1387682533333333,-0.93207675,0.5006804233333333,0.6682865833333334,0.3627267016666666
417,1778426794480,0.6723562866666667,0.1338289466666666,-0.9950783666666666,0.5927938266666667,0.8760825833333333,0.3557781066666667
418,1778426794490,0.6855278,0.1235438,-1.0154861,0.6189592,0.84421575,0.3492622
419,1778426794500,0.7185785333333333,0.0837040666666666,-1.022315766666667,0.6306929333333334,0.8284605166666666,0.3650174399999999
420,1778426794510,0.7578368999999999,0.0605035278,-0.97203228,0.621738644,0.8817228800000001,0.3887851839999999
421,1778426794520,0.7583979,0.058966853,-0.9446892,0.6231843833333334,0.9517025833333334,0.39016472
422,1778426794530,0.7259772999999999,0.06524771,-0.7826675999999999,0.67729685,1.1121565,0.42791111
423,1778426794540,0.7302255,0.06738198,-0.7399212,0.7163922,1.1582005,0.4436409
424,1778426794550,0.7752993333333333,0.0300322391666666,-0.6717261416666666,0.83803075,1.23112255,0.45066584
425,1778426794560,0.8830393500000001,-0.07704718,-0.6606178,1.347721416666667,1.57895935,0.4617632166666667
426,1778426794570,0.9030912833333332,-0.1124964066666666,-0.7212920666666666,1.60940085,1.7778978333333335,0.4625013666666667
427,1778426794580,0.891861,-0.1684854433333333,-1.0411786,1.9852102333333337,1.9451477,0.4736241866666666
428,1778426794590,0.90093673,-0.148057425,-1.1800384000000002,1.9778289333333336,1.7711019666666663,0.4623231866666666
429,1778426794600,0.909626245,-0.11470182,-1.3259005499999998,1.8226182666666668,1.2272282666666663,0.3784310166666667
430,1778426794610,0.90761393,-0.10037171,-1.393069,1.46141875,0.6127741999999999,0.240757265
431,1778426794620,0.9261516,-0.0942738,-1.4106921,1.3220651,0.5010622,0.20570888
432,1778426794630,0.9099921416666666,-0.0682865063333333,-1.3523655166666666,0.5003750100000001,0.4990259999999999,0.0503454781666666
433,1778426794640,0.90273565,-0.058722936,-1.317333,0.06536258,0.5879578,-0.035888333
434,1778426794650,0.91700473,-0.0877490232,-1.1604213600000002,-0.3968791559999999,0.78905464,-0.087078841
435,1778426794660,0.9348107,-0.10701844,-1.0632937,-0.64904433,0.9121745,-0.107359566
436,1778426794670,0.98447815,-0.090005253,-0.9624038,-0.73792525,0.91385442,-0.1488220475
437,1778426794680,1.0352636333333332,-0.0754312333333333,-0.9242816,-0.7372634666666666,0.8485936266666667,-0.1922698366666666
438,1778426794690,1.0442885666666666,-0.0690385833333333,-0.9305014666666668,-0.7236716916666666,0.71789389,-0.2612212483333333
439,1778426794700,1.024328033333333,-0.0263023472333333,-0.96255618,-0.79946989,0.24694228,-0.4984660133333333
440,1778426794710,0.9312941233333332,0.0345548588666666,-0.94877486,-0.87399544,0.1287398546666666,-0.5615887533333334
441,1778426794720,0.7912046899999999,0.11496606,-0.81681594,-1.0539716,-0.0126754529999999,-0.63789603
442,1778426794730,0.7620973166666666,0.1118358,-0.7280302633333333,-1.1426234,-0.0640390399999999,-0.6530149333333334
443,1778426794740,0.76498365,0.07939488,-0.64778167,-1.1426234,-0.06719518,-0.6407976
444,1778426794750,0.7957781566666666,-0.0146959803333333,-0.5575731866666667,-0.9472992166666666,0.0481565436666666,-0.5797620333333334
445,1778426794760,0.82590187,-0.053478733,-0.53936076,-0.80863285,0.129198,-0.5401576
446,1778426794770,0.8625300133333332,-0.0667112066666666,-0.6212151,-0.52748215,0.26290114,-0.5577963250000001
447,1778426794780,0.85262294,-0.0608694051999999,-0.67130744,-0.389212792,0.3297450759999999,-0.6003583600000001
448,1778426794790,0.73998222,0.025550272,-0.7541903200000001,-0.377591085,0.449673175,-0.656832835
449,1778426794800,0.608968465,0.115464055,-0.78327739,-0.4900157233333333,0.5077817233333333,-0.6677775166666667
450,1778426794810,0.53673863,0.14793546,-0.78748494,-0.5320636,0.5151121,-0.66614854
451,1778426794820,0.4505039216666667,0.1704469433333333,-0.7515580733333334,-0.61376684,0.411774085,-0.5612324333333333
452,1778426794830,0.39563285,0.20671939,-0.6290204166666666,-0.59452462,-0.0301869199999999,-0.34091371
453,1778426794840,0.40624323,0.19696271,-0.57527745,-0.52946746,-0.25213462,-0.26282477
454,1778426794850,0.5580406833333333,0.1006867688333333,-0.5225711333333334,-0.2016109811666666,-0.5995642533333333,-0.2446769849999999
455,1778426794860,0.6032669,0.043722063,-0.5163716,0.0727693208333333,-0.83907429,-0.3195334366666666
456,1778426794870,0.6119015720000001,-0.0091590715999999,-0.566289124,0.248897036,-0.618103992,-0.437684952
457,1778426794880,0.59704703,-0.031038398,-0.6108892599999999,0.2761328914285714,-0.3355177371428571,-0.5026111914285715
458,1778426794890,0.5321042433333333,0.0290464119999999,-0.6805478666666667,0.25213462,-0.20952678,-0.50915617
459,1778426794900,0.425439474,0.132824828,-0.7419579479999999,0.048197264,0.448863784,-0.514898298
460,1778426794910,0.3144391016666667,0.1844010033333333,-0.7763054449999999,-0.0897971966666666,0.7887543166666666,-0.4980587716666667
461,1778426794920,0.245410655,0.201444685,-0.78907046,-0.1249983,0.729678535,-0.452422085
462,1778426794930,0.198718906,0.199621418,-0.79913201,-0.121104032,0.61227024,-0.415052404
463,1778426794940,0.1981300171428571,0.1556449728571428,-0.8045504057142857,-0.0238891908571428,0.1374883142857143,-0.2191042714285714
464,1778426794950,0.2204640699999999,0.123738928,-0.805242088,0.0676533256,-0.169698356,-0.0334143296
465,1778426794960,0.2883095149999999,0.096286105,-0.803552985,0.1236493033333333,-0.2735912583333333,0.0992656
466,1778426794970,0.3379668799999999,0.11399039,-0.8115717566666666,0.1072323033333333,-0.0076103641666666,0.2900337283333333
467,1778426794980,0.35367918,0.1243975,-0.81571835,0.0891099683333333,0.0855465858333333,0.31177035
468,1778426794990,0.38572372,0.19501137,-0.84282352,-0.003130685,0.42523855,0.30879238
469,1778426795000,0.3904292666666666,0.26462926,-0.8717581799999999,-0.0486146919999999,0.5464189666666667,0.17379116
470,1778426795010,0.3477032,0.2788577333333333,-0.89743042,-0.054061573,0.5540548,0.11713341
471,1778426795020,0.2242813666666666,0.2829636466666667,-0.9651579466666664,-0.0345647926666666,0.33047809,0.0366519156666666
472,1778426795030,0.1923384483333333,0.288309485,-0.9865921166666666,-0.027641652,0.17287487,0.058337633
473,1778426795040,0.1626517633333333,0.27946752,-1.0110142666666666,-0.0503963836666666,-0.1968513266666667,0.22607105
474,1778426795050,0.1842993633333333,0.2548725933333333,-1.0023552333333334,-0.1607593733333333,-0.43692136,0.43921212
475,1778426795060,0.20995127,0.2520269,-0.9802401,-0.27214047,-0.49128836,0.5739079
476,1778426795070,0.301237096,0.290846228,-0.89685722,-0.487928616,-0.352591424,0.6439435880000001
477,1778426795080,0.32355547,0.29885888,-0.8761487000000001,-0.5233588,-0.30268374,0.6247624
478,1778426795090,0.3262036985714286,0.2865672357142857,-0.8647543142857143,-0.5745842000000001,-0.1222821357142857,0.4513639542857143
479,1778426795100,0.2787845439999999,0.238184634,-0.8900153599999999,-0.6096435,0.07009678,0.23869559
480,1778426795110,0.2559905233333333,0.2237833816666666,-0.90444305,-0.6021094883333333,0.2666426783333333,-0.0335466833333333
481,1778426795120,0.2105000849999999,0.21550038,-0.9316093,-0.5999205866666667,0.39864048,-0.1612175233333333
482,1778426795130,0.20129223,0.21946402,-0.9389573,-0.6067419,0.4915938000000001,-0.21853705
483,1778426795140,0.12311694,0.20220692,-0.96719056,-0.7034331371428572,0.8073020571428572,-0.2054470771428571
484,1778426795150,-0.0843748433333333,0.22623271,-1.0131892,-0.8028805433333334,0.9452121666666664,-0.0543670066666666
485,1778426795160,-0.1277513566666666,0.2957489566666667,-0.96790202,-0.8641452416666667,0.9232719333333334,0.157985025
486,1778426795170,-0.0952189714999999,0.3287082,-0.945390565,-0.8566112499999999,0.8062403166666666,0.384896025
487,1778426795180,-0.062320713,0.3500813999999999,-0.9362742,-0.786489,0.6575964,0.5707009
488,1778426795190,0.023572804,0.40759346,-0.9499770714285714,-0.6100144228571428,0.4131412485714286,0.6802638971428571
489,1778426795200,0.11787273,0.4638278733333333,-0.9710526,-0.47624583,0.25121833,0.63163465
490,1778426795210,0.17190027,0.4974071,-0.9875576,-0.42180246,0.19349156,0.5694791
491,1778426795220,0.19319071,0.5326007571428572,-0.9911466285714284,-0.4291764742857142,0.2537926885714285,0.4700826114285714
492,1778426795230,0.20915854,0.558996,-0.9938384,-0.4558582,0.3839288,0.31337386
493,1778426795240,0.19909698,0.5732652,-0.9817646,-0.4537456166666667,0.46820275,0.26585364
494,1778426795250,0.14958191,0.5899125,-0.96194637,-0.410196,0.6104071,0.18799378
495,1778426795260,0.1472342049999999,0.5980227,-0.948835875,-0.1578323075,0.48548515,0.171194985
496,1778426795270,0.17985805,0.617414055,-0.9624037,0.1063414566666666,0.358527,0.124514701
497,1778426795280,0.2081218885714286,0.6434696042857143,-0.9978892142857144,0.3355613671428571,0.2619084957142857,0.0263326554285714
498,1778426795290,0.20272524,0.657233445,-1.08195335,0.6248642566666667,0.08567385,-0.3305290033333333
499,1778426795300,0.1767481199999999,0.643757045,-1.14528025,0.6886742,0.0212275668,-0.488081325
500,1778426795310,0.1329955685714285,0.5956706442857144,-1.1798423571428571,0.6447028285714287,-0.0649698798857142,-0.7004878857142858
501,1778426795320,0.053438078,0.4700477766666666,-1.1571406333333334,0.5413029850000001,-0.13790283,-0.8688794300000001
502,1778426795330,0.031508807,0.4200506714285714,-1.1286633714285714,0.47632217,-0.1600466999999999,-0.91645056
503,1778426795340,0.021525647,0.34995946,-1.0767092,0.393728095,-0.1499928666666666,-0.9256135933333334
504,1778426795350,-0.0437046397142857,0.2562344671428571,-1.0083253714285714,0.2126029157142857,0.0534943499999999,-0.8074548
505,1778426795360,-0.09295258,0.2027353999999999,-0.9321682,0.14676037,0.13408493,-0.75945824
506,1778426795370,-0.095706805,0.20245084,-0.85852575,0.11163562,0.41994441,-0.3982586866666666
507,1778426795380,-0.08244383,0.21037814,-0.8463909,0.2170098699999999,0.47250426,-0.2079996199999999
508,1778426795390,-0.05780825,0.23318434,-0.8676929266666668,0.3283909566666667,0.4270966066666666,-0.1126028266666666
509,1778426795400,-0.0089537746666666,0.279498015,-0.9412032983333334,0.5927938083333334,0.233223255,0.0455603699999999
510,1778426795410,0.06444627,0.3298188999999999,-1.0577707428571428,0.7694066057142857,-0.0278598177142857,0.1053742574285714
511,1778426795420,0.1614728299999999,0.3548377857142857,-1.1877958,0.8546222571428571,-0.4280638142857143,0.0925897191428571
512,1778426795430,0.1701928499999999,0.3565452,-1.1981187,0.8327620083333334,-0.4740314283333333,0.0762563455
513,1778426795440,0.18204314,0.3406092933333333,-1.2179775666666666,0.6338745,-0.4865032733333334,0.0045305833333333
514,1778426795450,0.1820533066666666,0.33370848,-1.1946733833333332,0.339182935,-0.30138563,-0.0278707264999999
515,1778426795460,0.18019344,0.33447072,-1.1881791,0.21777347,-0.2058615799999999,-0.032375857
516,1778426795470,0.1876503257142857,0.3680789542857142,-1.0496431428571429,-0.1159116771428571,0.062308254,-0.0387899405714285
517,1778426795480,0.1913119733333333,0.3929497566666666,-0.9751585666666666,-0.167300725,0.091553427,-0.0764345115
518,1778426795490,0.1917185,0.4001453,-0.9570071,-0.14767668,0.07192938,-0.096516706
519,1778426795500,0.1818398771428571,0.4161392771428572,-0.9354204714285714,-0.05955936,-0.011453724,-0.13545936
520,1778426795510,0.14533368,0.4356148533333333,-0.9212123,0.1563305933333333,-0.2644028266666666,-0.22164228
521,1778426795520,0.140496,0.4372816399999999,-0.9231636,0.16982053,-0.28237244,-0.2264783
522,1778426795530,0.140496,0.43728164,-0.9231636,0.16982053,-0.28237244,-0.2264783
523,1778426795540,0.0891921966666666,0.38670956,-0.9575965333333332,0.16982053,-0.28237244,-0.2264783
524,1778426795550,0.0638190557142857,0.3251147857142857,-0.96323565,0.1798125433571428,-0.4795073942857142,-0.1817324174285714
525,1778426795560,0.0752991049999999,0.2124209333333333,-0.896475025,-0.0313832004166666,-0.5237405949999999,0.0491491966666666
526,1778426795570,0.1214501833333333,0.19747086,-0.7813057333333333,-0.26007587,-0.22632557,0.25518894
527,1778426795580,0.1448603757142857,0.1989227471428571,-0.7297986571428571,-0.3118467157142857,-0.031263212,0.3952079971428571
528,1778426795590,0.2066148442857142,0.2452582142857143,-0.6498550171428572,-0.1651081528571428,-0.0275107528571428,0.4877104428571428
529,1778426795600,0.23111105,0.2684303,-0.64278144,-0.03191771,-0.16310102,0.4810564
530,1778426795610,0.24484007,0.2752599571428571,-0.6437919428571429,0.3088578357142856,-0.6855217171428573,0.3524692457142857
531,1778426795620,0.3019485,0.2822827066666666,-0.6787489583333333,0.6946047000000001,-1.3365222333333333,0.15360715795
532,1778426795630,0.4158779000000001,0.23202574,-0.84090275,0.8910997000000002,-1.7737999,-0.0061086523
533,1778426795640,0.3901621228571428,0.1035164971428571,-0.9064988842857142,0.6008732142857143,-1.5197454571428572,0.0249363931
534,1778426795650,0.3769731999999999,0.07128465,-0.91572416,0.5012149,-1.4173601,0.04932737
535,1778426795660,0.35520366,0.08427321,-0.88023424,0.2289726466666667,-1.0863729400000002,0.16987145
536,1778426795670,0.4309484728571428,0.1286312,-0.7651840314285714,-0.4957389428571429,-0.1479384714285714,0.4898048371428571
537,1778426795680,0.49393123,0.15385045,-0.70851696,-0.5405648116666667,-0.0901026258333333,0.4784602016666667
538,1778426795690,0.5999333633333334,0.1889134733333333,-0.6763809399999999,-0.3606650166666666,-0.3566944066666666,0.19990565
539,1778426795700,0.81193763,0.25903952,-0.6121089,-0.13118331,-0.69134676,-0.06246097
540,1778426795710,0.8288375071428572,0.2403450342857142,-0.6884548285714285,0.1395172614285714,-1.0833040742857143,-0.3645992914285714
541,1778426795720,0.7613249,0.1621436,-0.7940402249999999,0.4787656466666667,-1.5901331666666667,-0.7817548
542,1778426795730,0.6896656971428571,0.1230211114285714,-0.8416257757142857,0.3616540485714285,-1.4160729285714286,-0.7359180714285714
543,1778426795740,0.58710742,0.0804010325,-0.87889275,-0.0011708293333333,-0.8728246333333333,-0.4528547466666666
544,1778426795750,0.5783264,0.079029,-0.86450166,-0.091477074,-0.7350236,-0.36682457
545,1778426795760,0.58806274,0.0851269166666666,-0.85543609,-0.1237256683333333,-0.6812420083333333,-0.32907819
546,1778426795770,0.6983421314285714,0.1502875114285714,-0.7794792728571428,-0.2973822971428571,-0.3679154128571428,-0.0861319999285714
547,1778426795780,0.8573670999999999,0.22861089,-0.7221153,-0.25045475,-0.3923281999999999,-0.0096211275
548,1778426795790,0.8801733183333335,0.26147868,-0.7336606833333333,0.0152461816666666,-0.741895825,-0.2362775858333333
549,1778426795800,0.8547450257142858,0.2651113042857143,-0.7828941,0.2561270785714286,-1.098444757142857,-0.4884958514285714
550,1778426795810,0.76870342,0.23048093,-0.8649488333333334,0.343229925,-1.31504015,-0.651945925
551,1778426795820,0.68833286,0.19446257,-0.9199927,0.3022256,-1.311375,-0.64766985
552,1778426795830,0.576131175,0.098938695,-0.9509701,0.08211048,-0.9314931441666666,-0.422744185
553,1778426795840,0.521432875,0.08832832,-0.91432165,-0.54596081,0.3163518475,0.2360230599999999
554,1778426795850,0.5334109428571429,0.1125849614285714,-0.8752775714285714,-0.7414376857142857,0.6725844657142857,0.41117776
555,1778426795860,0.78501532,0.169491595,-0.78190535,-0.85902925,0.80771655,0.55741457
556,1778426795870,0.88329341,0.1764533833333333,-0.73889475,-0.8089383,0.8364272,0.5163339
557,1778426795880,0.9606570885714284,0.2386637442857143,-0.7132036571428572,-0.5428192228571428,0.6225807557142857,0.2568470214285714
558,1778426795890,0.8784862200000001,0.2291393766666666,-0.7601459533333333,0.0401643933333333,0.0931060516666666,-0.1794416666666666
559,1778426795900,0.7941723666666668,0.1871450566666666,-0.8146613433333334,0.3143411,-0.1896227499999999,-0.27814731
560,1778426795910,0.6223839,0.07628494,-0.937859585,0.5209662866666667,-0.4173736666666667,-0.2494875399999999
561,1778426795920,0.5817413,0.03738023,-0.9704834,0.53023106,-0.4448626,-0.15409076
562,1778426795930,0.59105075,0.043783044,-0.9672921666666668,0.3840051783333333,-0.28710666,0.0203112653666666
563,1778426795940,0.6422630500000001,0.067961285,-0.9726482,0.2024509266666666,-0.0788016153333333,0.1534798866666666
564,1778426795950,0.6814625,0.0923631116666666,-1.0136161,0.1081995065,-0.0438295815,0.1065959819999999
565,1778426795960,0.6667810428571429,0.1071752392857142,-1.053563257142857,-0.0120209544285714,-0.0825540757142857,-0.0130463325714285
566,1778426795970,0.6503428,0.112140685,-1.0734773,-0.0566577499999999,-0.1105666099999999,-0.06429356
567,1778426795980,0.6128929014285714,0.1069574614285714,-1.0763782,-0.24698591,-0.2032435914285714,-0.1230675328571428
568,1778426795990,0.61369437,0.10476221,-1.0587814,-0.366061,-0.25793785,-0.12965615
569,1778426796000,0.6760151,0.121196095,-1.0337798,-0.4558073033333333,-0.2685261816666667,-0.10494156
570,1778426796010,0.7290263,0.13187761,-1.0241451,-0.5456044866666666,-0.2542726633333333,-0.0965676166666666
571,1778426796020,0.74282789,0.1319385883333333,-1.013494033333333,-0.61811925,-0.1965968016666666,-0.1158862283333333
572,1778426796030,0.6594896899999999,0.144093775,-1.0064002,-0.8037968333333333,-0.0050905433333333,-0.1905390466666666
573,1778426796040,0.5911828583333333,0.1314507608333333,-1.0154251,-0.9866491833333332,0.1371901516666666,-0.2462550416666666
574,1778426796050,0.49484594,0.10933565,-0.936944925,-1.2513066000000002,0.2989676266666667,-0.1988366366666666
575,1778426796060,0.4734117533333333,0.1111548591666666,-0.84744783,-1.4741706,0.4387539599999999,-0.09560041
576,1778426796070,0.51990837,0.12665373,-0.76339823,-1.4581354,0.47571132,0.006872234
577,1778426796080,0.6110925500000001,0.17137179,-0.6885971033333332,-1.2302826233333333,0.4416555766666666,0.0414879313333333
578,1778426796090,0.65668464,0.19373082,-0.65119654,-0.95478237,0.40515637,0.06918049
579,1778426796100,0.6786879733333334,0.230552065,-0.6791757916666666,-0.5367978533333333,0.35122206,0.083077675
580,1778426796110,0.6778095885714286,0.2267031328571428,-0.7548524128571429,-0.3001966342857143,0.3873321971428571,0.0901462571428571
581,1778426796120,0.6765029,0.22019579,-0.78260666,-0.24358252,0.41050145,0.09315695
582,1778426796130,0.6816425685714286,0.2194291871428571,-0.7884606542857143,-0.2064288171428571,0.5148939414285715,0.11741703
583,1778426796140,0.7022767433333333,0.2177566033333333,-0.8029127133333334,-0.1610648033333333,0.6218608200000001,0.14177164
584,1778426796150,0.7484582866666667,0.2232853933333333,-0.8100676400000001,-0.0770708256666666,0.6169739,0.1238020233333333
585,1778426796160,0.8138279650000001,0.23376365,-0.8434029000000001,0.0956767715,0.51709744,0.02237294
586,1778426796170,0.8114599583333333,0.2329912499999999,-0.8725813916666666,0.1525636,0.46792278,-0.03680463
587,1778426796180,0.7515333857142857,0.2218160685714285,-0.9593068642857142,0.2415972042857142,0.2616903042857142,-0.1983348514285714
588,1778426796190,0.7269529666666666,0.2176956133333333,-0.9908505,0.233426875,0.198047605,-0.2255365383333333
589,1778426796200,0.72272508,0.2183663966666666,-1.0155674,0.1184060499999999,0.2453132966666666,-0.2104939866666666
590,1778426796210,0.7356352628571428,0.2163802342857142,-1.0331265142857142,-0.0938987157142857,0.4268420814285714,-0.1906117742857142
591,1778426796220,0.7668130166666667,0.1909664283333333,-1.0124371266666667,-0.23854288,0.61315596,-0.1849394599999999
592,1778426796230,0.7630018199999999,0.181656945,-0.952281145,-0.3104722649999999,0.74548465,-0.181579695
593,1778426796240,0.7564465400000001,0.18494982,-0.91743153,-0.4070907866666666,0.9807441266666668,-0.1646790866666666
594,1778426796250,0.75565382,0.1933039671428571,-0.8795809457142857,-0.45646906,1.1866057,-0.1375974
595,1778426796260,0.789558265,0.20327405,-0.84511027,-0.200974665,1.05557515,-0.16607899
596,1778426796270,0.76867288,0.231019575,-0.8655688,0.00206167,0.78717623,-0.240604555
597,1778426796280,0.74510443,0.25684425,-0.8857833999999999,0.15790866,0.56413406,-0.30115658
598,1778426796290,0.6975102049999999,0.2685522666666666,-0.9062215666666668,0.2604831266666667,0.31189761,-0.3156646216666667
599,1778426796300,0.6772084857142857,0.2777165571428571,-0.8890588142857142,0.2211986685714285,0.23201972,-0.1936879085714285
600,1778426796310,0.6889426333333333,0.2884314666666667,-0.8473664666666667,0.11407909,0.3515529533333333,-0.0645480936666666
601,1778426796320,0.7315060999999999,0.32331156,-0.76583735,0.07315111,0.42760566,-0.0280998009999999
602,1778426796330,0.7612639,0.34623972,-0.7108951,-0.0673478983333333,0.8667923266666667,0.0817286748333333
603,1778426796340,0.8826531400000001,0.4184187366666667,-0.6786981666666666,-0.0526871246666666,1.1445069333333333,0.0537561413333333
604,1778426796350,0.9370233,0.4548436357142857,-0.6874617457142858,0.1652608691428571,0.8885689714285715,-0.1989020894285714
605,1778426796360,0.92663942,0.4438368749999999,-0.72546918,0.5039129133333333,0.4313217533333333,-0.5621487433333333
606,1778426796370,0.8658431857142856,0.4006156971428571,-0.7594084428571428,0.5871942,0.31597003,-0.6441574
607,1778426796380,0.7704108,0.33532444,-0.8024858,0.7905614499999999,0.0606792779166666,-0.7320965666666667
608,1778426796390,0.7308963,0.29178533,-0.81388897,0.9051496,-0.04153884,-0.6236934
609,1778426796400,0.7378682533333333,0.27723163,-0.8067747466666667,0.90402968,-0.0115555366666666,-0.5634722766666667
610,1778426796410,0.76316445,0.2456749,-0.7804114333333333,0.8978701166666666,0.1001819016666666,-0.4008039683333333
611,1778426796420,0.8199259,0.23342825,-0.7197371,0.8782715,0.41905355,-0.15561792
612,1778426796430,0.9524641433333332,0.2530432166666667,-0.69727645,1.0071894833333337,0.5749260166666667,-0.0942514165
613,1778426796440,1.0498784,0.2695889,-0.6910769,1.1215485,0.6215554,-0.089186326
614,1778426796450,1.0544779,0.2704948785714285,-0.7632849571428572,1.1215485,0.6215554,-0.089186326
615,1778426796460,1.0363321857142858,0.2671323142857142,-0.8640922457142857,1.256637042857143,0.2208059714285714,-0.3772311005714286
616,1778426796470,0.9676260999999998,0.2396481285714285,-0.9264826542857144,1.3910274714285715,-0.4159337999999999,-0.8266097571428571
617,1778426796480,0.9087725,0.2086707,-0.96920294,1.2767084,-0.6719517999999999,-0.98990715
618,1778426796490,0.8410449933333334,0.1687090266666666,-0.9676174133333332,1.0261518266666665,-0.6934338933333333,-1.0256427833333337
619,1778426796500,0.7418289828571429,0.0954498185714285,-0.8864715842857143,0.5726643557142858,-0.4901539228571429,-0.9742428128571428
620,1778426796510,0.7007203142857142,0.069472696,-0.8231752028571427,0.2582432857142857,-0.2415753905714286,-0.8881326314285714
621,1778426796520,0.6828040333333334,0.052188006,-0.6977033433333334,0.0042251499999999,0.1584431793333333,-0.7040985316666667
622,1778426796530,0.6827837,0.04994194,-0.6812593000000001,-0.0209221359999999,0.20525073,-0.68019843
623,1778426796540,0.70647415,0.0548507614999999,-0.6610447,0.0017562369999999,0.2059379449999999,-0.6673702650000001
624,1778426796550,0.6609183285714286,0.0746472121428571,-0.6539405785714286,0.2580905657142857,-0.0668024757142857,-0.8532042142857144
625,1778426796560,0.5949650142857142,0.0721122207142857,-0.6786894428571427,0.3629412142857143,-0.2244929714285714,-0.9551751
626,1778426796570,0.524024485,0.0610706355,-0.702906885,0.4412992333333334,-0.4361068666666667,-1.0236574166666668
627,1778426796580,0.4443726185714285,0.0425721691428571,-0.7292846985714286,0.4220206185714286,-0.4094324271428571,-0.9972593428571428
628,1778426796590,0.42087823,0.032562874,-0.74028707,0.38973203,-0.34773505,-0.9610438
629,1778426796600,0.3487224542857143,0.0120128958571428,-0.7666475242857143,0.1932297721428571,-0.0419969819999999,-0.8108799571428571
630,1778426796610,0.286114275,0.0317294933333333,-0.7676261333333333,0.022143865,0.114689946,-0.6750061
631,1778426796620,0.2458331614285714,0.06245138,-0.7160434971428572,-0.2476840442857142,0.1571232671428571,-0.3482804657142857
632,1778426796630,0.2362739566666666,0.0679307913333333,-0.6603637066666667,-0.3231477233333333,0.1348485033333333,-0.1883501233333333
633,1778426796640,0.23678212,0.0766159677142857,-0.6211511928571429,-0.3138974671428571,0.0833176555714285,-0.0397062374285714
634,1778426796650,0.2230618,0.16202165,-0.576314095,-0.170660475,-0.12736540025,0.09476047
635,1778426796660,0.2136797114285714,0.1975115242857143,-0.5642315314285714,-0.0761618085714285,-0.2975786371428571,0.1196859522857143
636,1778426796670,0.2133661,0.20629252,-0.5603376,0.05879578,-0.56199604,0.14966199
637,1778426796680,0.21644992,0.2217115342857143,-0.5725682571428571,0.23457226,-0.80680025,0.22006421
638,1778426796690,0.2091933928571428,0.2276613642857143,-0.5966637285714286,0.1850049071428571,-0.6411030642857144,0.2806271328571428
639,1778426796700,0.2049204916666666,0.237503695,-0.6139179333333333,0.039095377,-0.32200234,0.340251935
640,1778426796710,0.2155613716666666,0.2762051316666666,-0.6179730833333333,-0.0419969859999999,-0.18051068,0.34055737
641,1778426796720,0.23254407,0.298381225,-0.6232375583333333,-0.166282606,0.0117591573333333,0.2858340233333333
642,1778426796730,0.2449968742857143,0.3760498,-0.6460481428571428,-0.2578287642857143,0.0805469485714285,0.0154461614285714
643,1778426796740,0.22289919,0.3990883233333333,-0.6729051,-0.2143118933333333,-0.0366519133333333,-0.2196569649999999
644,1778426796750,0.1652332166666666,0.3863030366666667,-0.7146351666666667,-0.2011528383333333,-0.0762563433333333,-0.304109085
645,1778426796760,0.13397123,0.38008317,-0.7383357,-0.21736622,-0.12527828,-0.3995567633333333
646,1778426796770,0.1063375041666666,0.350498105,-0.7523609633333334,-0.25564711,-0.161115705,-0.421038865
647,1778426796780,0.0892735027142857,0.33245842,-0.7672050571428571,-0.3011129314285714,-0.12140947,-0.3901465542857142
648,1778426796790,0.094670158,0.33209254,-0.7836127749999999,-0.31688634,-0.09666943,-0.3733914
649,1778426796800,0.1050467766666666,0.329206205,-0.7973228999999998,-0.3177771833333333,-0.0656425658333333,-0.3718642333333333
650,1778426796810,0.13634941,0.33215353,-0.8111449,-0.3222314,0.089491755,-0.3642284
651,1778426796820,0.1367414302857142,0.34793842,-0.86644426,-0.2567161242857143,0.15679602,-0.4835434642857142
652,1778426796830,0.0966316593333333,0.36750111,-0.9281841933333332,-0.19359337,0.1453350266666666,-0.5975280233333332
653,1778426796840,0.07402871,0.3803880499999999,-0.9510311,-0.1821905499999999,0.13057245,-0.61743206
654,1778426796850,0.0492914941666666,0.37622114,-0.9752398,-0.1768963866666666,0.13220142,-0.6259841733333333
655,1778426796860,-0.0001829375,0.3678873200000001,-1.0236572,-0.16630806,0.13545936,-0.6430884
656,1778426796870,-0.01015303125,0.39237045,-1.02292555,-0.2683225666666666,0.49770246,-0.6356052666666666
657,1778426796880,-0.0166066596666666,0.3953686,-1.0179049333333332,-0.29733866,0.6928739,-0.6533204
658,1778426796890,-0.0419739936666666,0.3917098466666666,-1.0237182666666669,-0.3011565666666667,0.8933904066666667,-0.6685920333333334
659,1778426796900,-0.0622800566666666,0.3922383266666667,-1.0321943666666666,-0.25434901,1.13766015,-0.6608035
660,1778426796910,-0.08573671,0.38923004,-1.0478051,-0.21273382,1.184315,-0.6450737
661,1778426796920,-0.1228933466666666,0.4064464966666667,-1.0951045666666666,-0.0732020186666666,1.0919216333333333,-0.5576690666666667
662,1778426796930,-0.15673678,0.4358079716666667,-1.14844095,0.185244875,0.824973525,-0.38996109
663,1778426796940,-0.173577205,0.4413977149999999,-1.1938806,0.36277759,0.68210739,-0.233732305
664,1778426796950,-0.139642298,0.4453105466666667,-1.2206402666666667,0.55924712,0.673631635,0.03023783
665,1778426796960,-0.028619556,0.4587970733333333,-1.2533556,0.6753115,0.68569624,0.20311269
666,1778426796970,0.1118967719999999,0.413804605,-1.3234918,0.7404704666666667,0.6429102266666668,0.027972535
667,1778426796980,0.1258000224,0.385656628,-1.347664,0.6812064,0.7921089699999999,-0.284235606
668,1778426796990,0.0463354548571428,0.3319880142857143,-1.3370989714285717,0.5404194114285714,1.0701486357142858,-0.5384340785714286
669,1778426797000,0.0032115693333333,0.3005256666666667,-1.3181054,0.2861903533333333,1.454342866666667,-0.7375943266666667
670,1778426797010,-0.059027832,0.2543441,-1.2833066,0.2501493,1.5028812,-0.75502944
671,1778426797020,-0.1002904053333333,0.234983225,-1.2164836,0.22362757,1.5217162333333334,-0.7355326600000001
672,1778426797030,-0.1277005366666666,0.224047625,-1.1559618333333337,0.20158553,1.4714216999999998,-0.57650405
673,1778426797040,-0.1282391842857143,0.22009124,-1.0955605,0.4567526714285715,1.07425015,-0.2240784728571428
674,1778426797050,-0.12189735,0.21531744,-1.0835389,0.5981389,0.8772024566666667,0.0094175033333333
675,1778426797060,-0.0983695583333333,0.2109980816666666,-1.1038144,0.6392705,0.8214609999999999,0.08781188
676,1778426797070,-0.036963539,0.2039346599999999,-1.1392432833333332,0.6593272333333333,0.698804355,0.3472768916666666
677,1778426797080,-0.015793605,0.20190202,-1.1482377,0.6600399,0.659429,0.4353942
678,1778426797090,0.0406121251666666,0.2054591466666666,-1.1523741666666667,0.63713247,0.6056729,0.54443365
679,1778426797100,0.134977388,0.1971456449999999,-1.1603116,0.59551725,0.459523375,0.62796947
680,1778426797110,0.1654161533333333,0.1895029216666666,-1.1613584166666666,0.5839872,0.4196644,0.63056564
681,1778426797120,0.2064043166666666,0.1733637716666666,-1.1634621666666665,0.5481751883333333,0.40647992,0.6008368616666667
682,1778426797130,0.2273913,0.16177773,-1.170678,0.48701233,0.42424592,0.55481833
683,1778426797140,0.2196817928571428,0.1555926942857143,-1.173422142857143,0.4742277928571429,0.43334345,0.5513058628571429
684,1778426797150,0.1965968333333333,0.1651925666666666,-1.1643769,0.194789655,0.56627207,0.536186985
685,1778426797160,0.19150508,0.17635176,-1.1266816,0.069485925,0.5196936,0.5620724
686,1778426797170,0.1905599,0.17933974,-1.0996373,-0.00870483,0.46578476,0.5830709
687,1778426797180,0.188169524,0.173924788,-1.07344074,-0.05928447,0.3403130319999999,0.61764586
688,1778426797190,0.18267327,0.1636274366666666,-1.0508134,-0.0829504083333333,0.2540690383333333,0.65337129
689,1778426797200,0.174766305,0.1340322108333333,-1.0000379933333334,-0.13805555,-0.02031127,0.78877974
690,1778426797210,0.17616882,0.1121813466666666,-0.9633488833333334,-0.1386664,-0.1768454899999999,0.8759807299999999
691,1778426797220,0.1789564342857142,0.08206925,-0.9206895885714286,-0.1369210714285714,-0.3750494542857143,1.0747301371428573
692,1778426797230,0.182541135,0.0664571283333333,-0.9002049166666667,-0.13622294,-0.45433104,1.1542299
693,1778426797240,0.1815349766666666,0.0431732523333333,-0.8603550666666667,-0.16045394,-0.4455243866666666,1.4207707333333337
694,1778426797250,0.188761015,0.044606261,-0.8309935999999999,-0.17806722,-0.44104472,1.5674802
695,1778426797260,0.19342592,0.047990605,-0.822487,-0.1778054314285714,-0.4702353542857143,1.6629060857142857
696,1778426797270,0.2680644266666667,0.0531839988333333,-0.7851677599999999,-0.0545197216999999,-0.848797265,1.90231075
697,1778426797280,0.2909926,0.055308107,-0.77614284,-0.0021380284,-0.96577793,1.9295706
698,1778426797290,0.3241246,0.054332439,-0.7829725466666666,0.16508633,-1.2780828,1.9303342
699,1778426797300,0.375794275,0.0558569163333333,-0.8188892983333332,0.3630321366666666,-1.5955036333333332,1.8621209666666667
700,1778426797310,0.4024363757142857,0.0301149961428571,-0.8623674357142858,0.4367904742857143,-1.716182257142857,1.8095791714285712
701,1778426797320,0.3979093933333333,-0.038030672,-0.8917999666666666,0.38201985,-1.6091718000000002,1.76921845
702,1778426797330,0.3872351285714285,-0.0479122005714285,-0.8906355342857143,0.2779654985714285,-1.4413365428571427,1.7849482714285716
703,1778426797340,0.37270468,-0.042319544,-0.86852634,0.04444045,-1.1398746,1.8335121
704,1778426797350,0.3954905533333333,-0.0180803241666666,-0.8246416366666667,-0.068366,-1.052979,1.8329012333333337
705,1778426797360,0.451825125,0.0191779475,-0.7528792916666666,-0.2939789,-0.8791878,1.8316795
706,1778426797370,0.6030316714285714,0.0659794614285714,-0.6730183642857143,-0.2989312814285714,-0.9483682842857144,1.4875004714285711
707,1778426797380,0.6649429542857143,0.0923050428571428,-0.6784280999999999,-0.2533345542857143,-0.990517997142857,1.2731522371428572
708,1778426797390,0.75287929,0.12869653,-0.7208652350000001,-0.1881465,-1.02717,0.88346386
709,1778426797400,0.7924155914285713,0.1216534314285714,-0.7704543542857143,-0.4388194285714286,-0.7174830714285714,0.1736602599999999
710,1778426797410,0.8017744499999999,0.09387743,-0.8067340666666668,-0.6400340666666667,-0.4794274043333333,-0.15597426
711,1778426797420,0.7698823266666667,0.067605575,-0.8603754,-1.4540882999999998,0.412792187,-0.4452444
712,1778426797430,0.7087172914285714,0.0846042457142857,-0.8562084857142856,-2.1031654142857144,1.063058242857143,-0.5318672799999999
713,1778426797440,0.6693769985714286,0.1137522871428571,-0.8074251314285714,-2.723979071428572,1.6394968714285714,-0.5695227571428572
714,1778426797450,0.661684915,0.163058295,-0.732664705,-3.2096895333333335,1.9959003666666668,-0.5874487333333334
715,1778426797460,0.6652827,0.17842504,-0.70668757,-3.3420436,2.0195205,-0.6078108999999999
716,1778426797470,0.6537373333333334,0.1904582666666666,-0.5671062666666666,-3.292919966666666,1.2733486466666666,-0.7486663
717,1778426797480,0.6557699428571429,0.1912568028571428,-0.5352925614285714,-3.075662857142857,0.7594363881428572,-0.7816021142857144
718,1778426797490,0.6867473666666667,0.1667373666666666,-0.4524247766666667,-2.4821490666666666,-0.2416990076666666,-0.6887505599999999
719,1778426797500,0.69473565,0.1565945,-0.4367328,-2.3793201,-0.38163805,-0.65011334
720,1778426797510,0.7484075083333334,0.1532203166666666,-0.3622975533333333,-1.8247563333333336,-0.547589775,-0.0820850233333333
721,1778426797520,0.8586824714285715,0.2746066057142857,-0.3339567571428571,-1.3210833714285717,-0.4699517142857142,0.50387655
722,1778426797530,0.89579265,0.3170045485714285,-0.34534244,-1.0479393,-0.3921755,0.7304421
723,1778426797540,0.9829435916666666,0.3747779533333333,-0.40862139,-0.61626125,-0.4812090833333333,0.7744752833333334
724,1778426797550,1.0690258,0.40831652,-0.49948034,-0.3378085,-0.6407976,0.6281222
725,1778426797560,1.079758,0.41142645,-0.61460906,-0.13713925,-0.8680395,0.36468655
726,1778426797570,1.0108691071428573,0.4100936357142857,-0.7812912371428571,-0.0468184578571428,-1.2605422714285714,0.0226456441428571
727,1778426797580,0.98078895,0.3996575,-0.8365732,-0.043982297,-1.4437801,-0.11407909
728,1778426797590,0.8547450428571428,0.2921686185714285,-0.8931792728571428,-0.2370157099999999,-1.5086844,-0.06856962
729,1778426797600,0.8505375000000001,0.27233297,-0.8877957,-0.383750635,-1.4400894,0.0495309883333333
730,1778426797610,0.8533076271428571,0.2558685842857143,-0.8372788285714285,-0.49648073,-1.3035865,0.16447547
731,1778426797620,0.8631601,0.26403978,-0.8067544,-0.5681301216666667,-1.0522408333333333,0.267686245
732,1778426797630,0.8674286428571428,0.2723068185714286,-0.8008307042857143,-0.5627595999999999,-1.0007717857142857,0.2708532899999999
733,1778426797640,0.8831612999999999,0.30928633,-0.7802894,-0.4445572,-0.9935723,0.16600263
734,1778426797650,0.91837677,0.319896715,-0.7805943000000001,-0.3446807249999999,-1.1211668,0.0788779745
735,1778426797660,0.96011702,0.3352460485714285,-0.7810037328571429,-0.2241657307142857,-1.2668254571428572,-0.0214675502857142
736,1778426797670,0.97273962,0.3598990666666666,-0.8804579166666667,0.1162171133333333,-1.3648766,-0.2961678266666667
737,1778426797680,0.92254508,0.3337825542857143,-0.9804579642857142,-0.0255036285714285,-0.9895580571428572,-0.3327470342857143
738,1778426797690,0.8470616300000001,0.30721304,-1.1119552,-0.13775012,-0.7643451,-0.3349068799999999
739,1778426797700,0.7182126,0.28977302,-1.229462,-0.5740387742857143,-0.3696825514285714,-0.3284927942857143
740,1778426797710,0.6514201333333333,0.3025379866666666,-1.2328768,-0.97346465,-0.1602503166666666,-0.3088941933333333
741,1778426797720,0.58967874,0.330029415,-1.1256652833333334,-1.588300533333333,-0.079921536,-0.22729278
742,1778426797730,0.59741294,0.33825144,-1.0045708,-1.8953621,-0.09590584,-0.1757764799999999
743,1778426797740,0.6125967266666666,0.3308932866666667,-0.9266191,-1.8937585833333337,-0.0932587583333333,-0.1780163183333333
744,1778426797750,0.6429643,0.31617698,-0.7707156999999999,-1.885741,-0.08002335,-0.18921551
745,1778426797760,0.572289465,0.31474398,-0.7456227750000001,-1.8030706,-0.0121664019999999,-0.1845831166666666
746,1778426797770,0.5601023471428571,0.3147744828571429,-0.7251294071428571,-1.6970709428571429,0.0753327732857142,-0.1908081228571428
747,1778426797780,0.4426376299999999,0.29183612,-0.7043906833333334,-1.60273225,0.1674534341666666,-0.1023199256666666
748,1778426797790,0.3832453628571429,0.27670604,-0.6264389642857143,-1.4917984142857144,0.2893537857142857,0.1524326942857143
749,1778426797800,0.39697438,0.283919,-0.57936305,-1.4265231,0.3184135,0.26893342
750,1778426797810,0.46725288,0.3186263166666666,-0.51213355,-1.1525245666666668,0.2674826166666667,0.4157956166666667
751,1778426797820,0.5955312742857143,0.3713979842857143,-0.4576573571428571,-0.7994262514285715,0.149182022,0.4949317514285714
752,1778426797830,0.6595913533333334,0.40069411,-0.5058628666666667,-0.0904589733333333,-0.1926261753333333,0.4225151333333333
753,1778426797840,0.6718685,0.40752378,-0.5333848,0.28160888,-0.3910301249999999,0.370947925
754,1778426797850,0.63147995,0.3927160033333334,-0.6393157666666667,0.422566045,-0.446695225,0.37530033
755,1778426797860,0.6057671000000001,0.3811198,-0.6932112,0.41890085,-0.4202753,0.39599338
756,1778426797870,0.5895466,0.3724607499999999,-0.69607717,0.2707660233333333,-0.16534086,0.4820744866666667
757,1778426797880,0.6111535733333334,0.3700927283333333,-0.6897150116666667,0.1009454799999999,0.12889257,0.57787853
758,1778426797890,0.67430764,0.36630186,-0.6676609000000001,-0.19486602,0.6435465,0.70249504
759,1778426797900,0.7007827666666667,0.3669319766666666,-0.6537474950000001,-0.2359467066666666,0.7572692499999999,0.6958518699999999
760,1778426797910,0.810108245,0.3749609,-0.59643725,-0.182343275,0.9846893166666666,0.5510004766666666
761,1778426797920,0.82937765,0.37453404,-0.5866806,-0.15439619,0.97035944,0.5314528
762,1778426797930,0.82937765,0.37453404,-0.5866806,-0.1178715393333333,0.94602664,0.5146030949999999
763,1778426797940,0.849124745,0.3758857433333333,-0.6311547066666666,0.3106249713333333,0.6233879733333333,0.3379102833333333
764,1778426797950,0.8418173757142856,0.3867647271428571,-0.6772956085714286,0.7019932514285714,0.3581197628571429,0.2079996128571428
765,1778426797960,0.8335939285714286,0.3959290271428571,-0.7038041142857143,0.9734137914285714,0.3400555928571429,0.1327977385714285
766,1778426797970,0.8349877,0.39673045,-0.7224812000000002,1.0662653,0.4002694499999999,0.1094975899999999
767,1778426797980,0.8396569914285715,0.3922005814285714,-0.7344330857142857,1.1050988428571429,0.5186027928571428,0.1091485271428571
768,1778426797990,0.8431589599999999,0.38880318,-0.743397,1.134224,0.6073528,0.10888673
769,1778426798000,0.9269444,0.386364,-0.7954732,1.2239339142857144,0.99601575,0.0891426914285714
770,1778426798010,1.0840877,0.3635273,-0.935969225,1.2774719,1.0361801,0.02321288
771,1778426798020,1.1162847,0.36800927,-0.97767895,1.3057245,0.8335256000000001,-0.14737125
772,1778426798030,1.1011966857142856,0.3641240271428571,-1.0209394,1.2848677857142856,0.6121087999999999,-0.4100214914285714
773,1778426798040,1.0512809,0.35349622,-1.0278649,1.241889,0.5163339,-0.56688297
774,1778426798050,1.0512809,0.3534962199999999,-1.0278649,1.241889,0.5163339,-0.56688297
775,1778426798060,0.9703005333333332,0.31768112,-0.9681052666666666,1.0675888,0.7074329,-0.5518149566666667
776,1778426798070,0.92981035,0.29977357,-0.93822545,0.9804387,0.8029824,-0.54428095
777,1778426798080,0.94157934,0.2626373,-0.8847467999999999,0.89827734,1.0679451,-0.4082107
778,1778426798090,0.9924620657142856,0.2548232471428571,-0.8601809142857143,0.930936822857143,1.0507318285714289,-0.3568325714285714
779,1778426798100,1.0603057,0.24440451,-0.8274263999999999,0.9744828,1.0277808,-0.2883284
780,1778426798110,1.1226062,0.2953221099999999,-0.8729573999999999,1.137507466666667,0.4330780166666666,-0.48736865
781,1778426798120,1.1033745285714287,0.3101400499999999,-0.9017686,1.1794062857142855,0.1613338799999999,-0.6084217742857143
782,1778426798130,1.0241451,0.3217261,-0.9510311,1.202641,-0.22067507,-0.81153446
783,1778426798140,0.91291912,0.290901125,-0.9543341416666666,1.0296388333333333,-0.35117115,-0.8542950483333334
784,1778426798150,0.8292905714285714,0.2745456414285714,-0.9288608214285714,0.8290968714285715,-0.3766856971428571,-0.8203701814285714
785,1778426798160,0.7906559,0.27641857,-0.8620015,0.5468771,-0.25992316,-0.66446865
786,1778426798170,0.7912504499999999,0.2743757699999999,-0.842472925,0.512630475,-0.2252565584999999,-0.6296875200000001
787,1778426798180,0.8664834999999999,0.256386915,-0.70180925,0.36013052,0.0564795813333333,-0.4134030633333334
788,1778426798190,0.9579217666666668,0.2555840199999999,-0.6084298333333333,0.3559817133333333,0.29102639,-0.2943352366666666
789,1778426798200,0.9909376371428572,0.2857832314285714,-0.6015072428571429,0.5542075000000001,0.20845777,-0.4576253385714285
790,1778426798210,0.9795287,0.2907080216666666,-0.6200056933333333,0.6813692800000001,0.066686122,-0.5965608133333333
791,1778426798220,0.8860795285714286,0.2779343328571428,-0.6823133342857143,0.7855945000000001,-0.1620538185714286,-0.7348490571428571
792,1778426798230,0.772606042857143,0.2683606114285714,-0.7372207285714286,0.7779805142857142,-0.4030619642857142,-0.7955647428571428
793,1778426798240,0.7057729,0.2681864,-0.7595565,0.73929965,-0.4340197399999999,-0.7812967
794,1778426798250,0.7057729,0.2681864,-0.7595564999999999,0.7392996500000001,-0.43401974,-0.7812966999999998
795,1778426798260,0.5849731433333334,0.2719874233333333,-0.69252008,0.4238895766666666,-0.32615113,-0.50640731
796,1778426798270,0.5573292333333333,0.2543034566666666,-0.5450724666666668,0.2337577666666666,-0.3757839433333332,-0.1989893533333333
797,1778426798280,0.5863908999999999,0.23545581,-0.49998345,0.2921844799999999,-0.4655938625,-0.156686935
798,1778426798290,0.6221095,0.19635291,-0.4561241999999999,0.42287147,-0.61162883,-0.14248432
799,1778426798300,0.6310124314285714,0.1409141485714285,-0.4419421742857143,0.7584764714285714,-0.7556621128571429,-0.1461058771428571
800,1778426798310,0.62076795,0.122202255,-0.44283074,0.8712466,-0.7461718999999999,-0.14721853
801,1778426798320,0.5290204000000001,0.1239009614285714,-0.5610954499999999,0.9581857714285714,-0.4542655771428571,-0.1453859242857142
802,1778426798330,0.4951406566666667,0.13263986,-0.5960815166666666,0.9270134666666666,-0.3282382566666667,-0.131616005
803,1778426798340,0.4229166685714286,0.1591991828571428,-0.6535659999999999,0.7923140571428571,-0.1775872485714285,-0.0523816929142857
804,1778426798350,0.3969743866666667,0.1846449133333333,-0.68851578,0.583834485,-0.1085812949999999,0.0655153024
805,1778426798360,0.4039056833333332,0.1808235566666667,-0.6920525666666667,0.45662177,-0.04841107,0.13454308
806,1778426798370,0.42106113,0.17513217,-0.69266236,0.2518292,0.1255328,0.17440203
807,1778426798380,0.42106113,0.17513217,-0.69266236,0.2518292,0.1255328,0.17440203
808,1778426798390,0.35221568,0.24470939,-0.64887935,-0.056352317,0.5015204,0.15882497
809,1778426798400,0.3265347328571428,0.2829520457142856,-0.6318225914285714,-0.1092794305714285,0.5377795857142857,0.1362229514285714
810,1778426798410,0.292175588,0.321433378,-0.61846292,-0.139246742,0.462669348,0.0555581944
811,1778426798420,0.2675330357142857,0.3224142871428571,-0.6232419228571429,-0.14850571,0.4469788314285714,0.0334885057142857
812,1778426798430,0.2440386285714285,0.3247314971428571,-0.6325368857142857,-0.17654006,0.45570546,0.00992656
813,1778426798440,0.2531855,0.3204455,-0.6329028,-0.20479257,0.5131268,-0.013439035
814,1778426798450,0.2471137157142857,0.3391312857142857,-0.6363524428571428,-0.2094176957142857,0.5894413571428572,-0.0452912935714285
815,1778426798460,0.24275807,0.36959475,-0.64162277,-0.19685133,0.6747007000000002,-0.093462385
816,1778426798470,0.24172144,0.3849615,-0.64467174,-0.117438845,0.6794348999999998,-0.16814066
817,1778426798480,0.2606946371428572,0.3461351871428571,-0.6895872685714286,-0.0580540148571428,0.7114180514285715,-0.2246675142857142
818,1778426798490,0.2697718,0.32453114,-0.7139441,-0.02367103,0.8006915999999998,-0.2602286
819,1778426798500,0.25562468,0.3409345299999999,-0.77211822,-0.0874300865,1.0793989,-0.259770455
820,1778426798510,0.24568506,0.34562993,-0.79901004,-0.13240504,1.1914927,-0.25885415
821,1778426798520,0.24568506,0.34562993,-0.79901004,-0.13240504,1.1914927,-0.25885415
822,1778426798530,0.2057524142857143,0.3844475242857142,-0.8536822114285715,-0.2718132128571429,1.3372495142857144,-0.2840305328571428
823,1778426798540,0.17580293,0.41356072,-0.8946863400000001,-0.35827246,1.41904,-0.3022256
824,1778426798550,0.1455659771428571,0.49177957,-0.9728790771428572,-0.2939134428571429,0.753196842857143,-0.5658139285714285
825,1778426798560,0.1152680408571428,0.5088188942857143,-1.0078724,-0.2353576514285714,0.4479169314285714,-0.6421502857142857
826,1778426798570,0.0958243979999999,0.4867618571428571,-1.0829813428571429,-0.2014546342857142,0.1138609142857143,-0.6542367142857143
827,1778426798580,0.10403045,0.48576006,-1.0899417,-0.21181752,-0.279929,-0.6382015
828,1778426798590,0.0227249014166666,0.41131466,-1.1202787833333334,-0.35216382,-0.35323283,-0.515723
829,1778426798600,-0.0699953765714285,0.3873309614285714,-1.096161457142857,-0.5441500342857143,-0.3887284557142857,-0.3268565447142857
830,1778426798610,-0.110189356,0.38069293,-1.0409144,-0.79366665,-0.453720165,0.0429132835
831,1778426798620,-0.1120013042857143,0.37354095,-0.9397586928571428,-0.7920086171428571,-0.5134104171428572,0.2483603585714285
832,1778426798630,-0.0589363665,0.38511394,-0.845567625,-0.63438357,-0.608803565,0.47655125
833,1778426798640,-0.027684543,0.39093745,-0.8146207000000001,-0.5129741,-0.64721173,0.54260105
834,1778426798650,0.040246252,0.40825552,-0.8274264,-0.5129741,-0.6472117299999999,0.54260105
835,1778426798660,0.0689413074285714,0.4337448085714285,-0.9102360285714284,0.0590575742857142,-0.6729117042857143,0.4746641014285714
836,1778426798670,0.07814916,0.4703758557142857,-1.0602535285714283,0.34590244,-0.5548183571428572,0.3005893385714286
837,1778426798680,0.0731750025,0.476460725,-1.14497535,0.365068345,-0.3945425899999999,0.178372653
838,1778426798690,0.0679714483333333,0.46319776,-1.1808209,0.3258457066666667,-0.2051489186666666,0.0783943738333333
839,1778426798700,0.0601457866666666,0.4309194366666666,-1.1887279,0.24404066,0.1237002119999999,-0.03031418825
840,1778426798710,0.05335677,0.40465775,-1.1722635,0.21670444,0.26328292,-0.059406646
841,1778426798720,0.05335677,0.40465775,-1.1722635,0.21670444,0.26328292,-0.0594066459999999
842,1778426798730,0.05335677,0.40465775,-1.1722635,0.21670444,0.26328292,-0.059406646
843,1778426798740,0.0778856375,0.3765006199999999,-1.130187825,0.429629155,0.3668627525,-0.102052678
844,1778426798750,0.0493931285,0.3777659499999999,-1.2317792,0.8053239933333334,0.3572543533333333,-0.19863302
845,1778426798760,0.034026377,0.3764244,-1.2700741,0.8132652666666665,0.2346740633333333,-0.2299907633333333
846,1778426798770,0.0210987928333333,0.3573988966666666,-1.2932461333333334,0.660269,0.130267015,-0.22983805
847,1778426798780,0.0175416748333333,0.3467072166666667,-1.2873006666666666,0.4371249866666666,0.0364482953333333,-0.2068796966666667
848,1778426798790,0.019879209,0.336544,-1.2600125,0.3360776933333333,0.004988733,-0.1859066566666666
849,1778426798800,0.0192694168571428,0.3146786428571428,-1.212797285714286,0.25381452,-0.011301007,-0.15882497
850,1778426798810,0.02134271,0.29282197,-1.1040279,0.1572978,0.0059559359999999,-0.07941248
851,1778426798820,0.029087063,0.28751677,-1.0410973,0.1544470949999999,0.0159843066666666,-0.0653880324166666
852,1778426798830,0.042258564,0.29135844,-0.9971923,0.1946914814285714,0.1692751214285714,0.1065959814285714
853,1778426798840,0.0521720314285714,0.3213689414285715,-0.9905629785714286,0.23930646,0.2087632,0.1386664
854,1778426798850,0.060491335,0.35020337,-0.9967045,0.3362813266666666,0.213981,0.1549561416666666
855,1778426798860,0.071589544,0.38319308,-1.0271941,0.43279803,0.18921551,0.14966199
856,1778426798870,0.0751176232857142,0.3869825085714286,-1.0491466,0.4599160814285714,0.0938550806071428,0.1490947542857143
857,1778426798880,0.093341684,0.4022011785714285,-1.0914225714285717,0.4689045271428571,-0.0156643303214285,0.1522363457142857
858,1778426798890,0.10258729,0.404861025,-1.11206695,0.3600032566666666,-0.0737619776666666,0.1810706466666666
859,1778426798900,0.0747517471428571,0.3825658628571428,-1.1036793,0.2078469028571428,-0.0586866957142857,0.2413353957142857
860,1778426798910,0.0646988953333333,0.3737616333333333,-1.0779896666666666,0.13133603,-0.03970624,0.2764165
861,1778426798920,0.0596579533333333,0.3592892466666667,-0.99920464,-0.04665483,0.0079921538333333,0.4609996116666666
862,1778426798930,0.061101127,0.35800868,-0.97627646,-0.0971275699999999,0.019547688,0.5209153
863,1778426798940,0.0765593435,0.34648363,-0.92420023,-0.104992465,0.004352415,0.56375225
864,1778426798950,0.1197834133333333,0.31971378,-0.8589932,-0.0319177089999999,-0.1619556429999999,0.7819584216666667
865,1778426798960,0.1542250257142857,0.3068297571428571,-0.8576894571428572,0.1420261737142857,-0.4129012657142857,0.9116290857142856
866,1778426798970,0.16964404,0.30288354,-0.8616357,0.2171626,-0.52198434,0.93431836
867,1778426798980,0.18476688,0.28538251,-0.8775817250000001,0.30993775,-0.646906285,0.94867373
868,1778426798990,0.1976421914285714,0.2349701557142857,-0.9088684,0.4433354399999999,-0.8268061,0.99372506
869,1778426799000,0.201881695,0.2074003133333333,-0.9197792583333332,0.43249258,-0.8266534,1.0719157
870,1778426799010,0.20543882,0.20043853,-0.91444355,0.36392298,-0.7333437,1.1939361
871,1778426799020,0.20753244,0.19832458,-0.8968612333333333,0.1067486999999999,-0.5308419,1.3426818
872,1778426799030,0.24570032,0.1938222849999999,-0.82876788,0.0136108410425,-0.47618855125,1.37782565
873,1778426799040,0.29550505,0.19043794,-0.78260666,-0.048716504,-0.44150287,1.3865114
874,1778426799050,0.29550505,0.19043794,-0.78260666,-0.048716504,-0.44150287,1.3865114
875,1778426799060,0.3871828671428571,0.1945496828571428,-0.7535805685714285,0.060279308,-0.6562220014285715,1.1398090971428572
876,1778426799070,0.48539415,0.21586627,-0.7422384000000001,0.21426098,-0.9584476,0.82436264
877,1778426799080,0.5104827642857143,0.2184796385714285,-0.7756898571428571,0.3379612,-1.258077,0.5684101
878,1778426799090,0.50067962,0.18911672,-0.7963066333333333,0.3280855333333333,-1.298394066666667,0.4658865533333333
879,1778426799100,0.47893035,0.058021675,-0.769983935,0.0580576486666666,-1.0257191,0.3629557716666667
880,1778426799110,0.4971733083333333,0.0355915083333333,-0.6879263166666667,-0.5723298066666667,-0.125481906,0.4332052666666666
881,1778426799120,0.5292207800000001,0.0576166,-0.6212209142857142,-0.7767587828571428,0.232368779,0.4624904357142857
882,1778426799130,0.55051994,0.07439458,-0.57911915,-0.8594874,0.38774672,0.47250426
883,1778426799140,0.6003486428571428,0.0970788314285714,-0.5460858642857144,-0.8594874,0.38774672,0.47250426
884,1778426799150,0.77403905,0.1868096849999999,-0.54646485,-0.66785388,0.3137047566666667,0.0945313966666666
885,1778426799160,0.7989316214285714,0.1792439057142857,-0.6160899885714286,-0.59971696,0.25809056,-0.04550946
886,1778426799170,0.8171208499999999,0.16220458,-0.69424784,-0.44303003,-0.27748555,-0.5867361
887,1778426799180,0.7887655285714287,0.1178204585714285,-0.7493468828571428,-0.4901539085714285,-0.4238750285714285,-0.68229285
888,1778426799190,0.7358965857142856,0.0507520878571428,-0.7538767599999999,-0.7555530771428571,-0.3157300621428571,-0.5710935557142858
889,1778426799200,0.6817470666666666,-0.0226435976666666,-0.7106309133333334,-1.1299989333333331,-0.0193949733333333,-0.2970841366666666
890,1778426799210,0.7141531428571428,-0.0239212572857142,-0.6171004885714285,-1.2526664285714286,0.3156646214285714,0.1292852785714285
891,1778426799220,0.73662835,-0.013415418,-0.57680196,-1.1091277,0.4130976266666666,0.4982624266666667
892,1778426799230,0.8180355285714286,0.0433387619999999,-0.5162583457142856,-1.0256428,0.39171734,0.57894754
893,1778426799240,0.8706300499999999,0.0843748383333333,-0.49290477,-0.8752172233333333,0.2651918733333333,0.5800674666666666
894,1778426799250,0.9856846928571428,0.1977815814285714,-0.5507116057142857,-0.12308934,-0.36743546,0.5856671
895,1778426799260,0.99164325,0.20647547,-0.5721066,0.106214195,-0.6223953299999999,0.49701525
896,1778426799270,0.940491875,0.1819313383333333,-0.7989693833333332,0.9547315333333334,-1.7296139666666666,0.0287615693333333
897,1778426799280,0.9004794,0.1629973,-0.9088335,1.0308352,-1.870622,-0.029168816
898,1778426799290,0.8488097,0.1356176566666666,-0.9676784333333334,0.9154325433333332,-1.8267415666666664,0.052687126
899,1778426799300,0.749738845,0.0842325516666666,-1.08303075,0.6846272299999999,-1.7389807,0.21639901
900,1778426799310,0.7822756028571429,0.10615602,-1.0665692,0.2543817534285714,-1.27217055,0.4852015342857143
901,1778426799320,0.8699113714285714,0.1486846342857142,-1.0307657142857145,-0.0546506237142857,-0.9703594285714284,0.5445427057142858
902,1778426799330,0.9210903,0.17921777,-1.012864,-0.22495113,-0.8677341,0.4709771
903,1778426799340,0.8727338649999999,0.19046843,-0.984203755,-0.44539712,-0.92576629,0.1211040344
904,1778426799350,0.7991319771428571,0.1736338214285714,-0.97617194,-0.52735125,-0.9836893942857144,-0.0291033649714285
905,1778426799360,0.7245950933333333,0.15529361,-0.97054445,-0.6218099333333335,-0.9824749133333333,-0.0744237466666666
906,1778426799370,0.6604044,0.14000817,-0.96493435,-0.8313657857142858,-0.8676031828571429,-0.0542797392857142
907,1778426799380,0.6604044,0.14000817,-0.96493435,-0.8688031,-0.8350528,-0.044593163
908,1778426799390,0.5995994357142856,0.1187525771428571,-0.9362306,-0.8688031,-0.8350528,-0.044593163
909,1778426799400,0.5890790633333333,0.11655152,-0.910723895,-0.9303477666666669,-0.7230608366666668,0.0082975858333333
910,1778426799410,0.65808713,0.14805742,-0.84059787,-1.2380711,-0.16310102,0.27275133
911,1778426799420,0.6861724271428571,0.1692433171428571,-0.83348943,-1.2236721857142858,-0.0770562871428571,0.2374956785714286
912,1778426799430,0.7072363999999999,0.18513274,-0.8281581,-1.212873,-0.0125227375,0.21105394
913,1778426799440,0.717054,0.18842563,-0.8384025700000001,-1.1643091,-0.07803804,-0.017256944
914,1778426799450,0.7111898499999999,0.187521105,-0.831654205,-1.1355475416666667,-0.0956004133333333,-0.0335212316666666
915,1778426799460,0.6891866,0.18434003,-0.81059605,-0.99173975,-0.18341228,-0.11484267
916,1778426799470,0.6185726699999999,0.1853461749999999,-0.807272705,-0.8217664533333333,-0.1322523233333333,-0.1077668099999999
917,1778426799480,0.6209595857142858,0.2052820114285714,-0.8046462471428572,-0.77289724,-0.08399397,-0.09819659
918,1778426799490,0.6229632,0.22897679,-0.79785144,-0.7728972400000002,-0.08399397,-0.0981965899999999
919,1778426799500,0.6219700885714285,0.2336024942857142,-0.79641408,-0.7526732371428572,0.0114973585714285,-0.1158025999999999
920,1778426799510,0.6028095533333334,0.2350746916666667,-0.7995182116666667,-0.7148650466666666,0.1843031366666666,-0.1622101766666666
921,1778426799520,0.5838755,0.22257397,-0.7953512699999999,-0.6687447399999998,0.29917124,-0.2191478999999999
922,1778426799530,0.5792411000000001,0.219951865,-0.79218036,-0.63812512,0.30169107,-0.2173916649999999
923,1778426799540,0.5746067,0.21732976,-0.78900945,-0.6075055,0.3042109,-0.21563543
924,1778426799550,0.5656688771428572,0.2061444314285714,-0.7776150642857143,-0.3407319228571429,0.2108794171428571,-0.1870992928571428
925,1778426799560,0.5638743733333333,0.212817285,-0.7717015333333332,-0.1819869433333333,0.2035963033333333,-0.1590540366666666
926,1778426799570,0.542806075,0.22424073,-0.7959915333333334,0.0321467833333333,0.2108757766666666,-0.1030326026666666
927,1778426799580,0.52405495,0.2351661649999999,-0.805260385,0.06994407,0.20693061,-0.077579886
928,1778426799590,0.5133836,0.2374529,-0.8018760699999999,0.1067487,0.24877487,0.005497787
929,1778426799600,0.5133836,0.2374529,-0.80187607,0.1120428666666666,0.2762129,0.0326812913333333
930,1778426799610,0.5133836,0.2374529,-0.80187607,0.1226312,0.33108896,0.0870483
931,1778426799620,0.56509393,0.24178241,-0.7935829,0.1226311999999999,0.33108896,0.0870483
932,1778426799630,0.56509393,0.24178241,-0.7935829,0.1226312,0.33108896,0.0870483
933,1778426799640,0.5966637314285714,0.2447878057142857,-0.80048224,0.1226311999999999,0.33108896,0.0870483
934,1778426799650,0.6387568,0.248795,-0.80968136,0.1226312,0.33108896,0.0870483
935,1778426799660,0.6387568,0.248795,-0.80968136,0.1226311999999999,0.33108896,0.0870483
936,1778426799670,0.6387568,0.248795,-0.80968136,0.16539176,0.41813725,0.13209961
937,1778426799680,0.6387568,0.248795,-0.80968136,0.2019164183333333,0.461025075,0.1125010183333333
938,1778426799690,0.6387568,0.248795,-0.80968136,0.20922135,0.46960264,0.1085813
939,1778426799700,0.6875401,0.25166103,-0.8452932,0.20922135,0.46960264,0.1085813
940,1778426799710,0.6875401,0.25166103,-0.8452931999999999,0.2423826,0.4590215828571429,0.0824013571428571
941,1778426799720,0.6875401,0.25166103,-0.8452932,0.2556471,0.45478916,0.07192938
942,1778426799730,0.693784368,0.252075688,-0.8498788279999999,0.2556471,0.4547891599999999,0.07192938
943,1778426799740,0.7187614400000001,0.25373432,-0.86822134,0.2556471,0.45478916,0.07192938
944,1778426799750,0.7187614400000001,0.25373432,-0.86822134,0.2556471,0.45478916,0.07192938
945,1778426799760,0.73642509,0.257006865,-0.8909259666666666,0.2556471,0.45478916,0.07192938
946,1778426799770,0.7466899000000001,0.26849127,-0.9205415,0.2556471,0.45478916,0.07192938
947,1778426799780,0.7466899000000001,0.26849127,-0.9205415,0.2968805066666666,0.4184426866666667,0.045967608
948,1778426799790,0.7546171833333334,0.2838377116666666,-0.95194575,0.37934732,0.34574974,-0.0059559359999999
949,1778426799800,0.75620264,0.286907,-0.9582266,0.37934732,0.34574974,-0.005955936
950,1778426799810,0.75620264,0.286907,-0.9582266,0.37934732,0.34574974,-0.0059559359999999
951,1778426799820,0.75620264,0.286907,-0.9582266,0.37934732,0.34574974,-0.0059559359999999
952,1778426799830,0.75620264,0.286907,-0.9582266,0.3544545633333333,0.37313686,0.0094684116666666
953,1778426799840,0.75620264,0.286907,-0.9582266,0.30466905,0.4279111,0.040317107
954,1778426799850,0.7569648833333334,0.28997628,-0.96271875,0.3393610966666667,0.3958915833333333,0.0099774656666666
955,1778426799860,0.86527152625,0.3112300525,-0.926494635,0.1308015225,0.82023930375,-0.177933589875
956,1778426799870,0.9805246666666668,0.2530025549999999,-0.7127651566666667,0.9534333866666668,0.5070181633333334,-0.5495496466666666
957,1778426799880,0.83871624,0.2353795914285714,-0.7554534742857143,0.9772316857142858,0.22800546,-0.5681265142857143
958,1778426799890,0.7893753599999999,0.2063535,-0.75998336,0.9405798,0.13148874,-0.5154176
959,1778426799900,0.7861608428571428,0.1743394414285714,-0.7537721971428571,0.7358526285714285,0.1543525571428571,-0.3258966014285714
960,1778426799910,0.8356381333333333,0.1634648266666666,-0.7102040466666667,0.6126978333333333,0.1610648066666666,-0.2378811133333333
961,1778426799920,0.8624689666666666,0.1649893066666666,-0.6911785666666667,0.4964807333333333,0.17623463,-0.1628465
962,1778426799930,0.9077707285714284,0.1859254814285714,-0.6775308142857143,0.4021893142857143,0.1042397899999999,-0.2281363428571428
963,1778426799940,0.90401615,0.19455403,-0.680558,0.3782274066666666,0.0627664026666666,-0.2765692333333333
964,1778426799950,0.8451711999999999,0.2125327166666667,-0.6938412866666667,0.311312215,0.01878410625,-0.382172575
965,1778426799960,0.80616485,0.2186103083333333,-0.6988009166666668,0.25671613,-0.0096211275,-0.45356745
966,1778426799970,0.7223330742857144,0.2125385371428571,-0.7003108857142857,0.1720240242857142,0.0263762889285714,-0.4567526785714286
967,1778426799980,0.6829768333333334,0.2128071333333333,-0.6976727666666666,-0.0788779733333333,0.1220966916666666,-0.4571817416666666
968,1778426799990,0.6472125333333333,0.2177565966666666,-0.6517046999999999,-0.3480404733333333,0.1108974916666666,-0.3948225666666666
969,1778426800000,0.6344983833333333,0.2196367866666666,-0.6285529599999999,-0.3723987266666666,0.0676278699999999,-0.38021271
970,1778426800010,0.5903393,0.22873287,-0.57296026,-0.4208861599999999,-0.10888673,-0.33185256
971,1778426800020,0.5377346166666667,0.2110082616666666,-0.523099625,-0.34412075,-0.356185335,-0.2294053558333333
972,1778426800030,0.5017976,0.1999507,-0.49868765,-0.25778514,-0.519999,-0.106901415
973,1778426800040,0.5017976,0.1999507,-0.49868765,-0.25778514,-0.519999,-0.106901415
974,1778426800050,0.4794008128571428,0.19683205,-0.5146119128571429,-0.14571318075,-0.6041238842857143,0.030150565
975,1778426800060,0.4194757166666666,0.2200941366666666,-0.5548088166666667,-0.0049887328333333,-0.7439829666666666,0.2729040533333333
976,1778426800070,0.39629345,0.2377171283333333,-0.5699113416666667,-0.0226783716666666,-0.7687993933333334,0.3603850666666666
977,1778426800080,0.4043877142857143,0.2460945028571428,-0.5726118428571428,-0.11512628,-0.72959127,0.4621632171428572
978,1778426800090,0.4063041999999999,0.24330688,-0.5717407,-0.1788307999999999,-0.66798115,0.50946164
979,1778426800100,0.40173078,0.27410138,-0.57247245,-0.24633141,-0.57848936,0.5386304
980,1778426800110,0.35431512,0.3547158214285714,-0.5914108142857142,-0.3382666257142857,-0.5246459871428572,0.5107269857142857
981,1778426800120,0.32739717,0.37483895,-0.6055231,-0.34804046,-0.52473325,0.5030475
982,1778426800130,0.2780243533333333,0.4316512133333334,-0.6131455499999999,-0.2954042533333333,-0.58184916,0.47306422
983,1778426800140,0.26410077,0.4477090466666666,-0.6210728333333333,-0.259923165,-0.60376394,0.45921795
984,1778426800150,0.2633080366666667,0.4496603666666667,-0.6214183833333333,-0.237397505,-0.5676465199999999,0.45303294
985,1778426800160,0.2760701014285714,0.4508538114285714,-0.62160424,-0.2345504385714285,-0.45472372,0.4555527542857143
986,1778426800170,0.29227313,0.45374596,-0.62662196,-0.23472497,-0.36300668,0.45738536
987,1778426800180,0.3152521116666666,0.4472923533333333,-0.6467552066666666,-0.2372956933333333,-0.0993928633333333,0.4247295166666667
988,1778426800190,0.3202016014285714,0.4840439114285714,-0.6789420685714286,-0.2241875471428571,0.2109666728571428,0.3916955228571429
989,1778426800200,0.3394710299999999,0.5458652066666667,-0.7146758666666666,-0.1368338166666667,0.3457497233333333,0.3027855333333333
990,1778426800210,0.3500610833333333,0.5771272066666667,-0.735236,-0.068187835,0.38515055,0.193415205
991,1778426800220,0.3724607685714285,0.6209944257142858,-0.7681981257142858,-0.0182168751428571,0.3524474514285715,0.0527089428571428
992,1778426800230,0.41728044,0.64351314,-0.77882594,0.030543262,0.25579983,-0.12782355
993,1778426800240,0.4369970599999999,0.6084298066666667,-0.8240318466666667,0.0454076506666666,0.3255402633333333,-0.3097595833333333
994,1778426800250,0.3550642542857142,0.5204049185714286,-0.8688747428571428,-0.0465130214285714,0.5606215571428571,-0.5332635285714286
995,1778426800260,0.25808416,0.4620391633333333,-0.8574687333333334,-0.241520835,0.85635671,-0.7070001349999999
996,1778426800270,0.218457865,0.43566568,-0.822151625,-0.30405816,0.88514376,-0.70402217
997,1778426800280,0.2015013014285714,0.4214793,-0.7899938571428571,-0.1661771714285714,0.6680029571428571,-0.5593343885714286
998,1778426800290,0.20324357,0.4276469,-0.7752892,-0.04810564,0.4925101,-0.48899764
999,1778426800300,0.2033219685714285,0.4330827542857142,-0.772806442857143,0.0235619428571428,0.3865468,-0.4651738942857143
