id,timestamp,acc_x,acc_y,acc_z,gyro_x,gyro_y,gyro_z
0,1778427319540,-0.4042919,0.3945352,0.9245661,-0.36819902,0.34437528,0.08124508
1,1778427319550,-0.40758478,0.3913236333333333,0.9177364733333334,-0.28481592,0.2177225533333333,0.0489710333333333
2,1778427319560,-0.40923122,0.38971785,0.91432166,-0.24312437,0.15439619,0.03283401
3,1778427319570,-0.50401896,0.3678437599999999,0.8943814542857143,-0.0433496159,0.1801179842857143,0.2421644485714285
4,1778427319580,-0.51320064,0.37410718,0.8616965999999999,0.0053450707,0.14966199,0.5510005
5,1778427319590,-0.4976509828571429,0.3934898371428571,0.8702772428571429,0.0195695045857142,0.1148426671428571,0.6188937857142857
6,1778427319600,-0.45939674,0.4204310333333333,0.8856207333333334,0.07615453,0.0546215316666666,0.7179702899999999
7,1778427319610,-0.39130333,0.4617343,0.9347496,0.1444914442857142,0.0769472028571428,0.7182684457142857
8,1778427319620,-0.3862623866666666,0.4623440733333333,0.9394653666666668,0.1755219466666666,0.1269072566666666,0.6744461333333334
9,1778427319630,-0.3935682714285714,0.4791046142857142,0.9364919857142856,0.20747602,0.1846776557142857,0.5408120914285715
10,1778427319640,-0.4158779342857143,0.4954296,0.9132153457142856,0.2152645514285714,0.1535235242857142,0.4774784628571428
11,1778427319650,-0.5341165,0.5026513,0.82998747,0.236481205,-0.159970335,0.395917045
12,1778427319660,-0.5340148833333334,0.4769892166666667,0.833442995,0.2740748666666666,-0.6752606266666666,0.33042719
13,1778427319670,-0.5244469714285714,0.4661944571428572,0.8344651285714286,0.2958769428571428,-0.8950485142857143,0.3348195971428571
14,1778427319680,-0.4589815,0.4376649071428571,0.8448315285714286,0.2827869857142857,-1.2783882,0.4251840314285715
15,1778427319690,-0.4099194028571428,0.4178989371428571,0.8894769857142857,0.2604031328571428,-1.334718742857143,0.4458225514285714
16,1778427319700,-0.3584965500000001,0.39166918,0.9709713,0.234394085,-1.3895148833333335,0.4648684533333333
17,1778427319710,-0.3607789071428571,0.3864249771428572,0.9885681285714286,0.2347686057142857,-1.4839880285714284,0.4808600285714285
18,1778427319720,-0.3674256114285714,0.3651955157142857,1.010607742857143,0.2832014857142857,-1.5518376571428572,0.4719152171428571
19,1778427319730,-0.3352837933333333,0.3339422333333333,0.9081627666666666,0.3364340333333333,-1.8429804666666667,0.455298235
20,1778427319740,-0.3233725249999999,0.35334377,0.8585867,0.3260493299999999,-2.23278885,0.49861875
21,1778427319750,-0.2311894414285714,0.3784018542857142,0.8423313714285714,0.2505420171428571,-3.092701571428571,0.5250387
22,1778427319760,-0.1252816966666666,0.4976408016666666,1.0485367566666668,0.25819239,-3.112001933333333,0.4709771166666667
23,1778427319770,-0.11183579,0.52204263,1.0905514,0.2648101,-3.0752482,0.4615087
24,1778427319780,-0.0968871814285714,0.4141095285714286,1.0884956428571428,0.9022915542857144,-1.3801845714285714,0.3133084142857142
25,1778427319790,-0.11427496,0.315658655,0.93316425,1.0049751,-1.1462377,0.2955060599999999
26,1778427319800,-0.14994015375,0.209593015,0.745737125,0.9323331,-1.046526675,0.298865835
27,1778427319810,-0.2090264266666666,0.1657007233333333,0.6396714499999999,0.4865287166666667,-0.8680904166666666,0.35654169
28,1778427319820,-0.2132528771428571,0.19469778,0.6204978757142856,0.2072360342857142,-0.6056292714285714,0.3254820942857143
29,1778427319830,-0.2411116333333333,0.2367211333333333,0.6400576833333333,0.089135422,-0.3368921866666666,0.28797206
30,1778427319840,-0.354827625,0.2900880666666666,0.6669596499999999,0.0238746503333333,-0.0704022186666666,0.2358958033333333
31,1778427319850,-0.4138743357142857,0.3151664714285714,0.6591499857142856,0.0345575189999999,0.0299323962857142,0.1862484557142857
32,1778427319860,-0.4467333833333333,0.2933301133333333,0.6258495266666667,0.0914261656666666,-0.0231110693333333,0.18188513
33,1778427319870,-0.42980148,0.1568384133333333,0.5157008133333333,0.3110322333333333,-0.5578726746666667,0.3968587766666667
34,1778427319880,-0.4453657142857143,-0.0055491039999999,0.4774581871428571,0.6223407999999999,-1.2374821142857144,0.8168795514285715
35,1778427319890,-0.4686858833333333,-0.083541459,0.49254908,0.9240355166666668,-1.6794213166666665,1.15305905
36,1778427319900,-0.4463675,-0.118055664,0.51106644,1.6646078,-2.5283713,1.7951801999999997
37,1778427319910,-0.2778109333333333,-0.184573769,0.4563884066666666,2.10532155,-2.807460383333334,1.9770398666666669
38,1778427319920,-0.1331610771428571,-0.2655207328571429,0.2885621285714285,2.1865703,-2.8863164857142856,2.044915057142857
39,1778427319930,-0.0095127491666666,-0.3545735366666667,0.1149762183333333,1.7192802,-2.601217,2.0874794
40,1778427319940,0.0126226876666666,-0.3446135933333333,0.0758987356666666,1.60184135,-2.6202302,2.0838904499999997
41,1778427319950,0.03280679,-0.23159887,0.07762648,1.4844025,-2.6392434,2.0803015
42,1778427319960,0.035621995,-0.2336620033333333,0.0765796716666666,1.4681636833333334,-2.68050225,2.0804542500000003
43,1778427319970,0.04969802,-0.24397767,0.07134563,1.1843368285714286,-3.0492429,2.2829344
44,1778427319980,0.1242389519999999,-0.288711978,0.0438562196799999,1.08562972,-3.0716747399999997,2.4163080399999997
45,1778427319990,0.256905235,-0.3631004499999999,0.00073175,0.9785043083333332,-3.0681470166666664,2.5836799666666668
46,1778427320000,0.38075392,-0.378040355,0.0018903541999999,0.8666650533333332,-3.1692198,2.782287566666666
47,1778427320010,0.54042786,-0.3720949,0.0265869173,0.70509121,-3.4330627,3.0678415500000003
48,1778427320020,0.7219018500000001,-0.313554885,0.140374041,0.64194301,-3.7329211,3.239342
49,1778427320030,0.8841630571428573,-0.2563389871428571,0.25745404,0.71327248,-4.154799914285714,3.4368588285714283
50,1778427320040,1.2542196,-0.1255357833333333,0.4877114066666667,0.8792896333333333,-4.189313733333333,3.5090644999999996
51,1778427320050,1.5321625,0.0020123124,0.5893027,1.06647908,-4.105930600000001,3.55920636
52,1778427320060,1.5820028333333334,0.0263836532666666,0.5884896333333333,1.3187053333333332,-3.932394,3.5801285000000003
53,1778427320070,1.8113427,0.1629711835714285,0.5480459,1.622829,-3.791945971428571,3.455599242857143
54,1778427320080,2.01281045,0.4098206766666667,0.4320475749999999,1.8739818666666668,-3.826968866666667,3.167590966666667
55,1778427320090,2.0646937,0.57344806,0.3567891,1.9113718833333333,-4.065995383333333,2.9449051666666666
56,1778427320100,2.0727515571428574,0.6704920885714286,0.2720280571428571,1.6904604142857145,-3.9965422,2.861336428571428
57,1778427320110,2.0761271166666666,0.79249545,0.1326296816666666,1.2768101333333333,-3.668525733333333,2.8725683333333336
58,1778427320120,2.074720457142857,0.8642316,0.1048231871428571,0.5750205342857143,-3.000984571428571,3.039120028571429
59,1778427320130,2.0863413333333334,0.901516,0.1732418153333333,-0.28435777,-2.1467840666666667,3.268943466666667
60,1778427320140,2.116525914285714,0.9715114,0.5832047628571428,-1.0926633885714283,-1.2532554914285714,3.486818771428571
61,1778427320150,2.0815441833333335,1.0344709333333333,1.0797886,-1.319469,-0.77106464,3.5689802
62,1778427320160,2.0450234714285713,1.0561069142857142,1.2378771,-1.319469,-0.77106464,3.5689802
63,1778427320170,1.9062697,1.1353101333333333,1.4980548333333334,-0.7976882376666666,-0.8698720799999999,3.4560719333333334
64,1778427320180,1.8120975333333331,1.181776266666667,1.5714331,0.1670207346666666,-1.1807515666666666,3.2221614666666665
65,1778427320190,1.4242294,1.3098935,1.4597802,1.42560681,-1.6922495,2.866841466666667
66,1778427320200,1.3168974142857142,1.3479706571428571,1.4140458857142857,1.924160142857143,-1.8812250285714285,2.7222118
67,1778427320210,0.9487343,1.3261342666666665,1.2728995333333335,2.4197136166666664,-2.0444641166666666,2.582509116666667
68,1778427320220,0.9178178166666668,1.636294633333333,1.2544634833333337,2.8947886166666663,-2.0270291166666667,2.5220589500000004
69,1778427320230,0.9341399,1.7055873,1.258793,2.9318478,-2.006387,2.5189028
70,1778427320240,0.9985135333333334,1.8050341166666664,1.307749066666667,3.1738011833333335,-1.4457398666666668,1.744962
71,1778427320250,1.0147717142857142,1.8785851142857144,1.375463542857143,3.2396146571428575,-1.1590950000000002,1.40643
72,1778427320260,1.0176203,1.9265147,1.4200219,3.2801936,-0.98990715,1.2125676
73,1778427320270,1.2316571,1.8077274999999997,1.4825865,3.785939133333333,-0.1744529266666666,0.202196404
74,1778427320280,1.2616241714285716,1.7801561428571429,1.4357632142857144,4.085706585714285,0.1715876814285714,-0.2799944482857143
75,1778427320290,1.2970371500000002,1.744461533333333,1.3444788566666668,4.3200388,0.4042400799999999,-0.7829765000000001
76,1778427320300,1.4219935333333331,1.5831818333333334,0.8861696133333333,4.70457865,0.8862127699999999,-2.0031798000000003
77,1778427320310,1.4376448,1.5072830999999998,0.69510156,4.7296243,1.0138836,-2.3868032
78,1778427320320,1.4463445333333331,1.2788551,0.44919288,4.507192799999999,1.1619421,-3.16886355
79,1778427320330,1.4480113,1.226535,0.39758417,4.26460315,1.25540445,-3.69527665
80,1778427320340,1.5144785999999997,1.0778677,0.32660443,4.053803633333334,1.3168218333333332,-4.085314133333333
81,1778427320350,1.6202775,0.95450688,0.31251824,3.8191295,1.3720033,-4.5401034
82,1778427320360,1.9041253666666669,0.5478571583333334,0.2915922216666666,3.4975853333333333,1.6346244666666667,-5.453982983333333
83,1778427320370,1.9687472428571429,0.2768802628571428,0.2638829957142857,3.2260012571428573,2.0071723142857145,-6.166706257142857
84,1778427320380,1.893657266666667,0.0022054141666666,0.2595883183333333,2.9865712,2.495079066666667,-6.661739933333333
85,1778427320390,1.7505493,-0.1308003103333333,0.3228237133333333,2.8830549,2.86297265,-6.8530682
86,1778427320400,1.6530319428571427,-0.2164586185714285,0.3809804128571428,2.8583257142857144,3.1418981428571433,-6.9492902857142855
87,1778427320410,1.5670426333333334,-0.2667635233333333,0.4764912333333333,3.0661617500000005,3.005915116666667,-6.833113083333334
88,1778427320420,1.4573208,-0.2724345766666666,0.5872090666666666,3.321605266666667,2.7925958666666664,-6.686327283333333
89,1778427320430,1.36480525,-0.2459899499999999,0.6533612999999999,3.52812865,2.62336075,-6.554507699999999
90,1778427320440,1.2646469333333332,-0.1922063333333333,0.6796128333333332,3.94710595,2.2573762,-6.249838700000001
91,1778427320450,1.0995415,-0.0935943114285714,0.6334864714285714,4.4328745,1.6623389,-5.830948714285715
92,1778427320460,1.0711601,-0.079516836,0.6174751,4.5246787,1.5176947,-5.7425914
93,1778427320470,0.8110229514285715,-0.0360996674285714,0.4458274085714285,4.7179085999999995,0.9511171285714284,-5.266291228571428
94,1778427320480,0.62000568,-0.027257689,0.296785615,4.6447902,0.71601043,-4.91693075
95,1778427320490,0.3167461033333333,-0.0170030246666666,0.0370346828333333,4.198044266666667,0.4140902683333333,-4.256483416666667
96,1778427320500,0.14397182,-0.018293751,-0.099152125,3.9027163333333337,0.30390545,-3.903326999999999
97,1778427320510,0.096042192,-0.0525030629999999,-0.1425692924999999,2.957504,0.153403535,-2.87228835
98,1778427320520,0.0326136906666666,-0.1292453458333333,-0.1941678266666666,1.8558595,0.1282053366666666,-1.8000672
99,1778427320530,0.0214472435714285,-0.16008774,-0.1763953057142857,1.7357736,0.1255328,-1.6893479
100,1778427320540,0.00490272542,-0.282882368,-0.0298919898,1.03013262,-0.1156062458599999,-1.05084098
101,1778427320550,0.0077037015233333,-0.440859075,0.1664934533333333,-0.032986723,-0.7141015,0.03772093
102,1778427320560,0.00079272914,-0.5105786,0.25928342,-0.2802562604285714,-0.8896379714285715,0.4700826185714285
103,1778427320570,0.0026743720485714,-0.5644667085714287,0.3320402857142857,-0.4855288142857143,-0.9380926571428572,0.9815296142857142
104,1778427320580,0.012988563,-0.63741523,0.38618106,-0.6191119166666667,-0.8858309333333333,1.4240288
105,1778427320590,0.0240664438333333,-0.6960568716666667,0.41062356,-0.68187833,-0.7273877799999999,1.7605901
106,1778427320600,0.03295924,-0.72101765,0.41441443,-0.7586437333333333,-0.41946082,2.2820399
107,1778427320610,0.06995182,-0.7611506714285714,0.3561009142857143,-0.8223119057142857,0.1754492285714285,3.093356142857143
108,1778427320620,0.1544297316666666,-0.7796491333333333,0.2278689833333333,-0.8954011733333332,0.4613304833333334,3.6512179
109,1778427320630,0.20702427,-0.7665865228571428,0.1881468628571428,-0.9147052371428572,0.5041165000000001,3.792622285714286
110,1778427320640,0.3402840966666667,-0.72221694,0.1226494266666666,-0.9131926433333332,0.3598250733333333,4.450942266666667
111,1778427320650,0.4400968033333334,-0.6823467433333333,0.0763967283333333,-0.8526152000000001,0.15943582,4.6966376
112,1778427320660,0.6067078471428572,-0.5968814714285714,-0.0193826642857142,-0.7717191457142858,-0.1371828799999999,4.910135085714286
113,1778427320670,0.7127448333333333,-0.54110878,-0.0569545433333333,-0.6670139566666666,-0.3758857433333333,5.0155602
114,1778427320680,0.9705793,-0.4038040628571428,-0.1193536528571428,-0.6214027,-0.47051895,5.0504813
115,1778427320690,1.2454821,-0.21371456,-0.1777542785714285,-0.4651957071428571,-0.6798275714285714,4.959702
116,1778427320700,1.3035517,-0.1656804,-0.19190145,-0.4877759,-0.65194595,4.987409
117,1778427320710,1.3035517,-0.1656804,-0.19190145,-0.4877759,-0.65194595,4.987409
118,1778427320720,1.4684480285714283,0.2014490225714285,-0.4536240314285714,-0.2862121831428571,-0.9066767728571428,4.5650614
119,1778427320730,1.649476333333333,0.642405325,-0.7508873399999999,-0.5265149646666666,-0.7036658666666668,4.069482533333333
120,1778427320740,1.6964201666666667,0.7610403099999999,-0.8255359800000001,-1.2358567666666669,-0.2493348333333333,3.734372
121,1778427320750,1.7048381714285714,0.8379931214285714,-0.8560168499999999,-1.5915875714285714,-0.1423097871428571,3.571401857142857
122,1778427320760,1.5125883,1.1703732,-0.7769965500000001,-2.2561798666666664,-0.0580831026666666,3.4226780666666667
123,1778427320770,1.4858184,1.340566,-0.7052241,-2.9033406,-0.0519744506666666,3.4886768333333333
124,1778427320780,1.5547074857142855,1.3913965428571429,-0.6439138714285715,-3.262238557142857,-0.052643493,3.559926285714286
125,1778427320790,1.7006277666666667,1.4831760333333337,-0.4532174733333333,-3.75096725,-0.0290670031666666,3.5924221999999997
126,1778427320800,1.815602457142857,1.5525731857142857,-0.1274725985714286,-4.397139,0.0904516867142857,3.3687472714285716
127,1778427320810,1.7767499333333332,1.6417421,0.2366194966666666,-4.4434338,0.115962585,3.1093040999999997
128,1778427320820,1.707834857142857,1.7324703857142858,0.5703119971428572,-4.2481969714285714,0.1175697442857142,2.811332785714286
129,1778427320830,1.6148808499999998,1.8452601,0.840323385,-3.7994292,0.047112983,2.5258515
130,1778427320840,1.5214302142857143,1.9721881714285712,1.0815614042857142,-3.0953196285714286,-0.0688096088571428,2.1970422857142857
131,1778427320850,1.4948433333333335,2.0066414666666668,1.1256754666666666,-2.7860035999999995,-0.10781772,2.065488
132,1778427320860,1.4464433571428572,2.0727517142857144,1.186001242857143,-2.1900391000000003,-0.1548979828571428,1.794067642857143
133,1778427320870,1.39145315,2.20897025,1.2036372999999998,-0.9648616249999998,-0.208992275,1.143692425
134,1778427320880,1.4542210333333332,2.291800333333333,1.1235512833333334,-0.16661349,-0.0450513099999999,0.5871942
135,1778427320890,1.5294707428571428,2.3022336,1.0493295071428572,0.0921097628571428,0.0383317957142857,0.2703514928571428
136,1778427320900,1.6266599,2.3053174,0.94601051,0.4910338566666667,0.1705332133333333,-0.2487748766666666
137,1778427320910,1.7097337999999995,2.227569,0.68491805,0.8166250566666667,0.3794491266666667,-1.0702867766666666
138,1778427320920,1.7037579,2.1968356,0.637842125,0.9632582,0.5388595,-1.62115995
139,1778427320930,1.6563669166666666,2.0260023666666664,0.4654031666666666,1.0391582,0.80596033,-2.3829089
140,1778427320940,1.62785915,1.95677065,0.4228498666666667,1.0772609,0.9970848,-2.9078712
141,1778427320950,1.5267354,1.7507119,0.3354464,1.0772609,0.9970848,-2.9078712
142,1778427320960,1.5108320599999998,1.72422256,0.325299464,1.10019888,1.0709384,-3.06947562
143,1778427320970,1.3093447,1.3165228714285715,0.17356413,1.4847297714285717,1.6720472285714287,-4.600731385714285
144,1778427320980,1.2688458142857144,1.04135,0.1291016057142857,1.8779524571428572,1.422552485714286,-5.330497671428572
145,1778427320990,1.2559066333333333,0.9498521933333334,0.1168055915,1.9307923,1.3833044,-5.426469
146,1778427321000,1.2108459428571428,0.6691853514285714,0.076851172,2.1040162142857146,1.2128293285714289,-5.7043908
147,1778427321010,1.1851301,0.5010658,0.0309774169999999,2.3677137,0.6453791,-6.179970700000001
148,1778427321020,1.2208901,0.4651752285714286,0.0410389791428571,2.3559545428571425,0.4508839885714285,-6.265426542857143
149,1778427321030,1.3663500166666669,0.3067557,0.0946599923333333,2.2344432,0.3158682399999999,-6.440504866666667
150,1778427321040,1.42399776,0.164473016,0.148435486,2.1459696,0.4079052799999999,-6.5116706
151,1778427321050,1.4318519,0.13610551,0.15939954,2.0968458333333335,0.4932736866666666,-6.493548400000001
152,1778427321060,1.4890851285714286,0.1008769642857142,0.1948371514285714,1.7615826,1.2844969,-6.730360499999999
153,1778427321070,1.4018297999999998,-0.01365934,0.19797904,1.6345226666666666,1.5958344999999998,-6.989571099999999
154,1778427321080,1.012030633333333,-0.0639671493333333,0.2922934833333333,1.4588989,1.7280868333333337,-7.287673466666667
155,1778427321090,0.4787068,-0.1765550113333333,0.3613218933333333,1.4585425333333333,1.511229733333333,-7.120347333333332
156,1778427321100,0.2945293766666666,-0.1871450593333333,0.3717086783333334,1.505171933333333,1.2526810333333334,-6.808347866666666
157,1778427321110,0.2183358949999999,0.089029582,0.3724912549999999,1.5408567,0.9319004,-6.3721136666666665
158,1778427321120,-0.0022475199999999,-0.0159591228571428,0.3349585685714285,1.5322026999999998,0.8622144714285714,-5.766611500000001
159,1778427321130,-0.32081142,-0.050368793,0.32325056,1.464549433333333,0.6814710833333334,-4.830417
160,1778427321140,-0.4493903342857143,-0.0909199337142857,0.28169761,1.4569572,0.4780675114285714,-4.133005157142857
161,1778427321150,-0.5065945866666667,-0.15137062,0.2439573166666666,1.4654148000000002,0.2318233666666666,-3.5916330666666667
162,1778427321160,-0.4761514671428571,-0.3494193585714286,0.1420030542857142,1.5178473999999995,-0.6814202,-1.9643899
163,1778427321170,-0.4298319783333333,-0.47298492,0.06633517,1.4937182666666668,-0.9914342666666668,-1.4720325
164,1778427321180,-0.4174023933333333,-0.5147251583333333,0.0411406116666666,1.4816537,-1.1464413,-1.2258538
165,1778427321190,-0.3804185399999999,-0.6861681000000001,-0.0263430009999999,1.1446087,-1.8347337,0.00870483
166,1778427321200,-0.36400207,-0.8056132142857143,0.0167866931428571,0.8294022414285714,-1.9481146571428571,0.81005096
167,1778427321210,-0.33215353,-0.9802401,0.12775135,0.15347989,-1.9808832,2.588847
168,1778427321220,-0.28233355,-1.0316658666666667,0.1804373583333333,-0.0170533208333333,-1.7763706166666668,3.1364622499999997
169,1778427321230,-0.16439983,-1.13842,0.26129574,-0.3100795632857143,-1.1363402428571427,4.3560145285714285
170,1778427321240,0.008374475,-1.1910146666666668,0.2699344399999999,-0.47000991,-0.58546344,5.2887184666666665
171,1778427321250,0.168444781,-1.2346147666666667,0.2439166633333333,-0.551916745,-0.2023491185,5.9530345
172,1778427321260,0.4009989999999999,-1.2961732,0.19019403,-0.5572618,0.05467244,6.8262663
173,1778427321270,0.4983566,-1.3298685714285714,0.1537110642857142,-0.4729624057142857,-0.0921970171428571,7.137458700000001
174,1778427321280,0.6119869333333333,-1.3704865000000002,0.1063273433333333,-0.3646865533333334,-0.3249803066666666,7.4877318
175,1778427321290,0.7729981028571429,-1.3991930857142856,0.0502119858571428,-0.1775436257142857,-0.8440848714285715,7.959726885714287
176,1778427321300,1.1273218,-1.3635551999999995,-0.018110814,-0.0477492983333333,-1.2460886666666666,8.318228333333334
177,1778427321310,1.551249,-1.2846482,-0.0834195,-0.030695979,-1.3545936,8.630762
178,1778427321320,1.6625446571428573,-1.2445412857142857,-0.0959289457142857,-0.0606720094285714,-1.2899292,8.64784442857143
179,1778427321330,2.1559794,-0.99322873,-0.07658983,-0.21736621,-0.8621599466666666,8.506094833333334
180,1778427321340,2.4543505,-0.6922355000000001,-0.05585692,-0.23777929,-0.6375906,8.21064
181,1778427321350,2.52636685,-0.535641015,-0.074394587,-0.19417879,-0.660879825,7.9735477
182,1778427321360,2.6779408,-0.159684122,-0.1391544646666666,-0.06327546,-0.9188431166666668,7.3581009
183,1778427321370,2.7177196,-0.050002918,-0.16226557,-0.045814894,-0.96577793,7.282430000000001
184,1778427321380,2.749748925,0.4637618225,-0.35060735125,-0.18505399925,-1.27539122875,6.5251669375
185,1778427321390,2.7257688,0.60198635,-0.40404797,-0.325071942,-1.27527282,6.2723946
186,1778427321400,2.6546772666666665,0.796001725,-0.449274185,-1.164538195,-0.7600945133333333,5.840711550000001
187,1778427321410,2.55521,1.1477498999999998,-0.50063896,-1.8051067999999997,-0.37048978,5.6596665
188,1778427321420,2.5523745000000004,1.2385784,-0.4786864499999999,-2.0286834666666667,-0.2506583779999999,5.6085065
189,1778427321430,2.6104694000000004,1.53478466,-0.2913096679999999,-3.2556673600000003,0.3615100452,5.2678269
190,1778427321440,2.6511506666666667,1.6520069666666668,-0.1810268166666666,-3.6642242,0.5549710666666666,5.0528228
191,1778427321450,2.6919602857142855,1.8490452714285712,0.0376067214285714,-4.224591228571428,0.8451320714285714,4.566457828571429
192,1778427321460,2.629370833333333,2.0750702833333334,0.2852605583333333,-4.748662966666667,1.23099525,3.6974655666666663
193,1778427321470,2.619543,2.1028666,0.31325,-4.798779416666666,1.27869365,3.5178712166666664
194,1778427321480,2.468863457142857,2.408955914285715,0.540711,-4.8259447,1.3579316428571429,2.7178922714285716
195,1778427321490,2.3620686333333336,2.594948066666667,0.6955995666666667,-4.693939433333333,1.347110566666667,1.9441295666666667
196,1778427321500,2.276709457142857,2.7050011142857144,0.8616966114285715,-4.298288,1.2508556857142856,1.1039425914285714
197,1778427321510,2.19483546,2.7855893600000003,1.0465611,-3.5321756,1.0963199,-0.12183708
198,1778427321520,2.1666813,2.7758631499999997,1.07686165,-3.0469958666666663,1.0708977,-0.8048149466666666
199,1778427321530,2.1144119,2.7321310000000003,1.0669525333333334,-2.410932466666667,1.0515536333333333,-1.6880751666666665
200,1778427321540,2.013418785714286,2.6268518857142857,0.9845435142857144,-2.0164662142857144,1.0275626285714283,-2.2319052142857143
201,1778427321550,1.901609242857143,2.4264046285714285,0.8457984571428572,-1.2489793857142857,0.9383763,-3.2729288
202,1778427321560,1.867792,2.160065,0.7060168,-0.7738898500000001,0.93095863,-3.91022495
203,1778427321570,1.874883,2.1356385,0.6916518471428572,-0.5170974,0.95111716,-4.2526913
204,1778427321580,1.9685418,1.85696196,0.529543062,-0.2424218868,1.0963504,-4.66181804
205,1778427321590,2.002617,1.7688836,0.47893035,0.0220166016666666,1.3243303833333333,-5.154353616666667
206,1778427321600,2.0376798833333334,1.5397342166666668,0.31959182,0.1858812049999999,1.5647567833333331,-5.6366318
207,1778427321610,1.9966758285714288,1.2405601857142856,0.1383268842857143,0.2932807642857143,2.0016090857142856,-6.3975481
208,1778427321620,1.9589559,1.0801849,0.08000467,0.30100384,2.117259,-6.571841199999999
209,1778427321630,1.8691131,0.8273856633333333,0.1118967733333333,0.4428263866666667,2.357430833333334,-6.915402
210,1778427321640,1.8530959,0.7763257600000001,0.12970269,0.5244023416666667,2.378709333333333,-6.996799733333333
211,1778427321650,1.8718339428571429,0.6095390285714286,0.1814217514285714,0.8532260285714285,2.3127795142857144,-7.172997728571429
212,1778427321660,1.9266470833333331,0.26402962,0.27004625,1.3273592666666667,2.244827933333333,-7.374365166666666
213,1778427321670,1.9233440142857143,0.1859690302857143,0.2759307342857143,1.4873914142857143,2.2165244857142854,-7.442520285714286
214,1778427321680,1.8965028833333335,0.0303066474999999,0.2865919283333333,1.8006780666666666,2.0692042333333336,-7.528914
215,1778427321690,1.9071438333333333,-0.074130339,0.35156524,2.0438024,1.981036,-7.54067315
216,1778427321700,1.7703733428571429,-0.3984117408571428,0.36206817,2.2810799142857143,2.065640814285714,-7.642491414285714
217,1778427321710,1.6679806285714285,-0.4816657357142858,0.3799786314285714,2.396271642857143,2.039919057142857,-7.605970257142857
218,1778427321720,1.3971750833333332,-0.5481722166666667,0.3998404083333333,2.484465316666667,2.0481039333333335,-7.543727399999999
219,1778427321730,1.2357063,-0.5547274640000001,0.414524178,2.73655412,2.22455748,-7.144038480000001
220,1778427321740,1.0573788,-0.5510687,0.4349034,2.7956466142857144,2.212357657142858,-6.984742285714286
221,1778427321750,0.8051486,-0.4900082433333333,0.4714909233333333,2.8609874000000004,2.1771238,-6.753268000000001
222,1778427321760,0.42825669,-0.42261612,0.540549815,3.0512719500000003,1.8382462,-5.580712299999999
223,1778427321770,0.2293121649999999,-0.36977768,0.53954366,3.1577915,1.8174768,-4.82766815
224,1778427321780,0.050673692,-0.3578867533333333,0.4626692733333333,3.21381285,1.816687816666667,-4.337677916666666
225,1778427321790,-0.0055287773333333,-0.3723997866666666,0.3817702433333333,3.3094388,1.65071055,-3.18917475
226,1778427321800,-0.006341833,-0.41203624,0.1741565,3.244392571428571,1.269072542857143,-1.9975293
227,1778427321810,-0.0353069371666666,-0.4562461483333333,0.076081675,3.023350283333333,0.7090363833333333,-1.0570005333333334
228,1778427321820,-0.1525872942857142,-0.4922151457142857,-0.0689935737142857,2.8287641999999997,0.3080288,-0.5342017
229,1778427321830,-0.2613567,-0.5046026,-0.15549688,2.6040167,-0.0495818916666666,-0.1357393541666666
230,1778427321840,-0.3685580866666667,-0.5035455999999999,-0.2105407333333333,2.2764402666666665,-0.5940155433333333,0.3603595716666667
231,1778427321850,-0.5042773933333333,-0.5239533266666667,-0.2236309266666666,1.7594446333333331,-1.4377731333333337,1.1553752166666666
232,1778427321860,-0.59491277,-0.5664965,-0.14299615,1.4787774500000002,-1.819742083333333,1.6850717
233,1778427321870,-0.5507464528571429,-0.6115513571428571,-0.0259684143142857,0.98944896,-2.0674734,3.009275
234,1778427321880,-0.4465504599999999,-0.6736979,0.0276845429999999,0.8613709000000002,-2.006895933333333,3.4337244000000005
235,1778427321890,-0.4187033066666667,-0.6812999533333333,0.025489293,0.690201385,-1.89009345,3.97887075
236,1778427321900,-0.3061677057142857,-0.7176551185714286,-0.0106365072857142,0.4578435171428571,-1.7509579857142856,4.6413978857142855
237,1778427321910,-0.21556135,-0.7567515,-0.05250306,0.26323202,-1.7151569,5.0932416
238,1778427321920,-0.1222327375,-0.7994673649999999,-0.0677173649999999,-0.0999273766666666,-1.7372244166666668,5.7478854833333335
239,1778427321930,0.068093409,-0.88255151,-0.0975260166666666,-0.3406591866666666,-1.6966782,6.1019839000000005
240,1778427321940,0.196078513,-0.919199975,-0.1139090899999999,-0.4297437,-1.6743816,6.223800700000001
241,1778427321950,0.3718422385714285,-0.9414486428571428,-0.1471427385714285,-1.100931857142857,-1.3295045857142858,6.824171928571429
242,1778427321960,0.5079158066666666,-0.93505452,-0.1493583166666666,-1.4822136,-1.2383257,7.068983433333334
243,1778427321970,0.73282735,-0.9251352433333334,-0.1201899466666666,-1.9186769,-1.2162836666666668,7.3205581
244,1778427321980,1.0339526233333334,-0.8593895333333333,-0.0242087303333333,-2.2290981,-1.2470814666666667,7.511555333333334
245,1778427321990,1.0748798,-0.8466957,-0.0071345624,-2.307696,-1.2641857,7.563427999999999
246,1778427322000,1.3970733333333332,-0.6879263033333333,0.1030852835333333,-2.2997039999999997,-1.3725887666666667,7.559813916666666
247,1778427322010,1.7810185285714284,-0.4943058342857143,0.2187496928571428,-2.147256857142857,-1.5103425,7.434666428571428
248,1778427322020,1.97575555,-0.321512655,0.277729605,-1.59695445,-1.5976671166666667,7.1174453
249,1778427322030,2.1650756166666665,0.087840495,0.2156426516666666,-1.0207049,-1.780723066666667,6.936273066666666
250,1778427322040,2.34477105,0.230287835,0.13211136,-0.6672175543333333,-1.9400061666666664,6.857064333333334
251,1778427322050,2.548249828571429,0.5215374157142857,-0.0674690957142857,0.2023054717142857,-2.554725714285714,6.618266814285714
252,1778427322060,2.7655271999999997,0.7509584400000001,-0.3588624,0.5328272,-2.846174,6.3539147
253,1778427322070,2.684343666666667,1.0034121466666666,-0.4942361333333333,0.4424191399999999,-2.6741390000000003,6.0606231500000005
254,1778427322080,2.57109515,1.12719985,-0.58826603,0.2649627966666666,-2.3798036666666667,5.732461100000001
255,1778427322090,2.4662719,1.3954066166666668,-0.6712688433333334,-0.1493820016666666,-1.9206112666666664,5.700925333333333
256,1778427322100,2.5325868,1.5874097,-0.6753443,-0.4858415049999999,-1.5442672999999998,5.499772666666668
257,1778427322110,2.5325868,1.5874097,-0.6753443,-0.537256,-1.4863878,5.4605246
258,1778427322120,2.4986997428571427,1.7973348142857142,-0.6738285257142858,-1.0368783285714285,-0.7608326642857143,4.907189342857143
259,1778427322130,2.4402033333333333,1.938731,-0.6881092533333334,-1.2271773999999998,-0.5040147199999999,4.708243666666667
260,1778427322140,2.310927533333333,2.1922416666666664,-0.6680674333333334,-1.7987436666666667,0.07661268,4.1046072
261,1778427322150,2.1693339333333337,2.3937981333333336,-0.5773914066666667,-2.172338666666666,0.3679954,3.5978944666666663
262,1778427322160,2.1153064,2.455753,-0.54100716,-2.5259278,0.58200186,3.0130928000000003
263,1778427322170,1.9694268285714285,2.5046931999999997,-0.3486091942857143,-2.637367114285714,0.6104507171428571,2.662456171428571
264,1778427322180,1.86486495,2.5183177,-0.2602286,-2.54685,0.7278459700000001,1.0555751
265,1778427322190,1.675576814285714,2.5400437142857144,-0.1026976285714285,-2.263713942857143,0.6383105671428572,0.4637776142857143
266,1778427322200,1.6407461,2.5306761,-0.0786834533333333,-2.049300233333333,0.5312491500000001,0.0678569466666666
267,1778427322210,1.6494865,2.4992921,-0.09823744,-1.7148515,0.34697145,-0.52671856
268,1778427322220,1.6799557333333333,2.403920633333333,-0.144307201,-1.5977944,0.27969992,-0.7686211799999999
269,1778427322230,1.7249786,2.247509,-0.22354963,-1.0386237,0.14156802,-1.9970711
270,1778427322240,1.7261778833333334,2.231878033333333,-0.2272388683333333,-0.97349015,0.141797095,-2.1609358000000003
271,1778427322250,1.6612816142857143,1.8899185714285711,-0.4475958042857142,-0.5437573314285714,-0.0724093431428571,-3.4069918285714285
272,1778427322260,1.572103933333333,1.6474131333333333,-0.6341020333333334,-0.35460728,-0.24297164,-4.035223
273,1778427322270,1.5219181333333334,1.4546377,-0.7657763566666667,-0.4508185466666667,-0.4682791216666666,-4.562399966666667
274,1778427322280,1.4990306,1.2214127666666668,-0.8829783566666666,-0.6976081000000001,-0.6356562,-5.0501248
275,1778427322290,1.5049659,1.1868376,-0.8923082,-0.8374963000000001,-0.6638578,-5.1951036
276,1778427322300,1.5049659,1.1868376,-0.8923082,-1.0022772,-0.6389650333333333,-5.334839066666667
277,1778427322310,1.528695557142857,1.001704805714286,-0.9016641285714284,-1.3884749142857142,-0.5713116942857143,-5.659033999999999
278,1778427322320,1.6221881166666667,0.7478586483333333,-0.74579554,-1.7282904,-0.46410486,-5.927378
279,1778427322330,1.6689998,0.62381685,-0.63601273,-1.9961549,-0.35720345,-6.273433
280,1778427322340,1.7042457666666666,0.5544835533333333,-0.5296040766666666,-1.9990056333333337,-0.3706424833333333,-6.420041
281,1778427322350,1.7747377,0.41581696,-0.3167867699999999,-1.926079942857143,-0.4407174571428571,-6.628433285714285
282,1778427322360,1.85307152,0.23542836,-0.133715118,-1.4340061599999998,-0.739513468,-7.093642
283,1778427322370,1.8429646714285717,0.1366368902857143,-0.0872002071428571,-1.1904236428571429,-0.8059930414285714,-7.299555971428572
284,1778427322380,1.7564439142857142,0.0247139855,0.0158807171428571,-0.9918488142857144,-0.7828019714285714,-7.383702771428572
285,1778427322390,1.6444049000000005,0.0162001328333333,0.0929932333333333,-0.6273586,-0.6435465,-7.4151406
286,1778427322400,1.55249915,0.053844604,0.1530272225,-0.52213707,-0.57047177,-7.3616135
287,1778427322410,1.4926481,0.08329754,0.19104773,-0.3943571571428571,-0.4801619128571429,-7.287731485714285
288,1778427322420,1.333462,0.076742282,0.23760533,-0.2217949866666666,-0.3576107033333333,-7.113932999999999
289,1778427322430,1.2418001,0.0729412466666666,0.2574032283333333,-0.03573562,-0.26190847,-6.855588
290,1778427322440,1.1016496,0.06994311,0.26995477,0.10797043,-0.2171626,-6.607577
291,1778427322450,0.7490680714285715,0.0161681907857142,0.1937569414285714,0.3810708185714286,-0.1505782771428571,-5.669462228571428
292,1778427322460,0.6554999214285715,-0.0324147833428571,0.1549045085714285,0.451953,-0.10906126,-4.959746
293,1778427322470,0.63192713,-0.04835648,0.14525238,0.45478916,-0.09850202,-4.7952924
294,1778427322480,0.5530549100000001,-0.11238461,0.1411232228571428,0.4461061514285714,-0.0780816674285714,-4.598026485714286
295,1778427322490,0.20409729,-0.2502585,0.19299906,0.419562605,0.083943064,-3.0030134499999996
296,1778427322500,0.20409729,-0.2502585,0.19299906,0.42938736,0.1202895513333333,-2.346689733333333
297,1778427322510,-0.0227887851428571,-0.3651781,0.1780940171428571,0.4289583014285714,0.1310306,-1.9264944857142856
298,1778427322520,-0.2474012,-0.4575528357142857,0.1639991157142857,0.3687444314285714,0.14182982,-0.3422154514285714
299,1778427322530,-0.326482464,-0.501578068,0.173497922,0.3043636,0.09987647,0.6401868
300,1778427322540,-0.3542802514285714,-0.5720542785714285,0.1913700471428571,0.2561488857142857,0.0410806885714285,1.2716687285714283
301,1778427322550,-0.36246018,-0.609883125,0.203304545,0.2245438866666666,0.0026979883333333,1.7956893
302,1778427322560,-0.4119753,-0.7215055,0.2651374,0.2441424766666666,0.0055486925,2.4782294
303,1778427322570,-0.4125444199999999,-0.7693131666666666,0.2765608533333333,0.3405064766666666,0.0201585531666666,3.227506566666667
304,1778427322580,-0.38716894,-0.8329266000000001,0.272076836,0.4999015959999999,0.005467244,3.92994052
305,1778427322590,-0.3526425333333333,-0.8690547333333333,0.2440589399999999,0.63270368,-0.047265697375,4.474588
306,1778427322600,-0.2362332999999999,-0.94164035,0.160405695,0.8058330666666667,-0.17567466,5.3596298
307,1778427322610,-0.0921801766666666,-0.9871917466666668,0.07850051,0.8493572233333334,-0.2498438833333333,5.754248633333333
308,1778427322620,0.1444509407142857,-1.0337972528571429,-0.0235031114285714,0.8074329485714287,-0.4007712228571428,6.454794928571428
309,1778427322630,0.274802625,-1.04219495,-0.057289925,0.7042258,-0.4450153266666666,6.788647433333334
310,1778427322640,0.4771314899999999,-1.03338345,-0.0960116999999999,0.5546401916666667,-0.43689592,7.035869666666667
311,1778427322650,0.6469279666666666,-1.0182911666666663,-0.1213282099999999,0.4796310333333333,-0.4055636266666667,7.101664933333333
312,1778427322660,0.7116704285714286,-1.012533,-0.1342674085714285,0.3930263285714285,-0.1936006428571428,7.183578857142857
313,1778427322670,0.8391343285714286,-0.9827315571428572,-0.1710639885714286,0.37293324,0.08093964,7.315722
314,1778427322680,0.92792,-0.9372295,-0.21023584,0.38642318,0.1165734466666666,7.357209999999999
315,1778427322690,1.1550877333333334,-0.7621380000000001,-0.32662474,0.45229482,0.111482904,7.592698666666667
316,1778427322700,1.2436803,-0.6806291666666667,-0.3564130666666666,0.50831625,-0.033063082,7.762799
317,1778427322710,1.8435629333333337,-0.2563360933333333,-0.38992113,0.8035932266666667,-0.6247624366666666,8.083681666666665
318,1778427322720,2.538911314285714,0.2834050442857143,-0.3805448485714285,1.3606805342857144,-1.3804681514285717,8.001505857142858
319,1778427322730,3.0138342,0.7702279,-0.43398872,1.6594155,-1.5357152,7.795404
320,1778427322740,3.21656568,1.05572014,-0.597095798,1.72471694,-1.43480024,7.565718800000001
321,1778427322750,3.384852,1.4146760333333332,-0.8365731833333333,1.7241671,-1.0096838833333333,6.8446179166666665
322,1778427322760,3.2616537,1.8864515,-1.2041556,0.84574294,-0.094225965,5.747631
323,1778427322770,3.0588979500000004,2.050231333333333,-1.3169162666666665,0.357865224,0.237168425,5.443827266666666
324,1778427322780,2.8556848833333333,2.2046916333333333,-1.32874615,-0.0529162066666666,0.4889721666666666,5.213531066666667
325,1778427322790,2.713006671428571,2.309768785714286,-1.2437049571428571,-1.7021105528571427,1.2823588428571429,4.360923285714286
326,1778427322800,2.6111482166666664,2.3917145833333335,-1.1510631333333334,-2.471204466666667,1.6168330833333335,3.792785933333333
327,1778427322810,2.447128942857143,2.5654981428571433,-0.8491000499999999,-2.7916542428571427,1.7702656857142858,3.4674674285714286
328,1778427322820,2.4023150666666666,2.599064216666666,-0.7455821083333333,-3.2230778,1.9766836,2.7991372
329,1778427322830,2.3137934,2.6332633,-0.5272259,-3.3951381,2.0664553333333333,2.1608848666666667
330,1778427322840,2.1009356,2.6549110333333332,-0.0737034886666666,-3.1579187666666666,2.067880666666667,1.0100147733333331
331,1778427322850,1.922472757142857,2.6411731285714284,0.1430919738571428,-2.8347637857142858,1.9821268857142855,0.3809617601428571
332,1778427322860,1.7673185,2.5991558,0.2413352333333333,-2.065335433333334,1.6200146666666668,-0.6420193643333333
333,1778427322870,1.5531829857142856,2.478071457142857,0.3089553042857143,-1.1280499428571429,1.1062987857142856,-1.5859152085714283
334,1778427322880,1.4497100857142855,2.3498496,0.2806435471428571,-0.3914773657142857,0.73633258,-2.2196661
335,1778427322890,1.44892605,2.2439724,0.2163235999999999,-0.014049905,0.5689446,-2.5887705999999997
336,1778427322900,1.4877291,2.0970939666666664,0.1074249736666666,0.3618358566666666,0.42531492,-3.0369675333333332
337,1778427322910,1.584889166666667,1.8501690333333336,-0.0759190623333333,0.7250970233333334,0.30762156,-3.7931167333333335
338,1778427322920,1.6338758,1.6633897,-0.18427904,0.8895725,0.1919644,-4.371046
339,1778427322930,1.6338758,1.6633897,-0.1842790399999999,0.9189704,0.0488692175,-4.7629925
340,1778427322940,1.669365628571429,1.3039436714285717,-0.2917940171428571,0.9279479857142856,-0.2179261778571428,-5.465825571428572
341,1778427322950,1.703392,1.1897441666666666,-0.3055259466666666,0.81504697,-0.3361286,-5.8571286
342,1778427322960,1.81284965,1.02890145,-0.289894955,0.7061092950000001,-0.3657810166666666,-6.235865266666667
343,1778427322970,1.95038825,0.8232289833333334,-0.3053531883333333,0.5513059,-0.31490102,-6.617350599999999
344,1778427322980,1.9876595857142856,0.7147455728571429,-0.3017423542857143,0.4605923971428571,-0.2691515857142857,-6.772466628571428
345,1778427322990,2.02200825,0.5754095983333333,-0.2798537366666667,0.2947424675,-0.1781181308333333,-7.045363266666667
346,1778427323000,2.0711777999999996,0.3289826133333333,-0.19297874,0.032477669,-0.0044287729999999,-7.446701866666667
347,1778427323010,2.0648939714285715,0.20323486,-0.1340147857142857,-0.037895461,0.0376991127142857,-7.628267
348,1778427323020,2.0055742999999997,0.0644041658333333,-0.06741247,-0.1036943766666666,0.0692313933333333,-7.838012
349,1778427323030,1.92935035,-0.0026322663333333,-0.0130190526666666,-0.1234456866666666,0.0776562416666666,-7.903807333333333
350,1778427323040,1.7294303,-0.13299556,0.1129334199999999,-0.1417643671428571,0.1462367785714285,-7.978314714285714
351,1778427323050,1.6514684,-0.13235528,0.16726586,-0.054723344,0.2260710466666666,-7.841829733333333
352,1778427323060,1.4701975833333334,-0.1081872,0.2680949166666667,0.1175915613333333,0.2590577766666667,-7.5739144
353,1778427323070,1.4122978666666668,-0.0936436733333333,0.2818660533333333,0.3275001316666666,0.3039818133333333,-7.294265383333332
354,1778427323080,1.3028373571428573,-0.0925228214285714,0.2890848228571428,0.4886049314285713,0.3494585457142857,-7.114027457142858
355,1778427323090,1.09750305,-0.1176593049999999,0.269253515,0.6256787333333333,0.37051522,-6.930317066666667
356,1778427323100,0.9602999,-0.13994719,0.24568506,0.8142834,0.33475417,-6.5533624
357,1778427323110,0.81977952,-0.1709246059999999,0.222049532,0.8998961700000001,0.247522584,-5.8586255199999995
358,1778427323120,0.5743627785714286,-0.2378100414285714,0.1785121485714285,0.9271189428571428,0.1877319757142857,-5.346685214285714
359,1778427323130,0.4665516,-0.320189412,0.1440084028,0.93584555,0.15347989,-5.044525
360,1778427323140,0.3369621714285714,-0.5301528771428572,0.0537313574285714,0.8005607571428571,0.0182386906857142,-3.676317742857143
361,1778427323150,0.2598728966666667,-0.6369680666666667,0.0147569586666666,0.6664031133333334,0.0040215294666666,-3.1805208
362,1778427323160,0.1062866934999999,-0.7614774,-0.0125312185,0.354530915,0.024052818,-2.2841779
363,1778427323170,-0.0599018709999999,-0.8262271333333334,0.014980549,0.08633562,0.0714712333333333,-1.5362752000000002
364,1778427323180,-0.1460654375,-0.8461063333333333,0.0479296274999999,0.027947085,0.086132,-1.3631458
365,1778427323190,-0.4644173342857143,-0.9000699371428571,0.2422702385714285,-0.1543089228571428,0.2160281342857142,0.4567963128571429
366,1778427323200,-0.5430804699999999,-0.90990068,0.29584043,0.0923933699999999,0.23716843,1.7241671
367,1778427323210,-0.63595176,-0.95231164,0.35465485,0.37094793,0.20754147,2.5028677
368,1778427323220,-0.6392794685714286,-0.9638454085714284,0.3493061071428571,0.5433864671428571,0.2065815328571428,2.9434759857142856
369,1778427323230,-0.61064537,-1.0272956533333335,0.3007899166666666,0.8110254133333333,0.2272927733333333,3.6478327
370,1778427323240,-0.4360823633333333,-1.1552706333333334,0.1493989566666666,1.20493165,0.27618745,4.81850505
371,1778427323250,-0.307517945,-1.20458245,0.056619155,1.3752104,0.263588355,5.61912035
372,1778427323260,-0.0475230946666666,-1.2675333333333334,-0.0995586533333333,1.4100297,0.210748515,6.3068783
373,1778427323270,0.1422295537142857,-1.3152597,-0.2031913014285714,1.3356786142857142,0.1474148814285714,6.847493871428571
374,1778427323280,0.30196884,-1.34172465,-0.282425015,1.17553375,0.151036435,7.2215724
375,1778427323290,0.56964706,-1.3856703333333331,-0.3992509466666667,0.7312057,0.30192015,7.9151335
376,1778427323300,0.7738459733333333,-1.4128263,-0.4737065099999999,0.58329995,0.35308011,8.05257825
377,1778427323310,1.0105874533333334,-1.4225016666666666,-0.52194101,0.1745547433333333,0.4616613966666666,8.370126333333333
378,1778427323320,1.3116416333333334,-1.4048177666666666,-0.5172049666666666,-0.0398080533333333,0.49291734,8.506654666666668
379,1778427323330,1.47668175,-1.3699986666666666,-0.5016146333333333,-0.26134851,0.4440481266666666,8.614472000000001
380,1778427323340,2.1536622,-0.983472,-0.42154896,-0.1226312,0.25411993,8.588155
381,1778427323350,2.2995329857142854,-0.8020154,-0.4263837528571428,0.06904959,0.0895135712857142,8.589572857142857
382,1778427323360,2.596477825,-0.4856228425,-0.4652253125,0.47968194,-0.2846632,8.611367
383,1778427323370,2.918140771428571,-0.2146466699999999,-0.5542832271428572,0.6774495757142857,-0.4517784857142857,8.551480571428572
384,1778427323380,3.3784897,0.19934091,-0.76675206,0.8746444824999999,-0.64347017,8.217932000000001
385,1778427323390,3.4721437,0.428165235,-0.7721893433333333,0.84795735,-0.7307730100000001,7.7848665
386,1778427323400,3.4500794,0.8646846,-0.7871191,0.68279463,-0.5645922,7.309003
387,1778427323410,3.4369994,1.089194625,-0.799513075,0.68279463,-0.5645922,7.309003
388,1778427323420,3.4326394,1.1640313,-0.8036444000000001,0.2435607,0.0046251285714285,6.721306785714286
389,1778427323430,3.275313,1.500865,-0.7018092575,0.0842994,0.21853705,6.52343
390,1778427323440,3.2437868,1.5528955,-0.6771127,-0.2511674333333333,0.6144540916666666,6.099642083333333
391,1778427323450,3.2202923857142856,1.583811957142857,-0.6629481142857143,-0.4277584,0.81581056,5.8789673
392,1778427323460,3.1889665,1.6250339,-0.644062,-0.4277583999999999,0.81581056,5.8789673
393,1778427323470,3.1889665,1.6250339,-0.644062,-0.6624324666666667,1.0508918533333331,5.558975566666667
394,1778427323480,3.104554042857143,1.9451745285714288,-0.5743366599999999,-0.7797694999999999,1.1684325,5.3989797
395,1778427323490,3.06619106,2.2205442599999996,-0.541836514,-0.7797695,1.1684325,5.3989797
396,1778427323500,3.0601175,2.2760475,-0.5366167,-1.0458886142857142,1.4192362714285716,4.937296242857143
397,1778427323510,3.0623839166666667,2.3307458,-0.5000596833333333,-1.0902418,1.4610369,4.860349
398,1778427323520,3.072252485714286,2.610666214285714,-0.3093821542857143,-1.2182180571428574,1.5865697285714286,4.409530514285715
399,1778427323530,2.9310770142857145,2.6776126428571425,-0.2370347314285714,-1.5035139,1.9703676857142856,2.6004314857142856
400,1778427323540,2.2963657399999997,2.6845224799999996,-0.182181364,-1.21882888,1.92199582,0.0364075919999999
401,1778427323550,1.5017338857142857,2.445839557142857,-0.2312068657142857,-0.8639379914285714,1.4631095485714287,-1.360222357142857
402,1778427323560,1.35401808,2.07834078,-0.2625885,-0.49510632,0.903714048,-2.49788902
403,1778427323570,1.4035227571428572,1.9859259285714284,-0.2610605371428571,-0.3183917014285714,0.7055057228571427,-3.0153616857142858
404,1778427323580,1.52693054,1.7965561,-0.26006396,-0.0759305515999999,0.4098294839999999,-3.74820812
405,1778427323590,1.58234842,1.7169051199999998,-0.277443018,-0.0167682516,0.3243083519999999,-3.9628968
406,1778427323600,1.6355833,1.6407665000000002,-0.30312744,0.06582073,0.18417588,-4.354706
407,1778427323610,1.7143277,1.41666805,-0.35788673,-0.0292451725,0.1488220499999999,-5.0090953
408,1778427323620,1.7742092333333332,1.2032409666666666,-0.3691678866666667,-0.1691587666666666,0.14212798,-5.786624733333333
409,1778427323630,1.8847091857142857,0.8880483428571428,-0.2791974714285715,-0.25885415,0.1994475,-6.032905
410,1778427323640,1.94902836,0.7154807419999999,-0.207707244,-0.4092797,0.4314235699999999,-6.824433999999999
411,1778427323650,2.0211342333333335,0.4941548316666666,-0.0807465825,-0.32604933,0.46944994,-7.2865534
412,1778427323660,2.0526655,0.3836656775,-0.01282087005,-0.20295998,0.41386122,-7.528609
413,1778427323670,2.1615286,0.19135264,0.097444706,-0.0355829,0.32635477,-7.742259
414,1778427323680,2.251762375,0.12169918,0.1368219965,0.0870864775,0.3371212675,-7.9165845
415,1778427323690,2.2896354833333334,0.09158055,0.160334545,0.1401681216666666,0.3476077833333333,-7.988768333333333
416,1778427323700,2.346417366666667,0.0374208819333333,0.2467420299999999,0.2756020333333333,0.4307109,-8.078081666666666
417,1778427323710,2.3725773833333332,-0.0106815173666666,0.329155375,0.48655418,0.5549201666666667,-8.111170333333332
418,1778427323720,2.3596497857142857,-0.0100964077142857,0.3336344385714285,0.56703568,0.5863433571428571,-8.088444914285713
419,1778427323730,2.2048237,-0.025916148,0.32648247,1.1140655,0.65026605,-7.8551164
420,1778427323740,2.1575735857142857,-0.0422934114285714,0.3247750442857143,1.1691306428571429,0.6136577642857144,-7.816980857142857
421,1778427323750,1.8685758714285712,-0.1396858557142857,0.29576638,1.4937182714285715,0.3644029214285714,-7.386015371428571
422,1778427323760,1.72167352,-0.177888424,0.25901512,1.5716952000000002,0.29092456,-7.121619839999999
423,1778427323770,1.58210445,-0.227269355,0.176504208,1.6061683333333334,0.2119702313333333,-6.685462
424,1778427323780,1.43102248,-0.327409358,0.0751629244,1.52994252,0.0605367458,-5.7315347800000005
425,1778427323790,1.3884346,-0.36819223,0.05067369,1.4747814,0.022907447,-5.4918313
426,1778427323800,1.13777985,-0.5298785,0.0133239479999999,1.1333586,0.2585487133333333,-4.5808276
427,1778427323810,1.0002657,-0.62496332,-0.01557408,1.010340536,0.395687954,-4.256814439999999
428,1778427323820,0.75961756,-0.747507024,-0.0758458903999999,0.778731024,0.501703616,-3.746742
429,1778427323830,0.50899315,-0.85273266,-0.13281263,0.5169447,0.5720753,-3.196047
430,1778427323840,0.27050358,-0.9087725,-0.12372673,0.22495113,0.43111816,-2.6111436
431,1778427323850,0.27050358,-0.9087725,-0.12372673,0.22495113,0.43111816,-2.6111436
432,1778427323860,-0.28343117,-1.0631719,0.13427612,-0.44135013,-0.18829921,-0.29367346
433,1778427323870,-0.372613205,-1.08335595,0.22022626,-0.406072665,-0.1018617787499999,0.215177295
434,1778427323880,-0.54551965,-1.1382371,0.34837398,-0.19822577,0.19333886,1.4140003
435,1778427323890,-0.54551965,-1.1382371,0.34837398,-0.19822577,0.19333886,1.4140003
436,1778427323900,-0.6302197,-1.173483,0.33203158,0.09697486,0.43478334,2.3041837
437,1778427323910,-0.640113575,-1.185999,0.296267295,0.1739820624999999,0.4617377675,2.535739825
438,1778427323920,-0.66022146,-1.2379838,0.1509234392499999,0.5581781,0.52442783,3.7950003
439,1778427323930,-0.63150024,-1.2812942,0.036770437,0.66233065,0.2969568825,4.909256775
440,1778427323940,-0.54786731,-1.29733175,-0.0079272929999999,0.6794349,0.0421497,5.9234076
441,1778427323950,0.14317909,-1.3803854,-0.13610551,0.364992,-0.02275473,7.512879
442,1778427323960,0.286449645,-1.3798366,-0.158210455,0.364992,-0.02275473,7.512879
443,1778427323970,0.5495036,-1.3739622666666669,-0.1913526266666666,0.1715513199999999,0.54646987,8.230697
444,1778427323980,1.0414834666666666,-1.3113164000000002,-0.2498113133333333,0.13693562,0.9808968833333336,8.459465666666667
445,1778427323990,1.31952812,-1.21885164,-0.31351829,0.225195466,0.975918324,8.4534894
446,1778427324000,1.67738445,-1.015181135,-0.44179409,0.4405101999999999,0.6997461300000001,8.295474
447,1778427324010,1.9734079,-0.7249356175,-0.5898819799999999,0.5826127375,0.375338504,8.1481025
448,1778427324020,2.1485196666666666,-0.5021228233333334,-0.64583037,0.7541131566666667,-0.3595960226666666,7.9504619
449,1778427324030,2.4995665,0.0333556099999999,-0.714767335,0.881325825,-1.19553965,7.80090185
450,1778427324040,2.611006,0.24739249,-0.73053044,0.9184359,-1.4112514,7.768526
451,1778427324050,3.4688609000000006,1.1808616,-0.7086389,0.82818055,-1.1936307,7.06878
452,1778427324060,3.4846951333333336,1.2696676,-0.7156921666666666,0.7879652500000001,-1.03103872,6.773324666666667
453,1778427324070,3.4185530000000006,1.8366925,-0.77339876,0.7678576,-0.94974273,6.625597
454,1778427324080,3.4185530000000006,1.8366925,-0.77339876,0.5671629333333333,-0.5822054966666667,5.836053666666667
455,1778427324090,3.2501489333333335,1.9529595,-0.7791308066666667,0.3667482291666666,-0.3503566808333334,5.3406165833333334
456,1778427324100,2.764602383333333,2.2447955833333335,-0.7854625250000001,-0.2557234575,0.1906663125,4.2885031499999995
457,1778427324110,2.7348547,2.256656,-0.78443605,-0.41615194,0.3052799,4.1115813
458,1778427324120,2.46977824,2.4038964,-0.7017726559999999,-1.19210346,0.757503464,3.3233205999999997
459,1778427324130,2.289635666666667,2.4968326666666667,-0.55956516,-1.6540195000000002,1.0484738783333334,2.7480282500000004
460,1778427324140,2.2675104,2.5073414,-0.53698254,-1.7249308,1.094976,2.6554313
461,1778427324150,2.13100855,2.52398865,-0.31742706,-2.0495292500000004,1.50410295,1.6996562
462,1778427324160,2.0544085,2.5174639,-0.2154698933333333,-2.1201606,1.6610953000000002,1.2579242
463,1778427324170,1.8358998,2.4361177,-0.108847815,-2.002594483333333,1.82210925,0.3796781899999999
464,1778427324180,1.7163806,2.382517,-0.07677277,-1.83681066,1.9125886,-0.4186259559999999
465,1778427324190,1.636437,2.3419049,-0.049210187,-1.8188512,1.9141463,-0.4787656399999999
466,1778427324200,1.3127798666666666,2.1420558,0.024716889,-1.2202541666666666,1.7363844333333331,-1.682272
467,1778427324210,1.2276936,2.0612788,0.043539125,-0.89006122,1.62117526,-2.14392328
468,1778427324220,1.1905776,1.9982264,0.0456124149999999,-0.3557781,1.5311083,-2.8008679666666665
469,1778427324230,1.1720196,1.9667002,0.04664906,-0.0718988384,1.47847714,-3.1802255199999996
470,1778427324240,1.1720196,1.9667002,0.04664906,-0.017715093,1.4672983,-3.2545373
471,1778427324250,1.2274497,1.539785,-0.15232596,0.35476,1.2382239,-3.8261545
472,1778427324260,1.2428164,1.3965448,-0.24288003,0.52824575,1.0584768,-4.159534
473,1778427324270,1.4940303666666666,1.3511966333333334,-0.1927856449999999,0.7379252083333333,0.5695045950000001,-4.664592416666666
474,1778427324280,1.5885805000000002,1.17594666,-0.19236488,0.8390234440000001,0.296513998,-5.3778438
475,1778427324290,1.649806625,1.0784318000000002,-0.219296325,0.8524624700000001,0.284968645,-5.744653
476,1778427324300,1.7228444,0.9762155,-0.26708874,0.6036876,0.5175556,-6.429204
477,1778427324310,1.7656518,0.8473665,-0.30654228,0.6036876,0.5175556,-6.429204
478,1778427324320,1.849925,0.6354334,-0.283065305,0.41538838,0.6785186,-6.692334
479,1778427324330,1.8992572,0.561984,-0.26367393,0.21242839,0.81489426,-6.9750123
480,1778427324340,1.9345031,0.48752844,-0.22354963,0.21242839,0.81489426,-6.9750123
482,1778427324360,1.9575533,0.2918463,-0.06250364,0.040317107,0.4934264,-7.597331
484,1778427324380,1.9575533,0.2918463,-0.06250364,0.040317107,0.4934264,-7.597331
485,1778427324390,1.8841343,0.26647896,0.083480485,-0.07223482,0.61010164,-7.4779067
486,1778427324400,1.7588221,0.26007617,0.16738781,-0.02321288,0.7771733,-7.297396
488,1778427324420,1.6311927,0.26245433,0.20385335,0.10476339,0.91919947,-6.873761
489,1778427324430,1.314223,0.11799469,0.26775953,0.17745635,0.95065904,-6.5903196
490,1778427324440,1.2445543,0.05722894925,0.273095205,0.27885997,0.9505063,-6.1796656
491,1778427324450,0.9120045,-0.35526463,0.16885132,0.47907108,0.8900307,-5.415626
492,1778427324460,0.9120045,-0.35526463,0.16885132,0.61941737,0.74097955,-4.7429104
493,1778427324470,0.6428423999999999,-0.62628655,0.054866006,0.6773731825,0.438601235,-4.05900875
494,1778427324480,0.6018644,-0.66113615,0.043783043,0.66614854,0.20357084,-3.59708
495,1778427324490,0.3897381933333333,-0.7829928666666667,0.0760003703333333,0.6254751,-0.0640390382,-2.9692631666666665
496,1778427324500,-0.056283772,-0.9342618,0.1387276,0.68111473,-0.26511553,-1.868484
497,1778427324510,-0.056283772,-0.9342618,0.1387276,0.68111473,-0.26511553,-1.868484
498,1778427324520,-0.3931022,-0.981947525,0.170863625,0.84039785,-0.312763005,-0.84345217
499,1778427324530,-0.4896627,-0.98920405,0.17842504,0.8950703,-0.32910365,-0.52381694
500,1778427324540,-0.6652827,-1.0044488,0.18677919,0.8950703,-0.32910365,-0.52381694
501,1778427324550,-0.6652827,-1.0044488,0.18677919,1.0302242,-0.36147952,0.18524489
502,1778427324560,-0.87855737,-1.1126869,0.093084697,1.60077235,-0.457690785,3.0174452
503,1778427324570,-0.7882777,-1.1830568,-0.004573438,1.8217529,-0.5907067,4.399146
504,1778427324580,-0.7882777,-1.1830568,-0.004573438,1.8217529,-0.5907067,4.399146
505,1778427324590,-0.572670605,-1.260774775,-0.1311661895,1.85214345,-0.6454555,4.8026225
506,1778427324600,-0.40313327,-1.2952585,-0.20982932,1.820073,-0.75808376,6.126826
507,1778427324610,0.029818815,-1.36242705,-0.35999051,1.1093313,-0.4569272,7.632303
508,1778427324620,0.4414891625,-1.36364665,-0.42694564,0.7240280475,-0.23483951,7.96927125
509,1778427324630,0.52496964,-1.3623356,-0.43313503,0.47769663,-0.0814487,8.160090333333335
510,1778427324640,0.7391895,-1.3377,-0.43514732,0.24190263,0.07727446,8.317083
511,1778427324650,1.1253704999999998,-1.2977891,-0.4235308,0.026954425,0.30421088,8.484613
512,1778427324660,1.2291571,-1.2778794,-0.4216709,-0.18799378,0.5311473,8.652143
513,1778427324670,1.7286373,-1.0288405,-0.4345985,-0.19868392,0.44929138,8.737969
514,1778427324680,1.9018487,-0.92987133,-0.43892802,-0.11629347,0.2470186285,8.689558
516,1778427324700,2.831019,-0.0470759199999999,-0.51246893,0.79939355,-1.654834,7.879932500000001
517,1778427324710,2.918707,0.05329579,-0.5029562,0.9233228,-1.8730656,7.794335
518,1778427324720,3.2752826500000003,0.583235265,-0.63671395,1.4011721499999998,-2.1610122,7.2112644
519,1778427324730,3.30940045,0.857732975,-0.71741989,1.30121935,-1.6890424,6.829168
520,1778427324740,3.1631114,1.2043995,-0.8202307,0.8266534,-0.6881397,6.3948426
521,1778427324750,3.1631114,1.2043995,-0.8202307,0.8266534,-0.6881397,6.3948426
522,1778427324760,3.1631114,1.2043995,-0.8202307,0.8266534,-0.6881397,6.3948426
523,1778427324770,3.0990832,1.6485108,-0.60674274,-0.79381937,0.83016586,5.860794
524,1778427324780,3.1303046,1.8137645,-0.4763083,-1.0206031,0.9795224,5.371491
525,1778427324790,3.06947795,1.90550765,-0.414170525,-1.0680215,1.02709355,5.04070735
526,1778427324800,2.9399481,2.0670108,-0.3018672166666666,-1.1007791666666666,1.0729339,4.348902366666667
527,1778427324810,2.9055965,2.1018908,-0.27678445,-1.0934488,1.0720685,4.1683917
528,1778427324820,2.7025967,2.2911704,-0.123299874,-0.90576047,1.0542006,3.2931745
529,1778427324830,2.183237,2.3833709,-0.18092519,-0.50533825,1.1230757,1.8527542
530,1778427324840,2.116434375,2.377364425,-0.19690173,-0.4745277375,1.103986175,1.6767486749999998
531,1778427324850,1.8334404,2.344527,-0.2564580533333333,-0.3722205466666666,1.0238101666666666,0.9833912466666668
532,1778427324860,1.3694701,2.1840909,-0.3690459,-0.4456262,0.96196,0.09162979
533,1778427324870,1.3694701,2.1840909,-0.3690459,-0.4456262,0.96196,0.09162979
534,1778427324880,1.1701902,2.061218,-0.38575423,-0.4456262,0.96196,0.09162979
535,1778427324890,1.1701902,2.061218,-0.38575423,-0.5735414000000001,1.0280251,-0.212856002
536,1778427324900,1.0209132,1.9256611,-0.36672872,-0.6588182,1.0720685,-0.41584653
537,1778427324910,1.0209132,1.9256611,-0.36672872,-0.6588182,1.0720685,-0.41584653
538,1778427324920,1.0209132,1.9256611,-0.36672872,-0.8904888,1.314582,-0.87598073
539,1778427324930,1.0209132,1.9256611,-0.36672872,-0.8904888,1.314582,-0.87598073
540,1778427324940,0.94255495,1.8083981,-0.368802,-0.96646515,1.4225523999999998,-1.059011215
541,1778427324950,0.8619405,1.7077217,-0.3699606,-1.1453724,1.6985108,-1.7292068
542,1778427324960,0.8619405,1.7077217,-0.3699606,-1.1453724,1.6985108,-1.7292068
543,1778427324970,0.8619405,1.7077217,-0.3699606,-1.1453724,1.6985108,-1.7292068
544,1778427324980,0.8619405,1.7077217,-0.3699606,-1.1453724,1.6985108,-1.7292068
545,1778427324990,0.7537329749999999,1.612273925,-0.349151475,-1.1614076,1.70576485,-1.96324455
546,1778427325000,0.7176638,1.580458,-0.3422151,-1.1774428,1.7130189,-2.1972823
547,1778427325010,0.6749174149999999,1.52944895,-0.306725225,-1.1774428,1.7130189,-2.1972823
548,1778427325020,0.63217103,1.4784399,-0.27123535,-1.1774428,1.7130189,-2.1972823
549,1778427325030,0.63217103,1.4784399,-0.27123535,-1.0824533,1.5221235,-2.6087
550,1778427325040,0.63217103,1.4784399,-0.27123535,-1.0824533,1.5221235,-2.6087
551,1778427325050,0.63217103,1.4784399,-0.27123535,-1.0824533,1.5221235,-2.6087
552,1778427325060,0.63217103,1.4784399,-0.27123535,-1.0824533,1.5221235,-2.6087
553,1778427325070,0.63217103,1.4784399,-0.27123535,-0.84406304,1.284955,-2.973692
554,1778427325080,0.624963296,1.4126922,-0.236769916,-0.84406304,1.284955,-2.973692
555,1778427325090,0.62015814,1.3688604,-0.21379296,-0.84406304,1.284955,-2.973692
556,1778427325100,0.62015814,1.3688604,-0.21379296,-0.6482043649999999,1.0649163333333334,-3.2083661666666665
557,1778427325110,0.627012204,1.2880752000000002,-0.28006512,-0.5308418859999999,0.94766584,-3.3705712399999994
558,1778427325120,0.6372933,1.1668974,-0.37947336,-0.41355577,0.8378017,-3.5434766
559,1778427325130,0.6372933,1.1668974,-0.37947336,-0.41355577,0.8378017,-3.5434765999999995
560,1778427325140,0.6372933,1.1668974,-0.37947336,-0.41355577,0.8378017,-3.5434765999999995
561,1778427325150,0.6372933,1.1668974,-0.37947336,-0.41355577,0.8378017,-3.5434766
562,1778427325160,0.7628290999999999,1.1488475333333332,-0.2644666466666667,-0.2926044566666666,0.4851288199999999,-3.815413533333333
563,1778427325170,0.825597,1.1398226,-0.20696329,-0.2321288,0.30879238,-3.951382
564,1778427325180,0.8596436866666667,1.1339483,-0.2038126999999999,-0.15714508,0.07315111,-4.0792055
565,1778427325190,0.92773706,1.1221997,-0.19751152,-0.15714508,0.07315111,-4.0792055
566,1778427325200,0.92773706,1.1221997,-0.19751152,-0.15714508,0.07315111,-4.0792055
567,1778427325210,1.056342104,1.04302433,-0.1678390599999999,-0.15714508,0.07315111,-4.0792055
568,1778427325220,1.1420788,0.99024075,-0.14805742,0.0289942828571428,-0.1958477557142857,-4.603327785714286
569,1778427325230,1.215756925,0.9133612875,-0.1221260275,0.06001751,-0.2406809,-4.6906815
570,1778427325240,1.2403163,0.8877348,-0.11348223,0.06001751,-0.2406809,-4.6906815
571,1778427325250,1.2403163,0.8877348,-0.11348223,0.09094256,-0.34261905,-5.07145425
572,1778427325260,1.2403163,0.8877348000000002,-0.1134822299999999,0.09712757,-0.36300668,-5.1476088
573,1778427325270,1.2403163,0.8877347999999999,-0.11348223,0.0956222257142857,-0.3444843671428571,-5.305866471428572
574,1778427325280,1.2403163,0.8877348,-0.11348223,0.0936151,-0.31978795,-5.5168767
575,1778427325290,1.5022827,0.7010775,-0.083602436,-0.29061913,0.38606682,-6.327953
576,1778427325300,1.5022827,0.7010775,-0.083602436,-0.29061913,0.38606682,-6.327953
577,1778427325310,1.5022827,0.7010775,-0.083602436,-0.29061913,0.38606682,-6.327953
580,1778427325340,0.4775126025,-0.4491573225,0.10800935,-0.2047544025,0.90904384,-2.1492911500000003
581,1778427325350,-0.5543616133333333,-1.045030516666667,0.0908081465,-0.5212716949999999,0.8620072166666667,1.8060231166666665
582,1778427325360,-0.222482485,-1.121742325,-0.09720079225,-0.139353635,0.1581759225,5.3383516
583,1778427325370,0.007890704,-1.1136016,-0.0922980652,-0.12003502,0.12385293,5.455485
584,1778427325380,0.43139711,-1.04670735,-0.347855685,0.260915815,0.21158845,6.4206518500000005
585,1778427325390,1.13032204,-0.848769044,-0.8541717759999999,0.6549697,-1.0938764200000002,7.232552800000001
586,1778427325400,1.3417449666666668,-0.6889629333333334,-0.8864135266666667,0.7117089,-1.5651386,7.501781466666667
587,1778427325410,2.03719205,-0.248855965,-0.93423135,0.8277987499999999,-2.515734,8.06128305
588,1778427325420,2.6267386,0.0746080099999999,-0.977679,0.8676577000000001,-2.95009735,8.3067745
590,1778427325440,3.4336658,0.6226176283333333,-1.0800934666666666,0.3257184383333333,-2.3895521,7.939645
591,1778427325450,3.6910691,0.8865761,-1.1349442,-0.6546438966666667,-1.3739377666666668,7.3553265
592,1778427325460,3.632153033333333,1.3505360333333334,-0.980148625,-1.7051285333333333,-0.4762967333333334,6.9295535
593,1778427325470,3.58116032,1.46553668,-0.8673310900000001,-2.1047973200000003,-0.1605964736,6.75397052
594,1778427325480,3.4361273599999995,1.7140757,-0.543934198,-3.0735686,0.6207918,5.9470787
595,1778427325490,3.3748309999999995,1.8054713,-0.41417053,-3.0735686,0.6207918,5.9470787
596,1778427325500,3.341336214285714,1.8271623,-0.37536163,-3.117529028571429,0.6634433000000001,5.856212271428572
597,1778427325510,2.848682416666667,2.0125157,0.0659692938333333,-3.2956943666666665,0.880434985,4.639699816666667
598,1778427325520,2.7116215,2.057315,0.181474,-3.314147633333333,1.0020735133333334,3.9515347333333337
599,1778427325530,2.0393264,2.0349357,0.4505140799999999,-3.3086905,1.319194,3.04678204
600,1778427325540,1.87523135,2.004888375,0.5051666699999999,-3.310240525,1.5267813,2.62660595
601,1778427325550,1.47139076,1.87457276,0.65290396,-3.2774143,1.98393764,1.91213038
602,1778427325560,1.3005434,1.8104714,0.7464866433333333,-3.2336153,2.1388174333333336,1.6729817333333334
603,1778427325570,1.080713466666667,1.7223768333333334,0.9129190866666668,-2.818277666666667,2.499711533333333,0.9999864
604,1778427325580,0.8041323,1.6330221,1.0905514,-2.5352433750000003,2.56044175,0.7598400200000001
605,1778427325590,0.8041323,1.6330221,1.0905514,-1.7716619333333334,2.5757133666666667,0.268068031
606,1778427325600,0.7227251,1.5860682,1.1059792,-1.2304354,2.5247061,-0.028710667
607,1778427325610,0.70494965,1.5057891,1.01661418,0.0685696299999999,2.19651865,-0.73196928
608,1778427325620,0.7226118285714286,1.477246514285714,0.95800888,0.5804965171428572,2.0465076285714288,-1.0463903571428572
609,1778427325630,0.83236563,1.3354439,0.7227251,1.55733986,1.68125392,-1.89762222
610,1778427325640,0.877904858,1.29644154,0.67289292,1.7652784,1.6006502399999998,-2.1373257600000004
611,1778427325650,1.0267673,1.16769,0.51972544,2.4161248,1.3660474,-3.1370986
612,1778427325660,1.0500409666666666,1.11118275,0.46448849,2.6193647166666665,1.2997430666666667,-3.5505779333333334
613,1778427325670,1.0546957,1.0998813,0.4534411,2.6600127,1.2864822,-3.6332738
614,1778427325680,1.0681720666666663,1.0714040333333334,0.4245776233333333,2.770884733333333,1.2029463666666669,-3.9134573666666665
615,1778427325690,1.19913092,0.97442274,0.30011507,2.9926288,1.0358747,-4.4738245
616,1778427325700,1.5138078,0.89584494,0.03585575,2.7974575,0.7452556,-5.539937
617,1778427325710,1.5138077999999997,0.89584494,0.03585575,2.7974575,0.7452556,-5.539936999999999
618,1778427325720,1.6345059333333334,0.91112019,-0.0245237893333333,2.547308,0.7151705,-5.7596955
619,1778427325730,2.0765235,0.9431343,-0.0250624385,1.548887,0.9102274025,-6.1695099
620,1778427325740,2.1411614,0.9478602,-0.004695396,1.21608,0.97524637,-6.3061147
621,1778427325750,2.3864439600000003,0.91761452,0.2731744807999999,0.618898112,1.380738714,-6.69621334
622,1778427325760,2.4536644,0.90393995,0.3714698549999999,0.45074218,1.51506035,-6.832947825
623,1778427325770,2.451449757142857,0.8434726142857143,0.53708709,0.4417428314285714,1.6516705571428572,-6.978524314285714
624,1778427325780,2.3887370666666663,0.7782771533333334,0.6660551233333334,0.72097373,1.6754507,-6.94004
625,1778427325790,2.29969526,0.7564099759999999,0.7196273759999999,0.756312274,1.66057612,-6.919209479999999
626,1778427325800,2.1202457,0.65546507,0.7732159,1.3852897,1.25319,-6.4061437
627,1778427325810,2.1202457,0.65546507,0.7732159,1.3852897,1.25319,-6.4061437
628,1778427325820,2.1296973,0.550276,0.673088,1.7684549,0.7780896,-5.871942
630,1778427325840,2.284691275,0.4040784575,0.4154358375,2.1227186,0.0119500499999999,-5.356180999999999
631,1778427325850,2.218239,0.24422157,0.2687352,2.1120665,-0.20570888,-5.392413
632,1778427325860,2.218239,0.24422157,0.2687352,2.1120665,-0.20570888,-5.392413
633,1778427325870,1.97368215,0.064698902,0.230501255,2.0508273,-0.202120045,-5.41562575
635,1778427325890,1.0338409,-0.6041206,0.068479605,2.0184515,-0.5047274,-4.902499
636,1778427325900,0.40118194,-0.9871918,-0.088846646,1.9321668,-1.0665708,-4.1563272
637,1778427325910,0.40118194,-0.9871918,-0.088846646,1.9321668,-1.0665708,-4.1563272
638,1778427325920,0.067219374,-1.0838030666666667,-0.064373676,1.61963285,-1.4643203500000002,-3.17894265
639,1778427325930,-0.14391084,-1.1316514,0.010000584,1.3206906,-1.3941472,-2.220037
640,1778427325940,-0.14391084,-1.1316514,0.010000584,1.3206906,-1.3941472,-2.220037
642,1778427325960,-0.3403857066666667,-1.1679340333333332,0.0755328613333333,1.0066550333333333,-0.36438113,-0.7975864
643,1778427325970,-0.5848512,-1.1641533,0.035367917,0.9615019,0.29779682,0.24801129
644,1778427325980,-0.72424954,-1.2072046,-0.039941356,0.99005985,0.43203443,1.0349585
645,1778427325990,-0.7878508600000002,-1.2300718,-0.084212236,1.0036516,0.35140023,1.5790867000000002
646,1778427326000,-0.78785086,-1.2300718,-0.084212236,1.0581713,-0.11575896,2.9471195
647,1778427326010,-0.7847104300000001,-1.2525731,-0.103542628,1.0581713,-0.11575896,2.9471195
648,1778427326020,-0.576631208,-1.32154056,-0.13867882,1.14604428,-0.3091589059999999,4.07569304
649,1778427326030,-0.37904653,-1.3608111,-0.17025384,1.1969905,-0.33857206,4.9695415
650,1778427326040,-0.37904653,-1.3608111,-0.17025384,1.1969905,-0.33857206,4.9695415
651,1778427326050,0.1500697213333333,-1.4133549,-0.39504337,1.0670288666666667,0.251625581,6.484792666666666
652,1778427326060,0.21135378,-1.4225221,-0.43722063,1.0207558,0.34681875,6.67523
653,1778427326070,0.6921136,-1.4424622000000002,-0.65235513,0.5910121,0.3846924,7.7095776
654,1778427326080,1.0814656,-1.3612989,-0.76791066,0.45555276,-0.15271631,8.40688
655,1778427326090,1.2912949,-1.2981855,-0.8326705,0.41447207,-0.4447099,8.806233
656,1778427326100,1.6050529666666666,-1.1642346333333335,-0.8836491,0.3538946033333334,-0.7928012600000001,9.423410333333337
657,1778427326110,1.9383448,-1.0283527233333334,-0.9208057433333332,0.2996294033333333,-1.031445926666667,9.877639666666669
658,1778427326120,2.8274211333333334,-0.6288984833333333,-0.9051544766666666,0.1114829033333333,-1.2538009,10.510802333333332
659,1778427326130,4.0130997,-0.08159013,-0.84078074,-0.18646662,-1.012051,10.379059
660,1778427326140,4.261468,0.2374529,-0.8192551,-0.41630468,-0.61651576,9.848675
661,1778427326150,4.235186,0.65509915,-0.7274814,-0.41630468,-0.61651576,9.848675
662,1778427326160,4.235186,0.65509915,-0.7274814,-0.8732319,-0.008093964,9.239642
663,1778427326170,4.1951227,0.85712314,-0.6685756,-1.0306823,0.19364429,9.08998
664,1778427326180,4.1435957,1.5751529,-0.2836141,-1.4257594,0.63087106,8.646339
665,1778427326190,4.10069685,1.67744545,-0.222269065,-1.5867225,0.87567533,7.8297653
666,1778427326200,3.9533406,1.8909945,-0.07942536915,-1.5801557000000002,0.99525218,7.1284156
667,1778427326210,3.8488832,2.002251,0.0020732917,-1.557401,1.0537425,6.7211976
668,1778427326220,3.8488832,2.002251,0.0020732917,-1.557401,1.0537425,6.7211976
670,1778427326240,3.1748195,2.4098969,0.2906267,-1.3536774,1.2605205,5.086064
671,1778427326250,2.3569667,2.5292938,0.35849655,-0.71837753,1.7321084,1.9109392
672,1778427326260,2.3569667,2.5292938,0.35849655,-0.71837753,1.7321084,1.9109392
673,1778427326270,1.9101114,2.4889257,0.30245668,-0.5495343540000001,1.74041624,1.2790601599999998
674,1778427326280,1.5353091,2.4008839799999997,0.23572107,-0.50732356,1.7424931999999995,1.1210904
675,1778427326290,1.2048874,2.3159888,0.1741565,-0.440769798,1.7081014799999998,0.867856222
676,1778427326300,0.89403992,2.1742732,0.1083965688,-0.0575129607999999,1.5031867,-0.698127376
677,1778427326310,0.6675389300000001,1.96038875,-0.021373199,0.089491755,1.4411838,-1.4185818
678,1778427326320,0.6630061333333334,1.8512868666666664,-0.068316996,0.12059498,1.4130330999999998,-1.7481436333333331
679,1778427326330,0.70385816,1.69945274,-0.1056281148,0.18280143,1.3567317,-2.4072673
680,1778427326340,0.7148588,1.6725975,-0.110311314,0.191200825,1.32221785,-2.51287055
681,1778427326350,0.8410857,1.4239246,-0.06286953,0.28069258,0.96974856,-3.3363934
682,1778427326360,0.8410857000000002,1.4239246,-0.06286953,0.32126421,0.9028079066666668,-3.505704833333333
683,1778427326370,1.0838234,1.0636596333333337,0.0342906193333333,0.5571854399999999,0.633161815,-4.4986407
684,1778427326380,1.1691536,0.9697517,0.05067369,0.60994893,0.6038403,-4.7522264
685,1778427326390,1.2551341833333332,0.8071405933333332,0.0848728396666666,0.7285586266666666,0.57014088,-5.310048066666667
686,1778427326400,1.4227781199999998,0.645854746,0.155143202,0.863458052,0.430110204,-5.7486086
687,1778427326410,1.4474015,0.635159,0.16372907,0.950567444,0.28472429,-5.99368774
688,1778427326420,1.59861975,0.6242539166666666,0.1865962533333333,1.0149527,0.13713925,-6.2387667
689,1778427326430,1.7315035,0.6313173,0.20001167,1.0122037,0.056963183,-6.4487514
690,1778427326440,1.77775625,0.6491537000000001,0.212085545,0.953217025,0.07967973575,-6.541373925
691,1778427326450,2.213961942857143,0.7431444142857143,0.3979500685714286,0.8115999285714286,0.2696970142857143,-6.742490457142857
692,1778427326460,2.3333068999999997,0.75040965,0.4894188,0.8542187,0.51915911,-6.8320696000000005
693,1778427326470,2.3570888,0.7429092,0.5311895,0.9071349,0.624457,-6.8708596
694,1778427326480,2.3411124,0.70857793,0.5992423,1.1772901,0.787558,-6.867958
695,1778427326490,2.2842185,0.6789421,0.6258292,1.4995215,0.77579886,-6.764111
696,1778427326500,2.22154412,0.69507715,0.60544996,1.75874214,0.6264423,-6.57755258
697,1778427326510,2.1690137000000003,0.7142184874999999,0.5792411000000001,2.131117975,0.2168189824999999,-6.130910825
698,1778427326520,2.392792,0.60668175,0.3976756399999999,2.4512496,-0.37858373,-5.533981
699,1778427326530,2.458497,0.5371655,0.3743511,2.6900978,-0.7171558,-5.258023
700,1778427326540,2.444913975,0.4687925899999999,0.3200186775,2.7942122,-0.816115975,-5.180824749999999
701,1778427326550,2.3129703,0.27285128,0.136395155,2.8974103,-0.9443977,-5.039294775
702,1778427326560,2.096692475,0.063418335,-0.01304954275,2.8057804500000003,-0.928324295,-4.9616766
703,1778427326570,1.5220705499999998,-0.3366354849999999,-0.2519049499999999,2.3013585,-0.710741695,-4.7933831499999995
704,1778427326580,1.3341632,-0.42429304,-0.3088595,1.99969802,-0.607810892,-4.67027848
705,1778427326590,1.26420485,-0.45751144,-0.32559828,1.6326901,-0.5271767,-4.4952044
706,1778427326600,0.8494398,-0.6565627066666667,-0.3865062733333333,1.40443011,-0.4996368666666667,-4.3725222666666665
707,1778427326610,0.67833225,-0.7238227300000001,-0.3787110999999999,0.774042615,-0.4256967299999999,-4.010062875
708,1778427326620,0.4221384333333333,-0.7905948833333333,-0.3135142333333333,0.149407465,-0.35811975,-3.571347383333333
709,1778427326630,0.2263546733333333,-0.8647862166666666,-0.1722051666666666,-0.8484918499999999,-0.16371189,-2.6184738
710,1778427326640,0.1189601933333333,-0.9236717,-0.047797505,-1.02757715,-0.052941656,-2.361197733333333
711,1778427326650,0.10701844,-0.9308469,-0.031892106,-1.1171198,0.002443461,-2.2325597
712,1778427326660,0.033014122,-0.95639722,0.0613206505999999,-1.294118,0.27183503,-1.7650951
713,1778427326670,-0.0592514249999999,-0.9778822583333334,0.1585966516666666,-1.1198941666666666,0.7652359716666667,-0.93648185
714,1778427326680,-0.1835473,-0.9825573,0.2292816599999999,-0.8919141733333333,0.9989173866666669,-0.3955861466666666
715,1778427326690,-0.2633283583333333,-0.9947531333333334,0.2358369183333333,-0.79534656,1.066418,-0.2079996199999999
716,1778427326700,-0.3869026466666667,-1.0183419666666669,0.2034976433333333,-0.6166684800000001,1.07721,0.1561778866666666
717,1778427326710,-0.5457391460000001,-1.0630742,0.0856025586,-0.06206391,0.490860756,2.06389984
718,1778427326720,-0.4385708928571428,-1.1282190571428572,0.0357163684285714,0.1442078242857143,0.1312923907142857,3.6742453
719,1778427326730,-0.3625333599999999,-1.14770106,0.0344776198,0.18387043,0.106901415,3.9946005
720,1778427326740,-0.2172078,-1.1894597,0.019696271,0.22831088,0.17368935,4.225813
721,1778427326750,-0.0643678687142857,-1.216525685714286,-0.0840554271428571,0.4165664685714286,0.5651376228571429,5.186987814285715
722,1778427326760,0.026891813,-1.2347672,-0.1627534,0.5326745,0.9560041,5.8694987
723,1778427326770,0.2609705083333333,-1.3198940666666663,-0.4214270333333332,0.4848742799999999,1.2800682,6.6459084
724,1778427326780,0.5773856142857143,-1.364243371428571,-0.6830886585714285,0.22259493,1.2161891,7.337800428571429
725,1778427326790,1.0531102,-1.203058,-0.8657822599999999,-0.3305697239999999,0.92280358,8.496494
726,1778427326800,1.1586912571428571,-1.1405195285714285,-0.8383938928571428,-0.5010185771428571,0.7868162142857144,8.896205142857143
727,1778427326810,1.299466,-1.0571349,-0.80187607,-0.5777258,0.5844453,9.49926
728,1778427326820,2.027783885714286,-0.7260354057142857,-0.7091877128571429,-0.4186608528571428,0.3068070571428571,10.01288842857143
729,1778427326830,4.13207,0.2537953,-0.56728923,0.7087945925,-0.90148438,10.6941885
730,1778427326840,4.4587232,0.58370476,-0.6941014919999999,1.318919184,-1.45459228,9.8827
731,1778427326850,4.6764920000000005,0.8036444000000001,-0.778643,1.6691893285714283,-1.7611680714285711,9.011462
732,1778427326860,4.676817333333333,0.9973956,-0.8770633999999999,1.7681495,-1.8365663,8.500342
733,1778427326870,4.3834265,1.33096175,-1.0075893,1.6067283,-1.57259615,7.760049850000001
734,1778427326880,3.85633488,1.6781100800000002,-1.10368636,0.969198784,-0.718072058,6.61053928
735,1778427326890,3.7006428,1.7517486000000002,-1.1135406,0.65179324,-0.32436943,6.337727
736,1778427326900,3.030542666666667,2.0788610666666667,-0.6773565833333334,-1.10576794,1.2363404,5.485264333333333
737,1778427326910,2.83950525,2.21612535,-0.2355523666666666,-1.4648294833333333,1.4216871,5.157993433333333
738,1778427326920,2.8266895,2.2312279,-0.17836407,-1.7579174,1.4784466,4.6395216
739,1778427326930,2.750556975,2.29391435,0.003292876,-1.782810225,1.5227725250000002,3.7191768
740,1778427326940,2.5778944,2.3344045,0.15726528,-1.73050485,1.6509779,2.42055365
741,1778427326950,1.920493175,2.24112165,0.1900720699999999,-1.65460485,1.890628,1.3578771
742,1778427326960,1.4213024,2.1121964,0.16226557,-1.68794276,2.22761182,0.291535436
743,1778427326970,1.2300819833333332,2.0265715666666666,0.16927817,-1.717193083333333,2.459369,-0.3755803008333333
744,1778427326980,0.75461715,1.861572,0.24141651,-1.6165022,2.6183212,-1.1691961
745,1778427326990,0.6884039916666667,1.8228503333333337,0.2737863016666667,-1.4640403666666666,2.5881596166666667,-1.422832433333333
746,1778427327000,0.595857945,1.7645237500000002,0.33062905,-1.3452779766666667,2.5340216666666664,-1.5482379666666668
747,1778427327010,0.52439034,1.67461,0.393010735,-0.90392786,2.2934935,-1.9216293
748,1778427327020,0.5754603749999999,1.58207405,0.37865014,0.2698242823333333,1.3293190833333333,-2.6427049166666667
749,1778427327030,0.6186946,1.5288696,0.35227665,0.8582657,0.821461,-3.013551
750,1778427327040,0.7517054249999999,1.4433464,0.3059477225,1.394185375,0.184366755,-3.48414625
751,1778427327050,1.0008510714285714,1.3234047142857144,0.2297694942857142,1.835410042857143,-0.38032907,-3.981205028571429
752,1778427327060,1.162141,1.244219,0.15141128,2.07533835,-0.790917785,-4.7043495
753,1778427327070,1.1871119666666667,1.22636225,0.1323044728333333,2.0864103,-0.8565858,-5.0066514
754,1778427327080,1.3837392,1.0650011,-0.050429773,1.9715676,-0.75945824,-5.343086
755,1778427327090,1.604179,0.9165169,-0.21644555,1.1742357,-0.172187643,-6.0007582
756,1778427327100,1.7548382,0.8804782166666666,-0.2064754566666666,0.9050731933333332,0.011759155,-6.1283018
757,1778427327110,1.9215654666666664,0.8638512083333333,-0.1394796805499999,0.5533421233333333,0.2522109866666667,-6.323982583333333
758,1778427327120,2.1738377285714288,0.8377318571428571,0.0457082404857142,0.2989312714285714,0.4541783128571429,-6.624527928571429
759,1778427327130,2.35608255,0.8444090750000001,0.170406275,0.38553233,0.35071301,-6.691952199999999
760,1778427327140,2.646516266666667,0.8364106233333333,0.3220106666666666,0.6243042799999999,0.16852245,-6.8352002
761,1778427327150,2.7210735571428573,0.8161974728571428,0.3489576628571429,0.8864745628571428,0.0741110457142857,-6.990807285714285
762,1778427327160,2.7148536400000003,0.67345395,0.365996972,1.22814458,0.101709058,-7.1492308
763,1778427327170,2.578957185714286,0.5763141428571429,0.31745755,1.4781411285714283,0.25230917,-7.132593571428572
764,1778427327180,2.2793783875,0.3809978499999999,0.154727020725,1.5332908375,0.38243982625,-6.830790625000001
765,1778427327190,2.072682,0.13360536,-0.0011586042,1.442660066666667,0.3945680466666667,-6.3013296
766,1778427327200,2.072682,0.13360536,-0.0011586042,1.34894315,0.35188384,-6.02552395
767,1778427327210,1.7437601833333334,-0.0626052818333333,-0.0097973194166666,0.982882185,0.21548272,-5.2665746
768,1778427327220,1.598081,-0.15421632,0.05689356,0.8012006899999999,0.2042835266666666,-4.8241045
769,1778427327230,1.598081,-0.15421632,0.05689356,0.77732605,0.2081523399999999,-4.74627
770,1778427327240,1.21941055,-0.4257057283333332,0.0821897525,0.6730462583333333,0.37209329,-3.914271733333333
771,1778427327250,0.9972228,-0.5668928299999999,0.069119886,0.6237443333333333,0.5261586166666666,-3.289611133333333
772,1778427327260,0.7255707733333333,-0.6940242266666666,0.0280097653333333,0.574060635,0.616515755,-2.8025734
773,1778427327270,0.5788345733333333,-0.7538447733333333,0.0054677991666666,0.51671566,0.61117068,-2.463925
774,1778427327280,0.3359952049999999,-0.8516960350000001,-0.01387276075,0.44806966,0.5291620199999999,-2.174324033333334
775,1778427327290,0.092413921,-0.947738235,-0.0059149792,0.313297505,0.26022859,-1.66445515
776,1778427327300,-0.1543644148571428,-1.0566034285714283,0.0344967871142857,0.2259983185714285,0.0640753962857142,-1.2854132285714286
777,1778427327310,-0.3677551999999999,-1.1683709833333331,0.1157689483333333,0.15317446,-0.1108720449999999,-0.33826664
778,1778427327320,-0.4515304133333333,-1.1998260666666667,0.1441954033333333,0.2123520266666666,-0.0585667075,0.1536071433333333
779,1778427327330,-0.6102591833333334,-1.2449913,0.1765143633333333,0.3655773899999999,0.0764854183333333,1.0644327333333334
780,1778427327340,-0.7024103285714285,-1.2725568,0.1354869988571428,0.4725697257142857,0.1172861271428571,1.7004306714285715
781,1778427327350,-0.7193103,-1.2861116,0.084578104,0.5316055,0.129198,2.0555615
782,1778427327360,-0.62393886,-1.2976977,-0.1235438,0.5271461580000001,0.0096211259999999,3.12084946
783,1778427327370,-0.5910914066666667,-1.2954618,-0.1393170766666666,0.4359032533333333,-0.0637845133333333,3.611842600000001
784,1778427327380,-0.5253965,-1.29099,-0.17086363,-0.030543262,-0.051618114,4.819116
785,1778427327390,-0.26684484,-1.3073933,-0.2013532,-0.030543262,-0.051618114,4.819116
786,1778427327400,0.0427725271428571,-1.2967132571428572,-0.2078518528571428,-0.3800890785714285,0.1691224,5.4837374
787,1778427327410,0.3199576866666667,-1.2773916666666667,-0.22789947,-0.5994115133333334,0.4453716766666667,5.946162266666666
788,1778427327420,0.4626896,-1.2546871,-0.25369365,-0.6476698666666667,0.51322862,6.140773766666666
789,1778427327430,0.8857834,-1.0931736,-0.37599754,-0.54061574,0.060322944,6.6086454
790,1778427327440,0.8857834,-1.0931736,-0.37599754,-0.4888012685714286,-0.2342013588571428,6.770961114285714
791,1778427327450,1.3151478666666667,-0.9043617333333334,-0.4993583933333334,-0.46807548,-0.35201108,6.8358874
792,1778427327460,1.94249138,-0.62828056,-0.6246339759999999,-0.647608784,-0.807350048,7.070581880000001
793,1778427327470,2.5042517666666666,-0.3374790366666667,-0.6732709666666666,-0.91690874,-1.4903585,7.422623599999999
794,1778427327480,3.06917898,0.0131105179999999,-0.651538016,-1.638462796,-1.05933196,7.395867839999999
795,1778427327490,3.4805079,0.3207678428571428,-0.5558947885714286,-3.003122642857143,0.18821195,7.1160346428571435
796,1778427327500,3.5882276,0.46588084,-0.47039329,-3.34199285,0.5753078083333333,6.93909815
797,1778427327510,3.6566768,0.89986956,-0.0121958339999999,-3.9823833,1.0567969,6.1016273
798,1778427327520,3.61152784,0.930883568,0.0455758327999999,-3.93412494,0.93306614,5.99976554
799,1778427327530,3.2337253,1.1505549,0.5099078,-3.2831461666666666,-0.1812742666666666,5.376276033333333
800,1778427327540,3.0984734333333335,1.2529186333333333,0.5818632333333333,-2.60671475,-0.9085347916666668,5.173570383333334
801,1778427327550,2.925231566666666,1.4414661666666666,0.6001163166666666,-1.7706438000000002,-1.43390432,5.021872166666667
802,1778427327560,2.8554307333333333,1.5867389333333335,0.5512923,-1.067487,-1.5896749666666663,4.778238766666667
803,1778427327570,2.8141884666666663,1.6723537333333336,0.5042570333333334,-0.83087855,-1.4401657,4.5657594999999995
804,1778427327580,2.627632933333333,1.8319564666666668,0.4196179799999999,-0.65087694,-0.92943145,4.0330087
805,1778427327590,2.542434933333334,1.8740422333333333,0.403367035,-0.6164648533333333,-0.5348634266666666,3.622481800000001
806,1778427327600,2.1440376833333334,1.9810099,0.3693711433333333,-0.6389141166666666,-0.1758782783333333,3.2240704
807,1778427327610,1.94349755,1.98892705,0.35764282,-0.7287621999999999,0.44211373,2.4868324
808,1778427327620,1.7001805,1.9712939333333337,0.3594315433333333,-0.7626906999999999,0.7177157766666666,2.050267366666666
809,1778427327630,1.3618782000000005,1.9274295,0.3807234449999999,-0.69058318,1.1548916333333334,1.2012155800000002
810,1778427327640,1.1185815,1.8945414,0.3518904466666666,-0.4506149266666666,1.3346896333333331,0.7111998533333334
811,1778427327650,0.93157873,1.8460529,0.23601986,-0.062460965,1.33298435,0.1881465
812,1778427327660,0.7334696239999999,1.7802990399999998,0.0562837706,0.324552704,1.14237906,-0.339854892
813,1778427327670,0.6619289,1.7297959,-0.090249166,0.65286225,0.7984009,-0.9083566
814,1778427327680,0.6488387000000001,1.6940214999999998,-0.1598873753333333,0.690557725,0.729373125,-0.9976193
815,1778427327690,0.6422936,1.6761343,-0.19470648,0.8790351,0.38423425,-1.4439328
816,1778427327700,0.65345275,1.6334491,-0.25538075,0.91422094,0.277088482,-1.57123712
817,1778427327710,0.6534527500000001,1.6334491,-0.25538075,0.9669997,0.11636983,-1.7621936
818,1778427327720,0.7745167433333333,1.5116939,-0.3479877833333333,0.7860308466666667,-0.2745330133333333,-2.7352000666666663
819,1778427327730,0.8893812,1.3453225,-0.3846566,0.55665094,-0.48472157,-3.4617734
820,1778427327740,0.8893812,1.3453225,-0.3846566,0.55665094,-0.48472157,-3.4617734
821,1778427327750,0.8893812,1.3453225,-0.3846566,0.55665094,-0.48472157,-3.4617734
822,1778427327760,1.27336695,1.088630625,-0.1672658575,-0.15286903125,-0.139926324,-4.54151575
823,1778427327770,1.3746534999999998,1.0381703,-0.09903017,-0.2600540628571429,-0.070445856,-5.218796142857142
824,1778427327780,1.5082893,0.9851794,-0.0199706775,-0.25900686,-0.07223482,-5.370727
825,1778427327790,1.6419251,0.9321885,0.0590888149999999,-0.25900686,-0.07223482,-5.370727
826,1778427327800,1.8194964,0.90352833,0.10866488,-0.198775556,-0.13747522,-5.6180053999999995
827,1778427327810,1.8194964,0.90352833,0.10866488,-0.18371773,-0.15378532,-5.679825
828,1778427327820,1.8194964,0.90352833,0.10866488,-0.18371773,-0.15378532,-5.679825
829,1778427327830,1.9393814285714288,0.8808440642857143,0.1236831742857142,-0.1673116328571428,-0.1589122257142857,-5.846591242857143
830,1778427327840,2.33531914,0.815071942,0.20280451,-0.178800258,0.0610865279999999,-6.594107220000001
831,1778427327850,2.523466114285714,0.6761979714285714,0.2974825071428571,-0.3577706857142857,0.9813332142857144,-6.662401642857143
832,1778427327860,2.4217876666666664,0.3987021133333333,0.4196789566666667,-0.33709581,1.6761124333333337,-6.433683333333334
833,1778427327870,2.256778,0.16513158,0.4908823,0.0812196166666666,1.376864766666667,-5.994446166666666
834,1778427327880,2.18713975,0.0443013625,0.4698445,0.427452935,1.01686152,-5.64027165
835,1778427327890,2.0985370249999997,-0.09463966875,0.4416264,0.6950119,0.71868294,-5.3675203
836,1778427327900,2.0416436,-0.14897211,0.4200855,0.78277289,0.6303620099999999,-5.274821433333333
837,1778427327910,1.91559962,-0.250246302,0.34383714,1.3212709740000002,0.1106582372,-4.734633140000001
838,1778427327920,1.7493501333333332,-0.3657835383333334,0.254283125,1.5284103333333334,-0.1190169135,-4.487390583333333
839,1778427327930,0.9406443416666668,-0.6207170666666667,-0.0526758374999999,1.65452855,-0.44631342,-4.0071233
840,1778427327940,0.87895375,-0.6388177,-0.07476046,1.6122261,-0.528093,-3.8534906
841,1778427327950,0.87895375,-0.6388177,-0.07476046,1.6122261,-0.528093,-3.8534906
842,1778427327960,0.87895375,-0.6388177,-0.07476046,1.6122261,-0.528093,-3.8534906
843,1778427327970,-0.1241622965714285,-1.0332223142857144,-0.1635199885714285,0.3191552892857143,-0.4754058542857143,-1.9485073285714285
844,1778427327980,-0.3489634433333333,-1.110816866666667,0.01705384,-0.35979962,0.14156802,-0.6565274
845,1778427327990,-0.4456357499999999,-1.14125565,0.141136275,-0.37224601,0.31520646,-0.3245221505
846,1778427328000,-0.4861869,-1.1502501,0.19970676,-0.3846924,0.4888448999999999,0.007483099
847,1778427328010,-0.5848206733333333,-1.1997752666666666,0.2811342983333333,-0.0261653899999999,0.7768678733333334,1.1090259
848,1778427328020,-0.6022546559999999,-1.20603374,0.154057774,0.11728613,0.7841983,1.4046847
849,1778427328030,-0.5972648328571429,-1.2068212571428572,0.0714153199999999,0.2057743257142857,0.6842781928571429,1.6052448428571429
850,1778427328040,-0.58722943,-1.2037898,-0.05110054,0.7367035,0.08475755,2.8086057
851,1778427328050,-0.5697283866666667,-1.2214331,-0.09096059,0.7367035,0.08475755,2.8086057
852,1778427328060,-0.48862605,-1.282879775,-0.218747515,0.66813385,-0.3814471725,3.855475975
853,1778427328070,-0.1187975766666666,-1.3581585,-0.271713005,0.272598607,-0.48792862,4.9735885
854,1778427328080,0.0298188166666666,-1.3753241,-0.28271975,0.0183005049999999,-0.3796018566666666,5.4803519666666665
855,1778427328090,0.4507318657142857,-1.3932171714285717,-0.3079709428571428,-0.4987714828571428,0.1128355314285714,6.183047085714286
856,1778427328100,0.6710553899999999,-1.3704864666666667,-0.3098758133333333,-0.58093286,0.1966986,6.2732806
857,1778427328110,1.1379525233333332,-1.2848716666666666,-0.29694822,-0.841925025,0.546800745,6.45822
858,1778427328120,1.4028460333333337,-1.1512459999999998,-0.34386153,-0.7283040833333333,0.2855540466666666,6.395708233333334
859,1778427328130,1.4856964,-1.0955517,-0.36977768,-0.6994407,0.22388211,6.3832364
860,1778427328140,1.55462728,-1.028157508,-0.427146876,-0.6009387,-0.42149702,6.509838
861,1778427328150,2.157382,-0.7497389,-0.41410953,-0.5821546,-1.8199203,7.374518
862,1778427328160,2.157382,-0.7497389,-0.41410953,-0.5821546,-1.8199203,7.374517999999999
863,1778427328170,3.12940224,-0.26541792,-0.227635228,-0.557658888,-1.68669064,7.694244899999999
864,1778427328180,3.3458965,-0.110067394,-0.218000525,-0.552947575,-1.550719675,7.675140075
865,1778427328190,3.4298952,-0.033111688,-0.22684251,-0.653014915,-1.146746785,7.31824215
866,1778427328200,3.79659345,0.5705820500000001,-0.2704731,-0.86048004,-0.871857405,6.80229
867,1778427328210,3.7764397,0.72309095,-0.23806266,-0.96959585,-0.78801614,6.545421
868,1778427328220,3.6699904666666665,0.954923605,-0.1355465233333333,-1.1747702416666668,-0.5469789216666666,6.133621566666666
869,1778427328230,3.5824041,1.1338466,-0.03945352,-1.2730432,-0.41722095,5.935624999999999
870,1778427328240,3.536791633333334,1.2596669333333332,0.0151025086666666,-1.3152946666666667,-0.3000366366666666,5.7666189999999995
871,1778427328250,3.4741051333333335,1.4987663,0.1053516676666666,-1.3277156,-0.0972293799999999,5.365076833333333
872,1778427328260,3.3029976,1.7862018,0.19470648,-1.28565752,0.302897528,4.42193136
873,1778427328270,3.2098562857142854,1.8457523142857144,0.2228962857142857,-1.2692252,0.377362,4.2158866
874,1778427328280,3.1400003,1.8904152000000003,0.24403864,-1.2692252,0.377362,4.2158866
875,1778427328290,2.9887211333333332,1.9794955333333333,0.2830653066666667,-1.2545899,0.4374813233333333,4.076329333333334
876,1778427328300,2.9584653,1.9973116,0.29087064,-1.1666763,0.79893537,3.2231541000000004
877,1778427328310,2.37453905,2.0696736,0.2842645566666666,-1.1519392,0.8597928,3.0677652
878,1778427328320,1.8743167000000005,2.0670210166666667,0.2169232266666666,-0.9184868,1.1127928666666669,1.9332866666666668
879,1778427328330,1.3909348,2.0153005,0.11811664,-0.63233716,1.15245834,0.7960796200000001
880,1778427328340,1.2812942,1.9763957,0.1056768899999999,-0.39568797,0.907593,-0.09773844
881,1778427328350,1.2812942,1.9763957,0.10567689,-0.17547104,0.838718,-0.73807794
882,1778427328360,1.0439024,1.8040078,-0.0023781876,0.0032070426,0.80939645,-1.2441798
883,1778427328370,1.0003633,1.7086973,-0.08848077,0.1126028233333333,0.6793839366666666,-1.73363555
884,1778427328380,0.9924156533333334,1.6809314333333336,-0.1067948466666666,0.16707164,0.49357912,-2.1528418
885,1778427328390,0.997558184,1.5762627,-0.14887454,0.1726610599999999,0.370153804,-2.39895946
886,1778427328400,1.0115834,1.5435047,-0.1525089,0.1623883483333333,0.1509346216666666,-3.0107512333333335
887,1778427328410,1.0581227,1.47278102,-0.129385596,0.15958855,0.123547494,-3.1002939
888,1778427328420,1.0891489,1.4256319,-0.11397006,0.15200364,0.1112283788333333,-3.2090533333333333
889,1778427328430,1.1194962000000002,1.3659739666666668,-0.0921801726666666,0.11407909,0.049632803,-3.7528505
890,1778427328440,1.2119,1.1264071,0.005061271,0.11407909,0.049632803,-3.7528505
891,1778427328450,1.2119,1.1264071,0.005061271,0.1120719614285714,0.0406007238571428,-3.8740200714285713
892,1778427328460,1.2286257142857142,1.0802372028571428,0.016455665,0.10705414,0.018020526,-4.176944
893,1778427328470,1.27044,0.96481246,0.04494165,0.11458814,0.0017307853333333,-4.480849333333333
894,1778427328480,1.27044,0.96481246,0.04494165,0.11835514,-0.006414085,-4.632802
895,1778427328490,1.27044,0.96481246,0.04494165,0.120085925,-0.0093666003333333,-4.673551783333333
896,1778427328500,1.2821276666666666,0.9500554916666668,0.0509176083333333,0.12873985,-0.024129177,-4.8773007
897,1778427328510,1.4398645,0.789521684,0.11899475,0.133626772,-0.0153021742,-4.97290116
898,1778427328520,1.5614325999999998,0.6874994600000001,0.1389918533333333,0.15317446,0.020005837,-5.355303
899,1778427328530,1.6721708,0.5991203,0.12805626,0.17638734,0.069027774,-5.872553
900,1778427328540,1.6721708,0.5991203,0.12805626,0.17638734,0.069027774,-5.872553
901,1778427328550,1.6721708,0.5991203,0.12805626,0.1386664,0.1525636,-6.222426
902,1778427328560,1.69482455,0.5561910000000001,0.122324218,0.1386664,0.1525636,-6.222426
903,1778427328570,1.78517726,0.39607188,0.146911012,0.1101389959999999,0.254578096,-6.390414
904,1778427328580,1.7882141,0.3544719,0.1539724,-0.12568553,0.8721629,-7.0153294
905,1778427328590,1.7907345666666667,0.31963248,0.1708433066666666,-0.12568553,0.8721628999999999,-7.0153294
906,1778427328600,2.127349725,0.3270465175,0.4947544725,0.17760907,1.37921915,-7.171901725
907,1778427328610,2.2749498,0.3418492,0.63241494,0.27870727,1.5482379,-7.2240925
908,1778427328620,2.2497452,0.375672315,0.4108268233333333,0.9198612283333332,1.0729339,-7.176622916666666
909,1778427328630,2.1968966,0.37770495,0.2681864,1.3764321,0.6914995,-7.112151
910,1778427328640,2.1968966,0.37770495,0.2681864,1.5079863142857144,0.2516764928571428,-6.272756928571428
911,1778427328650,1.9122458,0.229037745,0.0475027849999999,1.4118623,0.0025961779999999,-5.491755
912,1778427328660,1.3671529,-0.0609791699999999,-0.2341600199999999,1.1085677,-0.0155770639999999,-4.627304
913,1778427328670,1.3342749833333334,-0.0806449499999999,-0.2363857566666666,0.7469354999999999,0.3187952893333333,-3.9074504
914,1778427328680,1.1190287600000002,-0.2074003033333333,-0.2421177833333333,0.486299655,0.4294891666666667,-3.346523433333333
915,1778427328690,0.6315510933333334,-0.4971021783333333,-0.1734145916666666,0.2511165216666667,0.4217260833333333,-2.2971079333333333
916,1778427328700,0.5092167133333333,-0.5801151666666667,-0.1458418433333333,0.2201660133333333,0.44694974,-1.9922352
917,1778427328710,0.3670488575,-0.66218805,-0.08889238175,0.21303925,0.45738536,-1.8961257
918,1778427328720,0.05408852,-0.8281581000000001,0.053112853,0.2852958785714286,0.4478951342857143,-1.2988958571428573
919,1778427328730,0.0204280199999999,-0.8498144028571428,0.073601855,0.38163805,0.4352415,-0.5025894
920,1778427328740,-0.06372323,-0.90395516,0.12482436,0.5040656416666667,0.35353825,-0.1346703366666666
921,1778427328750,-0.1166879899999999,-0.9543762285714286,0.1575440399999999,0.52855116,0.3371976,-0.0610865239999999
922,1778427328760,-0.15641156,-0.99219203,0.1820838,0.7852673,0.1441642,0.6214027
923,1778427328770,-0.15641156,-0.99219203,0.1820838,0.8752172000000001,0.0912225446666666,0.8216137666666666
924,1778427328780,-0.21702486,-1.0500613,0.23909931,1.055117,-0.014660766,1.2220359
925,1778427328790,-0.223661425,-1.0551937,0.2433576916666666,1.055117,-0.014660766,1.2220359
926,1778427328800,-0.25684425,-1.0808557,0.2646496,1.185384,-0.012217305,1.4413365
927,1778427328810,-0.2904350614285714,-1.1212065,0.2630118685714285,1.4682146285714286,0.0581630991428571,1.899790842857143
928,1778427328820,-0.3252730416666666,-1.1561141833333333,0.2470164466666666,1.6716328,0.14874569,2.2186625
929,1778427328830,-0.3734974,-1.1793371,0.17318083,1.9415334,0.3239622033333333,2.6621508333333335
930,1778427328840,-0.3817194283333333,-1.1807497833333331,0.1510758825,2.0764837,0.41157046,2.8838950000000003
931,1778427328850,-0.42282957,-1.1878132,0.040551145,2.1742221666666666,0.44588072,3.185255
932,1778427328860,-0.4425054966666666,-1.2049686666666666,-0.039656785,2.2230914,0.46303585,3.3359350000000005
933,1778427328870,-0.45234346,-1.2135464,-0.07976075,2.2687535,0.36896262,3.908163
934,1778427328880,-0.4741739999999999,-1.2436092,-0.13220283,2.24253725,0.2433534366666666,4.337423416666667
935,1778427328890,-0.44560525,-1.2810504,-0.15946052,2.1599177333333333,0.0424042266666666,5.023654166666667
936,1778427328900,-0.4170365,-1.3184916,-0.18671821,2.1212296,-0.04550946,5.3238435
937,1778427328910,-0.1917533471428571,-1.3185699999999998,-0.20390562,2.0272436285714286,-0.1736602542857142,5.7831705
938,1778427328920,0.14891112,-1.3059299,-0.23964813,1.9226984,-0.212886535,6.06886985
939,1778427328930,0.338141688,-1.30175888,-0.265625256,1.7970434000000002,-0.171164444,6.306969759999999
940,1778427328940,0.4642953999999999,-1.2989782,-0.28294334,1.592169333333333,0.5172501533333334,6.411285333333333
941,1778427328950,1.2124488,-1.2465972,-0.4765522,1.5479325,1.8315268,6.411336000000001
942,1778427328960,1.5770838333333332,-1.11018678,-0.9245661233333332,1.5047647333333334,0.8261952666666668,6.675178866666667
943,1778427328970,2.490084233333333,-0.6437571058666666,-1.1718163333333331,0.6539312603333334,-1.022104825,7.134931600000001
944,1778427328980,3.2276099285714284,0.8548843885714286,-0.48426169,-0.7700829065714286,1.0144726214285715,5.763666328571428
945,1778427328990,3.015928133333334,1.3123327333333332,-0.2750160566666667,-0.7069747,1.0233519666666666,4.6674687
946,1778427329000,2.8950673166666667,1.5556801833333331,-0.1855596066666666,-0.5800674533333333,1.1903727666666668,3.87744175
947,1778427329010,2.5180128,1.763325857142857,-0.0776787488571428,-0.7079710114285714,2.048492885714286,2.151816514285714
948,1778427329020,2.15899176,1.7249908400000002,-0.0529543113999999,-0.70512176,2.61532792,0.652617912
949,1778427329030,1.9403266166666668,1.6704631833333332,-0.0696382143333333,-0.62964934,2.7137690000000005,0.03145956
950,1778427329040,1.7580380285714283,1.5866866428571431,-0.0964516257142857,-0.5102033828571428,2.6416650714285717,-0.5166829114285714
951,1778427329050,1.6429819333333333,1.5228937666666666,-0.1122829766666666,-0.43081272,2.5892542333333335,-0.8536332666666667
952,1778427329060,1.3997971333333332,1.3724378333333334,-0.1496022233333333,-0.28122709,2.4691173,-1.39628525
953,1778427329070,1.2796275333333331,1.2862132666666666,-0.1686683733333333,-0.1604539433333333,2.3737204999999997,-1.8408424333333333
954,1778427329080,1.1083921142857145,1.1441869285714286,-0.1847233214285714,-0.0408407045714285,2.334683357142857,-2.3689791857142857
955,1778427329090,1.0607935,1.0407925,-0.19141361,0.024281893,2.3751967,-2.7536278
956,1778427329100,1.0602447,1.00792472,-0.19765381,0.033750305,2.37985455,-2.8796188
957,1778427329110,1.1031566428571429,0.8935103542857143,-0.2086010214285714,0.0337066712857142,2.318800857142857,-3.2366042
958,1778427329120,1.18282305,0.78567595,-0.18751094,0.0108937631333333,2.1521292666666665,-3.612351666666666
959,1778427329130,1.2904412,0.6734539,-0.13080032,-0.0199622039428571,1.8783233714285712,-4.0055089285714285
960,1778427329140,1.373285685714286,0.5782218657142858,-0.04304258,-0.0574213331428571,1.6331263857142857,-4.416904714285715
961,1778427329150,1.3951249428571428,0.5521053628571428,-0.0124397485714285,-0.06872234,1.5694655,-4.534758
962,1778427329160,1.4922386714285716,0.4584413857142856,0.14726469,-0.0356701671428571,1.390416557142857,-4.936074842857143
963,1778427329170,1.6172692333333334,0.38896578,0.2918259566666666,0.06352998,1.2391402,-5.3357553
964,1778427329180,1.8543460666666665,0.3461177566666666,0.4873048549999999,0.30558533,1.1546372,-5.71665505
965,1778427329190,1.923317842857143,0.3370144428571428,0.5347176142857143,0.3539964,1.1377366,-5.792835000000001
966,1778427329200,2.2382665,0.2639788257142857,0.6785064714285713,0.6722353971428572,0.8643743142857143,-6.2094888571428575
967,1778427329210,2.4267879999999997,0.199401875,0.764831175,0.8846092200000001,0.644233775,-6.534807300000001
968,1778427329220,2.5254,0.1517335842857143,0.8383677071428571,1.0944305142857145,0.4246822514285714,-6.831851342857143
969,1778427329230,2.552910242857142,0.1043005062857142,0.8750510142857143,1.3889766857142856,0.1350884878571428,-7.0075625142857145
970,1778427329240,2.57252815,0.0309774169999999,0.9084066,1.679574,-0.105832405,-7.0415964
971,1778427329250,2.5250051333333334,0.0082728403333333,0.8878363133333332,1.679574,-0.105832405,-7.0415964
972,1778427329260,2.4072746,-0.0013821943333333,0.80411194,2.0345120833333334,-0.3142901508333333,-6.795595733333333
973,1778427329270,2.333611666666666,-0.048498764,0.6742060266666666,2.1183788000000003,-0.3746131,-6.671412066666666
974,1778427329280,2.311283116666667,-0.1373555749999999,0.5440155333333333,2.103158133333334,-0.4009821333333334,-6.415103333333334
975,1778427329290,2.2109651285714285,-0.3610924914285714,0.3091556742857143,1.9255563428571427,-0.3425426914285714,-6.0872285714285725
976,1778427329300,2.0318868,-0.460575655,0.19690174,1.8538233,-0.31505376,-6.0008349999999995
977,1778427329310,1.9028549,-0.51448125,0.1355567,1.67178545,-0.26702447,-5.8321598
978,1778427329320,1.9028549,-0.51448125,0.1355567,1.4897476,-0.21899518,-5.6634846
979,1778427329330,1.262848065,-0.7175875924999999,0.0729158425,0.856814875,-0.0289779175,-4.888067400000001
980,1778427329340,0.7740796883333334,-0.8691462266666666,0.0721383571666666,0.5811873833333333,0.0146353129166666,-4.3401974999999995
981,1778427329350,0.5665574271428572,-0.9188602485714288,0.0890992764285714,0.5662939,-0.0444840805714285,-4.072616714285714
982,1778427329360,0.2245252978333333,-0.9788579666666668,0.1241535833333333,0.6030767,-0.16890424,-3.563889666666667
983,1778427329370,-0.1509437688333333,-1.0002413,0.1839131733333333,0.6998224716666668,-0.2849431833333333,-3.038978333333333
984,1778427329380,-0.2805128785714286,-1.0286750142857142,0.2055346471428571,0.8587020071428572,-0.3941608114285714,-2.4932247714285714
985,1778427329390,-0.4666126,-1.1410218666666667,0.2186712966666666,1.1803443666666666,-0.5344052733333333,-1.5359188666666668
986,1778427329400,-0.583357215,-1.1863802,0.19092577,1.3781883124999998,-0.5689637,-0.9492655125
987,1778427329410,-0.7016262966666668,-1.2065541333333334,0.1314304266666666,1.6589063333333334,-0.5945755,-0.0479529199999999
988,1778427329420,-0.785808065,-1.19970415,-0.0029879749999999,1.8469511,-0.61979913,0.84681197
989,1778427329430,-0.8071609466666666,-1.185557,-0.1221412666666666,1.8394170666666667,-0.6526586066666668,1.5053755333333332
990,1778427329440,-0.7451305914285714,-1.172307042857143,-0.2610082571428571,1.7028304285714284,-0.7032150057142857,2.2700624
991,1778427329450,-0.5389339,-1.1979357,-0.3647774,1.3950852857142857,-0.7440338542857143,2.8871236857142857
992,1778427329460,-0.452922775,-1.1968686,-0.363039485,0.90262973,-0.7526623149999999,3.5475235
993,1778427329470,-0.302487155,-1.2093999,-0.349441125,0.66996646,-0.73624533,3.7927096
994,1778427329480,-0.23806266,-1.2229983,-0.33758068,0.47807841,-0.67653325,3.96741715
995,1778427329490,-0.059027832,-1.2930633,-0.28080907,-0.0478656571428571,-0.4043927985714285,4.542939542857143
996,1778427329500,0.112994405,-1.33337045,-0.265289865,-0.3849214649999999,-0.0303905475,5.336289699999999
997,1778427329510,0.253124535,-1.3737387,-0.3365745149999999,-0.284205055,-0.0280998025,5.7493872999999995
998,1778427329520,0.37191196,-1.3897558666666665,-0.4705355733333333,-0.18799378,-0.06963864,6.0208406
999,1778427329530,0.47582048,-1.393374,-0.62851226,-0.0180968833333333,-0.3483459066666667,6.396395599999999
1000,1778427329540,0.7660813,-1.4114848,-0.9325544,0.015882496,-0.40408736,6.4715066
