id,timestamp,acc_x,acc_y,acc_z,gyro_x,gyro_y,gyro_z
0,1778426778550,0.16726585,1.0990885,0.22665958,1.5387696,-0.47876564,-0.2180789
1,1778426778560,0.16846801,1.106057557142857,0.23148564,1.5885987428571426,-0.5399830571428571,-0.2057306942857142
2,1778426778570,0.1651315799999999,1.1223826,0.2352576233333333,1.7131716,-0.6930266,-0.17486018
3,1778426778580,0.15244792,1.1201874,0.21867129,1.8052595,-0.7860308000000001,-0.15867224
4,1778426778590,0.1427261028571428,1.113549342857143,0.1932168471428571,1.8441366714285712,-0.8132580285714285,-0.1429642828571428
5,1778426778600,0.1392357716666666,1.11174175,0.1916676883333333,1.8577684166666664,-0.81410525,-0.1295543373333333
6,1778426778610,0.17641273,1.0878073,0.2614177,1.9691241,-0.5833763,0.0032070426
7,1778426778620,0.1837563614285714,1.090290057142857,0.2885708457142857,2.0407262142857143,-0.4746641,-0.0071340339428571
8,1778426778630,0.19354787,1.0936004,0.32477504,2.289803033333333,-0.223576675,-0.0691550393333333
9,1778426778640,0.0734363407142857,1.0392679571428571,0.2298043442857142,2.5456718428571428,-0.0499818652857142,-0.1197732221428571
10,1778426778650,-0.035575246,0.997338712,0.153423586,2.63725788,0.0333532426,-0.081458878
11,1778426778660,-0.16616823,0.96426356,0.12512925,2.6580274,0.093462385,0.04352415
12,1778426778670,-0.1723576216666666,0.90165831,0.0882063651666666,2.6609289666666665,0.2884302008333333,0.4170427966666666
13,1778426778680,-0.162966825,0.88581385,0.055003209,2.7167467999999997,0.39874229,0.5792529750000001
14,1778426778690,-0.1621436,0.8943204000000001,0.037868064,2.7711902,0.42821655,0.59864795
15,1778426778700,-0.2332104771428571,0.90185576,-0.1182647414285714,2.9443268714285713,0.2744093957142857,0.5031784228571429
16,1778426778710,-0.2860184428571428,0.8850603428571429,-0.2378884471428571,3.030764357142857,0.0976293527042857,0.40101122
17,1778426778720,-0.3762008066666666,0.8430166666666666,-0.38819339,3.0107003333333338,-0.0289142891266666,0.3220278
18,1778426778730,-0.4477700333333334,0.7962964616666667,-0.4742146916666667,2.904435233333333,-0.0721330065,0.3009529566666667
19,1778426778740,-0.4975464285714285,0.73664576,-0.5338029857142856,2.7083801285714286,0.0330739908571428,0.3559817342857143
20,1778426778750,-0.5536603800000001,0.6511660499999999,-0.610157585,2.458834466666667,0.3447316333333334,0.4475606166666666
21,1778426778760,-0.57271636,0.6281464,-0.63387847,2.2919664,0.60048056,0.50793445
22,1778426778770,-0.5860011042857144,0.6156543771428572,-0.6512923728571429,2.197674942857143,0.7793549828571429,0.5345289085714285
23,1778426778780,-0.6272317466666667,0.6034904933333333,-0.7464256733333333,2.008423,1.1686615666666669,0.5765550083333334
24,1778426778790,-0.63387847,0.60515726,-0.76791066,1.9658662333333332,1.2122111333333334,0.5523749166666667
25,1778426778800,-0.6480866,0.59790075,-0.8517570500000001,1.9446131333333336,1.13221325,0.522722475
26,1778426778810,-0.6690459971428572,0.5595361071428572,-0.9070563842857144,1.9152153,1.0106765,0.5119051
27,1778426778820,-0.6875197666666667,0.4938499466666666,-0.9613365666666668,1.8448385333333333,0.9847148,0.5684355333333334
28,1778426778830,-0.6977236000000001,0.4409810166666667,-1.0100385666666665,1.7131207333333334,1.0563896666666668,0.6862561533333333
29,1778426778840,-0.6989431999999999,0.42045137,-1.0410973,1.6216946,1.1496484,0.77320266
30,1778426778850,-0.6989432,0.42045137,-1.0410973,1.6216946000000003,1.1496484,0.77320266
31,1778426778860,-0.7034759999999999,0.4211424666666666,-1.0532931333333333,1.5227853,1.1903218333333332,0.8986336733333333
32,1778426778870,-0.7125416000000001,0.4225246599999999,-1.0776848,1.3249667,1.2716687,1.1494957
33,1778426778880,-0.6145916057142857,0.4440590057142857,-0.9951102714285714,1.2206615142857142,0.9589929642857145,1.700976057142857
34,1778426778890,-0.4894449271428571,0.3947704142857143,-0.9692115971428572,1.3019938857142856,0.21615903,1.990744285714286
35,1778426778900,-0.40821489,0.3604275266666667,-0.9999770466666664,1.3349442333333332,0.1449277799999999,1.9992091333333335
36,1778426778910,-0.48228425,0.4026454399999999,-1.0218279,1.3721815166666664,0.1862629966666666,1.9996673
37,1778426778920,-0.5738923600000001,0.4435886,-0.8831612985714286,1.3711961428571426,-0.0305650828571428,2.4086197714285715
38,1778426778930,-0.61314553,0.46331972,-0.83065826,1.4727961333333333,-0.1500183233333333,2.7460937666666667
39,1778426778940,-0.4286225714285714,0.5307626985714285,-0.84296736,1.8084666,-0.0960585557142857,3.0892982142857144
40,1778426778950,-0.3258523466666667,0.55472752,-0.9177365266666668,1.9743674,-0.00422515,3.145497766666667
41,1778426778960,-0.19470648,0.5753385,-1.0166447,2.043955114285714,0.0704022228571428,3.089843657142857
42,1778426778970,-0.0423195443333333,0.61517819,-1.1589903333333331,1.7582229,0.056886825,2.7939448
43,1778426778980,0.0778094184999999,0.60412061,-1.2572075,1.2087496,-0.0140498999999999,2.4895049
44,1778426778990,0.1024551683333333,0.5643520083333334,-1.2472069666666667,0.8891144,-0.05497787,2.3687828
45,1778426779000,0.1060689092857143,0.4835473771428571,-1.1358154428571428,0.2505856514285714,-0.1766273228571428,2.3086343428571428
46,1778426779010,0.0498199769999999,0.24967921,-0.7324817499999999,-0.35740707,-0.3860159299999999,2.3916901
47,1778426779020,-0.037481861,0.09409086,-0.3287183666666666,-0.46690466,-0.5810855633333333,2.660470933333334
48,1778426779030,-0.0813157229999999,0.0114945725,-0.0597291,-0.4135557633333333,-0.8336783333333333,3.068834416666667
49,1778426779040,-0.0389134257142857,-0.0366659021428571,0.15833675,0.0400116714285714,-1.024791892857143,3.646451071428572
50,1778426779050,0.4710538933333334,-0.03025583,0.4444161916666667,1.3881149,-1.09810665,4.5456774
51,1778426779060,0.6610751366666667,-0.0048376806666666,0.38270528,2.079538,-1.0334313,4.7988048
52,1778426779070,0.9185640142857142,0.0344445174285714,0.2002991507142857,3.1107004,-0.7549857942857143,4.597350285714286
53,1778426779080,1.088783,0.1082990033333333,-0.1688513216666666,3.8829903333333338,-0.4632903833333333,4.0996694
54,1778426779090,1.0914661,0.11616532,-0.2181834699999999,4.06485,-0.4034765,3.875176399999999
55,1778426779100,0.870274375,0.1325178983333333,-0.7806045,3.980957966666667,-0.3878994199999999,2.922939233333333
56,1778426779110,0.6635927142857143,0.049602196,-1.0628058857142857,3.411573271428572,-0.2225294758571428,2.7171067285714288
57,1778426779120,0.6243657,0.016647313,-1.1200653,2.8199067,-0.0076358155,2.6914722999999996
58,1778426779130,0.64570841,-0.0192490913333333,-1.05715515,2.511725166666667,0.0644971896666666,2.7011952333333333
59,1778426779140,0.7003152583333333,-0.0929017633333333,-0.895956775,1.2124911166666668,0.3291291,2.7032822500000004
60,1778426779150,0.7929934333333334,-0.0941924833333333,-0.6743889766666666,0.833602,0.36293031,2.6450465
61,1778426779160,0.8591355000000002,-0.07817529,-0.58503413,0.8078693,0.35002577,2.6132815
62,1778426779170,0.9426856714285716,-0.0430512906857142,-0.57795182,1.2114548,0.0109519457142857,2.1788253571428573
63,1778426779180,1.045723057142857,0.0040159136714285,-0.6161770385714286,1.4680836428571429,-0.2784454614285714,1.8096228428571428
64,1778426779190,1.0345726,0.0043295207,-0.67973477,1.5931365,-0.45463645,1.5822937
65,1778426779200,0.8581801499999999,-0.0776569732166666,-0.850293495,1.5538375,-0.89583389,1.0763954333333334
66,1778426779210,0.8008394,-0.10585984,-0.8994427000000002,1.4987578,-0.9277516,1.0483974
67,1778426779220,0.7665516814285714,-0.15452993,-0.9085111771428572,1.3246612285714288,-0.8919723428571429,1.1168143714285714
68,1778426779230,0.795991575,-0.206048615,-0.878679305,0.8614217833333333,-0.7676540133333333,1.3640621
69,1778426779240,0.9732478666666666,-0.16962372,-0.80470143,0.6834818400000001,-0.7606036199999999,1.4469107
70,1778426779250,1.0880686857142856,-0.1375690014285714,-0.7727105914285713,0.6481280428571429,-0.8561931142857143,1.3936017857142855
71,1778426779260,1.2085462,-0.07768746,-0.7906559,0.7368344142857143,-1.008953057142857,1.1966849857142858
72,1778426779270,1.2173475333333337,-0.0752279666666666,-0.8188079533333333,0.88476195,-1.2053135,0.7213555
73,1778426779280,1.2349502,-0.07030898,-0.8751120599999999,0.91189455,-1.2749521,0.4654793433333333
74,1778426779290,1.19717345,-0.154795625,-1.01518115,0.7853181666666665,-1.2359331000000002,0.1362229456666666
75,1778426779300,1.10515595,-0.22839748,-1.1024728,0.42770748,-0.9286169666666668,-0.024180082
76,1778426779310,1.0476221,-0.25178298,-1.1352491,0.06963864,-0.5907067,-0.02977968
77,1778426779320,1.0212079616666665,-0.2327066633333333,-1.1306959833333334,-0.6490951966666666,-0.2166026366666666,0.1262963933333333
78,1778426779330,0.924535635,-0.1115308949999999,-1.0637205,-1.321861416666667,0.086284716,0.2942079766666667
79,1778426779340,1.0389935,-0.07454703,-0.9768862,-1.6319010166666663,0.0686205283333333,0.33414328
80,1778426779350,1.16268975,-0.060338883,-0.9062113750000002,-1.7493145,-0.1563305933333333,0.1291470933333333
81,1778426779360,1.1939111,-0.059149793,-0.8820636250000001,-1.6561575333333334,-0.3069088733333333,-0.14706581
82,1778426779370,1.129090266666667,-0.0526656766666666,-0.9005199999999999,-1.5366315333333336,-0.4026620066666666,-0.4052072799999999
83,1778426779380,1.0262794,-0.03603869,-0.9296274,-1.4682146000000005,-0.47403142,-0.5647449
84,1778426779390,1.0155645,-0.0553690828571428,-0.9312912428571428,-1.469763585714286,-0.5585490228571429,-0.6090544571428571
85,1778426779400,0.9103173333333334,-0.091184178,-0.883893,-1.5287666333333334,-0.2576578683333333,-0.5859724916666667
86,1778426779410,0.8371829999999999,-0.036343586,-0.8570622,-1.7009543,0.12629639,-0.52488595
87,1778426779420,0.80626655,-0.017440042,-0.82992643,-1.81645865,0.4212933833333334,-0.4644103116666667
88,1778426779430,0.8052909,-0.015854584,-0.7518731400000002,-1.799150866666667,0.5176573916666667,-0.461814125
89,1778426779440,0.8572364571428572,-0.016812828,-0.7013910657142857,-1.6204945857142856,0.4774130114285714,-0.4983787714285714
90,1778426779450,0.8429556666666667,-0.0472791826666666,-0.7015246866666667,-1.0408125866666669,0.3694207666666667,-0.6343836
91,1778426779460,0.785594612,-0.083456094,-0.7755696320000001,-0.729006572,0.271285262,-0.67726632
92,1778426779470,0.9427379142857144,-0.1687293628571428,-0.8873252571428571,-0.5593343971428572,0.1713913357142857,-0.8175340457142857
93,1778426779480,1.3592256,-0.36233822,-1.1273218,-0.51343226,0.10873401,-0.98639464
94,1778426779490,0.8856817133333333,-0.1269891216666666,-1.0693307,-0.7754679699999999,0.7271332483333334,-1.8019761066666664
95,1778426779500,0.3463209966666666,0.0654306483333333,-0.9121670666666668,-0.8106690799999999,0.7342600333333333,-1.6547321333333336
96,1778426779510,0.19354787,0.059576645,-0.8874907999999999,-0.7948884,0.6195701,-1.4718798
97,1778426779520,0.36605796,-0.03496139,-0.92285874,-0.7847073166666667,0.55978166,-1.3720796999999998
98,1778426779530,0.47848322,-0.0203263899999999,-0.89966634,-0.7279732166666667,0.2527964,-0.7387906483333334
99,1778426779540,0.60688906,0.106396454,-0.8341584599999999,-0.718499688,0.148684596,0.249691174
100,1778426779550,0.6895930566666667,0.1633428666666666,-0.8229952233333333,-0.73227471,0.123165705,0.43348524
101,1778426779560,0.7330305683333332,0.20441233,-0.8169379133333333,-0.7657959449999999,0.09254609,0.69524102
102,1778426779570,0.8846857833333334,0.2328083116666666,-0.8400693583333334,-0.8094473583333333,0.06632979,0.8414669166666666
103,1778426779580,1.0865269,0.19769447,-0.8856005,-0.904386,0.04062254,0.7864890000000001
104,1778426779590,1.26613085,0.1633733566666666,-0.8742786566666667,-0.9951758666666668,0.084783004,0.4293110066666666
105,1778426779600,1.3977645999999997,0.14031307,-0.8366952,-1.090139966666667,0.23146702,-0.26679539
106,1778426779610,1.319294483333333,0.1533117983333333,-0.7618025333333334,-1.0820969333333337,0.3590869533333333,-0.6926702666666666
107,1778426779620,1.0392475666666667,0.1485046066666666,-0.7164747166666667,-1.0383182,0.49296826,-1.0337367
108,1778426779630,0.8857834,0.1150676899999999,-0.7309573,-1.0130109285714286,0.6152721942857143,-0.9420632857142858
109,1778426779640,0.8555580333333334,0.11573846,-0.71827365,-1.0444268,0.7657196000000001,-0.7386887999999999
110,1778426779650,0.8580987999999999,0.1261659,-0.6958943,-1.145546857142857,0.945313957142857,-0.50967978
111,1778426779660,0.9306640466666668,0.139987845,-0.6448242083333333,-1.3400347333333331,1.2947797333333333,-0.1365792847333333
112,1778426779670,1.0892012142857144,0.1626837142857143,-0.5423399857142857,-1.459357,1.5147929999999998,-0.0010690142
113,1778426779680,1.1192727,0.16324124,-0.5253355,-1.4321735833333331,1.5500196,-0.0494800820833333
114,1778426779690,1.2476337,0.1762297899999999,-0.398072,-1.1733195,1.4321735999999998,-0.29077184
115,1778426779700,1.2376331333333332,0.16921719,-0.3784976866666666,-0.98545295,1.339729333333333,-0.3779983116666667
116,1778426779710,1.1354320285714288,0.1272112528571428,-0.3277630342857143,-0.4364632,1.0665708,-0.61162883
117,1778426779720,1.0124371142857145,0.0929758057142857,-0.3355335342857142,0.4484405414285714,0.6740243714285715,-0.60497478
118,1778426779730,0.8912512333333332,0.06656893,-0.3941490066666667,0.9069312583333332,0.7004588383333333,-0.4278601866666666
119,1778426779740,0.8403103714285713,0.0836111514285714,-0.4625095571428571,1.1484703142857142,0.9304350214285714,-0.1344994342857143
120,1778426779750,0.8407909383333333,0.1148441016666666,-0.5012182566666666,1.2394456,1.1490375,0.09621128
121,1778426779760,0.8792586300000002,0.13842271,-0.52088404,1.2481505,1.2927436,0.24984388
122,1778426779770,1.0447386900000002,0.2181311928571428,-0.6087985771428571,1.262025842857143,1.2961469714285714,0.3587524342857143
123,1778426779780,1.0802982571428572,0.2350224199999999,-0.6279373214285714,1.2643384,1.2967142,0.37690386
124,1778426779790,1.1350865166666668,0.2777397749999999,-0.802892375,1.3161600666666666,0.2007710333333333,-0.34142278
125,1778426779800,1.094053328571429,0.2735525371428571,-0.8611826514285715,1.234689557142857,-0.1523017942857143,-0.6088145042857143
126,1778426779810,0.9838379066666666,0.2568239166666666,-0.8875924833333334,1.076853616666667,-0.2958624,-0.720184675
127,1778426779820,0.87834394,0.2335502,-0.8777341,0.8014552,-0.2930626,-0.7292204
128,1778426779830,0.8346422133333333,0.23078582,-0.8470006,0.5400557766666667,-0.0322231333333333,-0.58357995
129,1778426779840,0.788064265,0.24001401,-0.772728,0.1004873306666666,0.4779511599999999,-0.3037018366666666
130,1778426779850,0.7940445828571429,0.2536210771428571,-0.7297987,0.047800206,0.54336464,-0.26435193
131,1778426779860,0.83724395,0.298736935,-0.64119595,0.0296269639999999,0.56673026,-0.21303925
132,1778426779870,0.8436468,0.30648127,-0.6246706,0.0716457657142857,0.5155921057142857,-0.2348995014285714
133,1778426779880,0.8436468,0.30648127,-0.6246706,0.1766927699999999,0.38774672,-0.28955013
134,1778426779890,0.8260543,0.29485458,-0.6378421,0.2589305083333333,0.28361964575,-0.3760893766666666
135,1778426779900,0.7380918,0.23672113,-0.7036996,0.5120578,-0.0076358154999999,-0.67363167
136,1778426779910,0.66719338,0.2307858166666666,-0.7014027133333333,0.42913285,-0.07971791,-0.61590487
137,1778426779920,0.6079623,0.2361723,-0.6808324,0.3593923966666666,-0.16361007,-0.5040147300000001
138,1778426779930,0.5773246285714286,0.2270080057142857,-0.6363350499999999,0.2961823828571429,-0.2528763914285714,-0.2369502642857142
139,1778426779940,0.5382631,0.215317445,-0.579271625,0.31910074,-0.30558532,-0.0058795765
140,1778426779950,0.52686,0.21861032,-0.57003325,0.34437528,-0.3391829,0.049785517
141,1778426779960,0.4848976171428571,0.2346217042857143,-0.5413905,0.5260204214285714,-0.5278093714285713,0.2182316114285714
142,1778426779970,0.473564225,0.247483955,-0.5403059250000001,0.7460955349999999,-0.6462190499999999,0.36713001
143,1778426779980,0.4784730399999999,0.250807315,-0.572258975,0.8953248133333332,-0.6947573833333333,0.4373286066666666
144,1778426779990,0.4859691271428571,0.2552762128571428,-0.6193740857142858,1.0408271,-0.70629115,0.48099094
145,1778426780000,0.4885651099999999,0.2593037416666667,-0.64798495,1.0549643,-0.6942483999999999,0.4783074999999999
146,1778426780010,0.49338244,0.253368445,-0.7229995250000001,0.9670251733333334,-0.5378668333333333,0.3789400833333333
147,1778426780020,0.4969802199999999,0.24794129,-0.73662835,0.8235990400000001,-0.35537085,0.3051272
148,1778426780030,0.4927552299999999,0.24387311,-0.742586892857143,0.7247697757142857,-0.2107485042857143,0.2769619485714286
149,1778426780040,0.4457577366666667,0.2728614533333333,-0.7561823333333333,0.1411098782,0.57131173,0.119347802
150,1778426780050,0.43264723,0.2915414,-0.7530927,-0.0760018157333333,0.8014552,0.0698931676666666
151,1778426780060,0.38819337,0.32471406,-0.7329086,-0.232459675,0.95753125,0.0472656991666666
152,1778426780070,0.3974622266666667,0.3815873199999999,-0.7154482433333333,-0.3120503333333333,0.9980011,0.01929316
153,1778426780080,0.43118372,0.40402764,-0.7151027299999999,-0.29693141,0.9239336533333334,-0.0533998033333333
154,1778426780090,0.4641386028571428,0.42474604,-0.7355307342857144,-0.2548835171428571,0.8304276657142857,-0.16039576
155,1778426780100,0.4824875133333333,0.44792248,-0.7548916083333334,-0.20357084,0.7367035,-0.28069258
156,1778426780110,0.4944394166666666,0.45662217,-0.7748419583333334,-0.2228131,0.65171688,-0.474184155
157,1778426780120,0.4922761228571429,0.4429178257142857,-0.8064233714285713,-0.2669699314285714,0.5532475857142857,-0.7203410357142858
158,1778426780130,0.43563518,0.4500262666666666,-0.81399056,-0.4316781,0.5355252,-0.9930123666666666
159,1778426780140,0.3609560183333333,0.461886725,-0.8016321233333333,-0.48288897,0.54351735,-1.0635164
160,1778426780150,0.35081315,0.4631368,-0.7993758999999999,-0.57848936,0.5358815,-1.1624765
161,1778426780160,0.3043992928571429,0.4576225342857142,-0.7564901071428572,-0.6314382885714285,0.4847651857142857,-1.2052153142857145
162,1778426780170,0.222421515,0.44048304,-0.683637425,-0.6873252066666667,0.4048000333333333,-1.2617931333333334
163,1778426780180,0.1803154,0.42383573,-0.6750089,-0.5990043,0.32691471,-1.2445361333333331
164,1778426780190,0.1170800033333333,0.4219758533333334,-0.6924997333333334,-0.4099414866666667,0.1286380433333333,-1.1877765666666666
165,1778426780200,0.0270224832857142,0.4153465257142857,-0.7459145714285714,-0.1886046428571428,-0.1913535414285714,-1.062796442857143
166,1778426780210,-0.0525030626666666,0.4233783666666667,-0.8209219133333333,-0.075594573,-0.4538728699999999,-0.8883507650000001
167,1778426780220,-0.066223375,0.43081784,-0.8403539700000001,-0.0158315908333333,-0.6466772,-0.7456373833333334
168,1778426780230,-0.0943434872857142,0.4135694214285714,-0.9157241371428572,-0.0063704518571428,-0.91852314,-0.50333115
169,1778426780240,-0.1108804558333333,0.403133275,-0.9477484,-0.038280888,-0.97840248,-0.37990728
170,1778426780250,-0.1254777014285714,0.3951362971428571,-0.9515538285714288,-0.0812232585714285,-0.8130834499999999,-0.1888228042857142
171,1778426780260,-0.1171409833333333,0.3975638416666666,-0.945604,-0.0748055375,-0.7239262083333333,-0.1329904506666666
172,1778426780270,-0.0942738,0.40996295,-0.9440795,-0.025045475,-0.5676465,-0.076358154
173,1778426780280,-0.0942738,0.40996295,-0.9440795,-0.025045475,-0.5676465,-0.076358154
174,1778426780290,-0.0942738,0.40996295,-0.9440795,-0.025045475,-0.5676465,-0.076358154
175,1778426780300,0.0544108351428571,0.4912482014285714,-1.1554506999999998,0.6114979092857142,-0.2573487942857143,-0.1926407211428571
176,1778426780310,0.1210029866666666,0.5252135933333334,-1.4370554666666668,1.4347188666666668,-0.2030108766666666,-0.6537276399999999
177,1778426780320,0.0848220199999999,0.5159447,-1.5599082,1.4865406,-0.21563543,-0.8313876
178,1778426780330,-0.011281146,0.4230125,-1.7372965,1.1852313,-0.22052236,-0.8991936333333334
179,1778426780340,-0.09213952,0.34349567,-1.6118013999999998,0.7994699,-0.17837265,-0.9251554
180,1778426780350,-0.1079331333333333,0.2418637033333333,-1.3921747333333332,0.1729766706666666,-0.0327321953333333,-0.5503896
181,1778426780360,-0.0358252621,0.196688305,-1.04161563,0.050854533,-0.01488984025,-0.33055446
182,1778426780370,0.0385185052666666,0.1791568,-0.8659041533333335,0.04444045,-0.025045475,-0.21746802
183,1778426780380,0.0892734985714285,0.1671613185714286,-0.8171556871428571,0.2834851171428571,-0.0994837685714285,0.01610066
184,1778426780390,0.14561825,0.1680789033333333,-0.7984409133333333,0.480598245,-0.134848505,0.130419725
185,1778426780400,0.1816308042857143,0.1756548485714285,-0.8225044428571427,0.5728607114285715,-0.1307469848571428,0.1578650285714285
186,1778426780410,0.2415588133333333,0.21761433,-0.9495066333333332,0.7348199866666668,-0.0495818956666666,0.1395827133333333
187,1778426780420,0.2341193533333333,0.2516000433333333,-1.1120770999999998,0.7027241000000001,0.0494800834999999,0.0631481985
188,1778426780430,0.22053117,0.2623628699999999,-1.1839410499999998,0.53351444,0.141109873,0.0048869225
189,1778426780440,0.2056929149999999,0.270269845,-1.2160262666666666,0.41401392,0.19730948,-0.027641652
190,1778426780450,0.1657210583333333,0.28329905,-1.2179471000000002,0.183565,0.29153544,-0.07666359
191,1778426780460,0.1341280371428571,0.2998868142857143,-1.168857357142857,-0.0663443299999999,0.4044582371428571,-0.1147554014285714
192,1778426780470,0.1126081999999999,0.31810799,-1.0861609333333333,-0.20021108,0.46502116,-0.13805555
193,1778426780480,0.10653061,0.3247140600000001,-1.0540249,-0.20021108,0.46502116,-0.13805555
194,1778426780490,0.1021139728571428,0.3291306971428572,-1.0245196857142855,-0.1752092414285714,0.4465643042857143,-0.1857030399999999
195,1778426780500,0.094456725,0.33617815,-0.9760934999999998,-0.12675454,0.4195117,-0.2333505299999999
196,1778426780510,0.094182325,0.37307056,-0.95587892,0.0113264599999999,0.4701626216666666,-0.187128395
197,1778426780520,0.1062518457142857,0.3957809371428571,-0.9654570428571428,0.0603883954285714,0.5134322542857143,-0.1615738585714285
198,1778426780530,0.1237267399999999,0.41959766,-0.985240435,0.062079183,0.569326435,-0.148287535
199,1778426780540,0.1385243533333333,0.4351066999999999,-1.0028227133333332,0.0487674093333333,0.6167703000000001,-0.1423316
200,1778426780550,0.1513198133333333,0.4468045216666667,-1.0186162833333332,0.016747889,0.6451755166666667,-0.1419498099999999
201,1778426780560,0.1682415228571428,0.4654104442857143,-1.0593562,-0.1106756891428571,0.7208427928571429,-0.1369647199999999
202,1778426780570,0.1671439,0.46612477,-1.06244,-0.2700788,0.806342125,-0.1225548449999999
203,1778426780580,0.1350688541666666,0.4817963966666667,-1.0557425,-0.407625295,0.8631016933333333,-0.1071559449999999
204,1778426780590,0.115250625,0.4906383799999999,-1.021645,-0.59635717,0.90484416,-0.08170322
205,1778426780600,0.105877255,0.4750277171428571,-0.9841863628571428,-0.6924375500000001,0.8944158171428571,-0.0410806828571428
206,1778426780610,0.08244383,0.43600106,-0.8905397699999998,-0.9326385,0.86834496,0.06047566
207,1778426780620,0.1050758171428571,0.4028371057142857,-0.8124777085714285,-0.9911724714285716,0.8072366442857143,0.15827955
208,1778426780630,0.149520915,0.37624148,-0.74562278,-0.9815077833333332,0.5084435266666667,0.4017457066666667
209,1778426780640,0.16458277,0.3744121000000001,-0.73144513,-0.91797775,0.32650748,0.49846604
210,1778426780650,0.211963585,0.3614540099999999,-0.7374515549999999,-0.7438302533333333,-0.1659008186666666,0.6742424833333334
211,1778426780660,0.21927092,0.3451827333333333,-0.7406529416666667,-0.7087309666666667,-0.2901100833333333,0.72738775
212,1778426780670,0.2144637257142857,0.3026483171428571,-0.7215752,-0.7534804599999999,-0.3901901714285714,0.8874998857142857
213,1778426780680,0.206821,0.2744875533333333,-0.68054782,-0.8879944600000002,-0.42307509,1.0821477333333334
214,1778426780690,0.19775544,0.2502585,-0.62802446,-1.0149527,-0.44730607,1.2379184
215,1778426780700,0.20299964,0.23714797,-0.56253284,-1.0685051666666665,-0.4838561566666666,1.3065389333333333
216,1778426780710,0.26333853,0.2104086233333333,-0.44758709,-1.0353911266666669,-0.63272912,1.5330681000000002
217,1778426780720,0.3411784399999999,0.1983855566666666,-0.3890064233333333,-0.926326245,-0.72573335,1.65121965
218,1778426780730,0.4687555485714286,0.17873865,-0.3485743442857142,-0.6045602328571429,-0.8051640285714285,1.7924967857142855
219,1778426780740,0.5408852,0.17000991,-0.35599637,-0.39828414,-0.74189585,1.8472565
220,1778426780750,0.6052588666666666,0.213386425,-0.3834471583333333,-0.2245438833333333,-0.6175084116666666,1.7485763333333333
221,1778426780760,0.6455356,0.2328184616666666,-0.416497855,-0.142484325,-0.56156335,1.6493616333333332
222,1778426780770,0.65320885,0.22824502,-0.4266102299999999,-0.12034045,-0.5403103,1.5555683
223,1778426780780,0.6933679785714286,0.2524363357142857,-0.4269238628571429,-0.15478889,-0.5113814985714286,1.2260938142857143
224,1778426780790,0.74226281,0.2696498859999999,-0.390388632,-0.159771798,-0.59421918,1.075489348
225,1778426780800,0.8250916571428571,0.26502418,-0.3385127699999999,-0.1002909784285714,-0.7543095,0.8664687185714286
226,1778426780810,0.8703556,0.2520269,-0.30520073,-0.032248593,-0.8527679083333334,0.704327625
227,1778426780820,0.9424330142857142,0.2477670685714285,-0.2951043214285714,0.0538870411428571,-0.8759153285714286,0.5114032942857143
228,1778426780830,1.00041405,0.2474534649999999,-0.3187584333333333,0.12566007,-0.8836165916666667,0.341091875
229,1778426780840,1.0659158,0.22306179,-0.38685185,0.15378532,-0.86452705,0.2055561499999999
230,1778426780850,1.1547363571428573,0.15901624,-0.4856903428571429,0.0573995119999999,-0.5969025985714286,-0.0141808
231,1778426780860,1.182569,0.15866779,-0.5306407,-0.043829583,-0.38637227,-0.12217305
232,1778426780870,1.1810444999999998,0.1647148899999999,-0.5754096166666667,-0.2303980138333333,-0.1243365283333333,-0.249182125
233,1778426780880,1.1111711,0.2490911942857143,-0.5774378642857142,-0.63606346,0.27916542,-0.37690386
234,1778426780890,1.1014667,0.26538134,-0.57003325,-0.63606346,0.27916542,-0.3769038599999999
235,1778426780900,1.0982348,0.278065,-0.56527686,-0.7854199999999999,0.21639901,-0.4596761
236,1778426780910,1.0759774,0.2514781,-0.5572886,-0.6373360766666667,-0.1793907666666666,-0.5339980333333333
237,1778426780920,1.0515857333333334,0.249293,-0.5450927666666666,-0.4850269999999999,-0.30543263,-0.50846894
238,1778426780930,1.0198766,0.24629487,-0.5133836,-0.39003745,-0.35063666,-0.48395798
239,1778426780940,1.0226816333333333,0.2435711333333333,-0.5186379716666667,-0.3583997216666667,-0.3495930966666666,-0.4741841383333333
240,1778426780950,0.9900984033333334,0.2018512116666666,-0.6163570733333333,-0.0359646906,-0.0408261616666666,-0.283899625
241,1778426780960,0.9550295857142858,0.2046635114285714,-0.6715896714285714,0.0024216444571428,0.0905825857142857,-0.2236203128571428
242,1778426780970,0.9148705,0.22940364,-0.7557453000000001,-0.0442877291999999,0.323147705,-0.09613492
243,1778426780980,0.8944686,0.2473227971428571,-0.8119898714285715,-0.09959285,0.39603702,-0.0373282290857142
244,1778426780990,0.8971865,0.2582670933333333,-0.84653312,-0.219097,0.30690888,-0.0059559362666666
245,1778426781000,0.9118215,0.26001516,-0.8647455599999999,-0.26542094,0.23991732,-0.0065668016
246,1778426781010,0.9330422,0.2827604,-0.84883,-0.35170567,-0.0580322,-0.06307184
247,1778426781020,0.9350807,0.2955398857142857,-0.8219643571428571,-0.3547163542857143,-0.2005165142857143,-0.1255109942857143
248,1778426781030,0.9377987,0.3125792,-0.7861435,-0.367282725,-0.38927387,-0.22586742
249,1778426781040,0.96749544,0.272272,-0.7891924,-0.37583485,-0.3880521399999999,-0.24297164
250,1778426781050,0.9868055733333332,0.2175939999999999,-0.7907676833333334,-0.517911915,-0.1788308003333333,-0.2316706483333333
251,1778426781060,0.9925144,0.21026488,-0.7879118199999999,-0.63621616,0.028405234,-0.2049453
252,1778426781070,1.0038187833333332,0.2372800899999999,-0.7646990666666666,-0.7391215066666668,0.1933133936666666,-0.1587231549999999
253,1778426781080,1.0027414,0.283217745,-0.739280935,-0.93935806,0.5151121,-0.06811147
254,1778426781090,0.9993875333333334,0.31562819,-0.7363640800000001,-1.0474812,0.6939429,-0.069791354
255,1778426781100,0.9883154714285716,0.3650735628571429,-0.7347902285714286,-1.1767882857142855,0.6705991342857143,-0.1969167805714285
256,1778426781110,0.9771199666666668,0.37603819,-0.7290262666666667,-1.2207887666666666,0.6320928,-0.2552907716666666
257,1778426781120,0.910053115,0.37941238,-0.6803140999999999,-1.31689825,0.5107342233333333,-0.3936771883333333
258,1778426781130,0.88145393,0.37343642,-0.6510136,-1.4258358666666666,0.4907284166666666,-0.4780529483333333
259,1778426781140,0.8497447,0.3682735,-0.6080842666666667,-1.4671456333333337,0.5194899666666667,-0.4842125166666666
260,1778426781150,0.8208144428571428,0.3631919171428571,-0.5479326999999999,-1.4682800714285713,0.5521785428571429,-0.44422994
261,1778426781160,0.8052909,0.3558744199999999,-0.5031391,-1.4359915,0.5543602,-0.4016439
262,1778426781170,0.7983291166666667,0.3586489716666667,-0.4413773833333334,-1.2975287,0.597604375,-0.29695687
263,1778426781180,0.7814044742857142,0.3749086285714286,-0.3478513285714286,-1.061574714285714,0.672213562857143,-0.1284344257142857
264,1778426781190,0.7873426766666666,0.4080522333333333,-0.3305680733333333,-0.7786241199999999,0.6335436200000001,-0.0159588535
265,1778426781200,0.7923633,0.4216709,-0.32514092,-0.58062744,0.5841399,0.052534413
266,1778426781210,0.7959610666666667,0.4235815883333333,-0.328322,-0.5317836666666667,0.5533675633333334,0.05953391
267,1778426781220,0.8315728833333332,0.4192419383333333,-0.3745137166666666,-0.0435496016666666,0.237295695,0.1174642916666666
268,1778426781230,0.8494223842857143,0.39869051,-0.4234044942857143,0.1675297985714285,0.1170025142857142,0.1711513557142857
269,1778426781240,0.8755694150000001,0.3891385649999999,-0.46240501,0.301156575,0.0497855184999999,0.262595705
270,1778426781250,0.9264564666666668,0.3855509666666667,-0.5008828666666667,0.4100942133333333,-0.0111482919999999,0.3470223733333333
271,1778426781260,0.9822829,0.386729895,-0.5152434650000001,0.4833725833333333,-0.0651335099999999,0.3958406883333333
272,1778426781270,1.0603406285714283,0.3894391042857142,-0.5296040842857143,0.5832235714285714,-0.1398881414285714,0.4474369814285714
273,1778426781280,1.107788233333333,0.4003485633333333,-0.5441374666666667,0.6117306133333333,-0.12680544,0.44552438
274,1778426781290,1.1702512,0.436671815,-0.57991192,0.5808310133333333,-0.0686205251666666,0.3826052733333333
275,1778426781300,1.1977731,0.45659167,-0.6013461083333334,0.5026148166666667,0.01333722475,0.2758565733333333
276,1778426781310,1.2027531,0.46380752,-0.61643845,0.33788484,0.191582613,0.111864703
277,1778426781320,1.1759658714285717,0.4321332257142857,-0.5983014571428572,0.2384556142857143,0.3496112685714285,0.0391171928571428
278,1778426781330,1.1598034833333333,0.4115382433333334,-0.5815786233333334,0.20677789,0.41309762,0.019547688
279,1778426781340,1.1551284,0.39410836,-0.56277674,0.23284147,0.4384485266666666,0.0324776693333333
280,1778426781350,1.1551284,0.39410836,-0.56277674,0.24587326,0.45112398,0.03894266
281,1778426781360,1.1642752666666667,0.3841077833333333,-0.5574918766666667,0.3848451066666666,0.3675372533333333,0.0595084566666666
282,1778426781370,1.194782228571429,0.3499942957142857,-0.5672717928571428,0.8777261142857142,0.026070856,0.0957313111428571
283,1778426781380,1.2006086666666669,0.344410345,-0.5777877916666667,0.9558514,-0.03726278,0.094989546
284,1778426781390,1.2101621166666667,0.3428350466666667,-0.5817311083333333,0.9820168,-0.0551814933333333,0.0950913553333333
285,1778426781400,1.212988842857143,0.3458651342857143,-0.5809572428571429,0.8848164857142857,0.1372701471428571,0.0522507954285714
286,1778426781410,1.19430745,0.34852645,-0.5804302,0.83036946,0.2232458033333333,0.0142789733333333
287,1778426781420,1.1723854875000002,0.35041679875,-0.5751555,0.7058356862499999,0.3904383525,-0.115109925
288,1778426781430,1.1566529142857145,0.3478948471428572,-0.5644231485714286,0.68443086,0.4192062871428571,-0.1939933542857142
289,1778426781440,1.1057048,0.317091675,-0.54365977,0.74479747,0.297949525,-0.29703322
290,1778426781450,1.0778068666666665,0.2923443033333333,-0.5325818916666666,0.7852673,0.21884248,-0.33108896
291,1778426781460,1.021226857142857,0.2438034228571428,-0.5138452857142857,0.83199847,0.14294247,-0.3210097
292,1778426781470,0.9823744,0.20909756,-0.4999072,0.8895215966666666,0.06974045,-0.22388212
293,1778426781480,0.9774525428571428,0.2018236242857143,-0.5002121285714286,0.95220803,-0.0477129385714285,-0.048651055
294,1778426781490,1.0009018916666668,0.206272205,-0.5101415533333334,0.9781479666666666,-0.1773036333333333,0.0974839133333333
295,1778426781500,1.0046056571428572,0.2133661142857142,-0.5106918214285715,0.983471202857143,-0.2828306057142857,0.1713913328571428
296,1778426781510,1.01289445,0.251935425,-0.51417635,0.9838493666666668,-0.34335717,0.1808415633333333
297,1778426781520,1.0121627,0.2798435583333333,-0.5189428833333334,0.9823985883333334,-0.4051563716666666,0.104407051
298,1778426781530,0.9888382,0.3012371,-0.5260063,0.97005403,-0.40744713,0.011759156
299,1778426781540,0.8615136571428571,0.3102794342857143,-0.5341078,0.85996735,-0.4226314757142857,-0.1662644277142857
300,1778426781550,0.7816309666666666,0.28190671,-0.5224288333333332,0.7311038666666666,-0.3988441,-0.2403245633333333
301,1778426781560,0.762315825,0.2579723825,-0.508627225,0.681515615,-0.36707275,-0.2315561025
302,1778426781570,0.7407952433333334,0.2038533633333333,-0.4723853,0.52610767,-0.2501493,-0.16447547
303,1778426781580,0.7448605299999999,0.19019403,-0.4599049,0.4428773,-0.13713925,-0.063224554
304,1778426781590,0.7670366416666666,0.1904379433333333,-0.4693160166666667,0.4465425,-0.13469578,-0.03145956
305,1778426781600,0.758336955,0.1970948366666666,-0.4842558999999999,0.4684063833333333,-0.14179709,-0.0227038249999999
306,1778426781610,0.72083473,0.21818347,-0.5084443,0.5777258,-0.17730364,0.02107485
307,1778426781620,0.6582497766666666,0.24428255,-0.5527558466666667,0.6688465483333333,-0.3771329266666667,0.1339067516666666
308,1778426781630,0.6072915,0.2631251,-0.59180284,0.72097373,-0.51007247,0.21151209
309,1778426781640,0.6088973,0.2619665,-0.6025148466666667,0.7220936233333334,-0.5948809566666666,0.26231571
310,1778426781650,0.6143912857142857,0.2535513857142857,-0.6537315514285714,0.6377432928571428,-0.7787441085714286,0.32026792
311,1778426781660,0.6163977799999999,0.25204724,-0.66194915,0.5319618,-0.8803586266666666,0.3284418866666667
312,1778426781670,0.61631644,0.24391668,-0.65601385,0.3894266,-0.9816604,0.3304781
313,1778426781680,0.59599009,0.23522715,-0.6279939516666667,0.3241403833333333,-0.9899325666666666,0.3355686333333333
314,1778426781690,0.5369041428571429,0.2581335314285714,-0.5675940914285714,0.025023658,-0.7108508228571428,0.38469238
315,1778426781700,0.5274088,0.2684303,-0.5582033,-0.0586939691666666,-0.5651776416666666,0.4042400666666666
316,1778426781710,0.4984437,0.3036965733333334,-0.5424097466666667,-0.0564032266666666,-0.4742350666666666,0.3649919766666666
317,1778426781720,0.49332145,0.31123766,-0.5419829,-0.02076942,-0.4269948,0.29718593
318,1778426781730,0.4899370999999999,0.313189,-0.5593314500000001,0.028023443,-0.430812715,0.217773455
319,1778426781740,0.481186615,0.31422566,-0.58424142,0.074830993,-0.397978705,0.1143845199999999
320,1778426781750,0.47377767,0.3126706966666667,-0.5956140333333334,0.07284568,-0.36132678,0.09040806
321,1778426781760,0.4461845914285715,0.31277958,-0.6296970000000001,0.0125881867142857,-0.2205005342857142,0.055785086
322,1778426781770,0.4270981,0.3178844,-0.63281128,-0.058261273,-0.078419823,0.0547487964999999
323,1778426781780,0.4185697085714285,0.3318224828571429,-0.6260992285714285,-0.1407826271428571,0.1143190717142857,0.0779071357142857
324,1778426781790,0.42758593,0.3572159399999999,-0.6165604,-0.17088956,0.19364429,0.087659165
325,1778426781800,0.436123,0.3810588,-0.61527985,-0.19456059,0.3565926,0.055436023
326,1778426781810,0.4408793849999999,0.38977883,-0.615584725,-0.19730948,0.4415792249999999,0.0032070429999999
327,1778426781820,0.43867543,0.4061038199999999,-0.6203236428571428,-0.1864884314285714,0.6137450328571428,-0.1379900958571428
328,1778426781830,0.4238865133333333,0.4174836766666667,-0.632201475,-0.1560506183333333,0.7435757500000001,-0.2789108899999999
329,1778426781840,0.41575596,0.408743355,-0.672539225,-0.1166752649999999,0.86758138,-0.41493022
330,1778426781850,0.41728044,0.39380345,-0.6904670999999999,-0.10644327,0.90301156,-0.4560109
331,1778426781860,0.4242233628571429,0.3815727771428571,-0.7498782342857143,-0.1165443631428571,0.9244572771428572,-0.49065568
332,1778426781870,0.4356656699999999,0.38224791,-0.7774538999999999,-0.1574250683333333,0.963512675,-0.5841653216666666
333,1778426781880,0.446062625,0.3960292199999999,-0.801449215,-0.1948405666666667,0.949080985,-0.624151565
334,1778426781890,0.44868471,0.4251671133333333,-0.82681656,-0.2710205533333333,0.8789841866666667,-0.73665258
335,1778426781900,0.4373527383333333,0.4357673233333333,-0.8364207666666666,-0.28206703,0.8593347000000001,-0.763887
336,1778426781910,0.39166918,0.45533144,-0.8548669,-0.3169736157142857,0.7883216071428573,-0.8003207571428571
337,1778426781920,0.3659868,0.468370825,-0.848931655,-0.3589596883333333,0.6959282283333333,-0.8217664866666666
338,1778426781930,0.32919603,0.446702875,-0.8331278650000001,-0.41248676,0.55886533,-0.8142070299999999
339,1778426781940,0.30608493,0.431366635,-0.818401375,-0.4184172433333333,0.5127450166666666,-0.7924958833333333
340,1778426781950,0.3026396,0.42850062,-0.81083995,-0.39385536,0.4596761,-0.7637343
341,1778426781960,0.2923950999999999,0.425177245,-0.8103216249999999,-0.3265583866666666,0.3397428866666667,-0.7267769466666666
342,1778426781970,0.2798334,0.4186016633333334,-0.8276498999999999,-0.2230676333333333,0.159130396,-0.6574946433333334
343,1778426781980,0.2660869528571428,0.4263053685714286,-0.8787011,-0.1080795162857142,-0.1061160154285714,-0.54033213
344,1778426781990,0.25544173,0.43417168,-0.9065163000000002,-0.0549778726666666,-0.3215950866666667,-0.4367177416666667
345,1778426782000,0.23891638,0.4372816399999999,-0.9240783,-0.054519724,-0.3381139,-0.4279111
346,1778426782010,0.1859603342857143,0.4564900428571428,-0.9736717857142856,-0.1082322311428571,-0.4143848,-0.3114540114285714
347,1778426782020,0.1725507199999999,0.45689657,-0.9794067,-0.1219694266666666,-0.4456261966666666,-0.2645046566666666
348,1778426782030,0.1686074,0.4537256433333334,-0.9569664,-0.08389216,-0.5473352433333334,-0.11677707
349,1778426782040,0.18182246,0.4490679957142857,-0.9399764442857144,0.0229510771428571,-0.5912084757142857,0.0013089971428571
350,1778426782050,0.2181428133333333,0.4399037066666666,-0.9273711866666666,0.1357647966666666,-0.60348398,0.07798713
351,1778426782060,0.266235045,0.438684135,-0.92578573,0.3766493233333333,-0.5933028666666668,0.1463022266666666
352,1778426782070,0.29160237,0.44063547,-0.92554176,0.44684792,-0.5862779,0.15561792
353,1778426782080,0.3635055285714285,0.4464894914285714,-0.9845435,0.6698137328571429,-0.4735078571428572,0.0797397354285714
354,1778426782090,0.38769539,0.4626286333333333,-1.0471240166666669,0.8767952466666667,-0.2968296133333333,-0.1213076586666666
355,1778426782100,0.39044962,0.47563752,-1.0844534666666668,0.91393077,-0.2489275949999999,-0.252058275
356,1778426782110,0.380963,0.4750364242857143,-1.1112669285714285,0.8778351885714286,-0.2343322757142857,-0.3839942614285714
357,1778426782120,0.37030616,0.46325873,-1.11739245,0.8252280500000001,-0.2315688383333333,-0.4319326416666667
358,1778426782130,0.34630069,0.4105321066666667,-1.0786401666666667,0.6060547000000001,-0.2079996199999999,-0.46777007
359,1778426782140,0.3288504883333333,0.3706821966666666,-1.019622466666667,0.4489859600000001,-0.18840103,-0.4494441033333333
360,1778426782150,0.30684718,0.32672638,-0.9387743,0.31726814,-0.17424931,-0.4023311149999999
361,1778426782160,0.295596525,0.28114446,-0.8274567999999999,0.2654718666666666,-0.12985977,-0.3602068666666667
362,1778426782170,0.2987456642857142,0.2581770942857143,-0.7777021785714285,0.2628247857142857,-0.0845830214285714,-0.3479532085714286
363,1778426782180,0.3193479166666667,0.25012638,-0.7425230333333334,0.2875139183333333,0.0078394366666666,-0.3529274083333333
364,1778426782190,0.3273564933333333,0.2602591,-0.7658983466666668,0.3584251866666666,0.19552778,-0.4150829333333333
365,1778426782200,0.32668572,0.2722516766666666,-0.8004532000000001,0.41248676,0.3619885533333333,-0.5134322333333333
366,1778426782210,0.3083513266666667,0.2905047766666667,-0.8923285333333334,0.409050645,0.46005789,-0.5736024750000001
367,1778426782220,0.30251765,0.29263905,-0.9160901,0.3947716700000001,0.515723,-0.6055202
368,1778426782230,0.2678205,0.2856264,-0.96969074,0.334321445,0.6013713916666666,-0.6261368666666667
369,1778426782240,0.22990888,0.28175859,-1.009762782857143,0.1262745628571428,0.7425939428571429,-0.6003932571428571
370,1778426782250,0.169034254,0.270662124,-1.02574278,-0.049938238,0.7671551000000001,-0.4831944039999999
371,1778426782260,0.1781549957142857,0.2764969771428571,-0.9751788142857144,-0.1082540471428571,0.7094545428571429,-0.3790636942857143
372,1778426782270,0.1911290383333333,0.2803314083333333,-0.94921184,-0.114562684,0.6740389066666667,-0.3332524333333334
373,1778426782280,0.24281904,0.291815785,-0.90956527,-0.0268017149999999,0.583834435,-0.22777637
374,1778426782290,0.2660521,0.29989552,-0.901577,0.032070424,0.55573463,-0.18860464
375,1778426782300,0.33239744,0.36547865,-0.95273855,0.1956805033333333,0.5697336533333334,-0.20301088
376,1778426782310,0.3272141999999999,0.382278415,-1.009479625,0.2147954899999999,0.62743495,-0.2451096899999999
377,1778426782320,0.3121262057142857,0.3999972142857143,-1.0774321428571427,0.22861631,0.6818783,-0.2843578
378,1778426782330,0.2554010783333333,0.4338769083333333,-1.1740624166666669,0.1613193333333333,0.71644314,-0.3364085866666667
379,1778426782340,0.2476364,0.43679374,-1.1811665,0.0508545299999999,0.7133379,-0.38591412
380,1778426782350,0.2025626316666666,0.4364685399999999,-1.1680153666666666,-0.1227075566666666,0.6240497666666666,-0.36371935
381,1778426782360,0.184004635,0.43340942,-1.10850985,-0.27122417,0.5177592066666666,-0.2954551566666666
382,1778426782370,0.1847059,0.430269,-1.0782337,-0.33628133,0.45982882,-0.24312437
383,1778426782380,0.1870536,0.43509653,-1.0433129166666666,-0.369649845,0.41279219,-0.181197905
384,1778426782390,0.19123067,0.4435015,-0.9959117,-0.4088215760000001,0.358913876,-0.1026559039999999
385,1778426782400,0.1862710183333333,0.4557887633333333,-0.9793254166666668,-0.436463225,0.337121265,-0.0550542284999999
386,1778426782410,0.1636376,0.4794487149999999,-0.964477,-0.482201755,0.30230194,-0.009697485
387,1778426782420,0.15665549,0.4883212,-0.957251,-0.50900346,0.2790127,0.012980887
388,1778426782430,0.145648745,0.4971123283333333,-0.9188442666666666,-0.5835544850000001,0.2170607866666666,0.0762054395
389,1778426782440,0.14311811,0.49832174,-0.8938935999999998,-0.640415865,0.1581122956666666,0.124260175
390,1778426782450,0.165090925,0.4803227466666666,-0.8126998333333333,-0.7111234999999999,0.011148292,0.22052235
391,1778426782460,0.19699319,0.456276615,-0.7401346649999999,-0.7480045,-0.084223045,0.310090465
392,1778426782470,0.21751268,0.4378304,-0.69876033,-0.75579304,-0.0926988,0.34437528
393,1778426782480,0.2196774483333333,0.4156644916666667,-0.66662426,-0.7750352866666667,-0.0256563398833333,0.3843106033333334
394,1778426782490,0.1872670183333333,0.3866993933333333,-0.6236644283333334,-0.8572730166666668,0.2284890516666666,0.531910945
395,1778426782500,0.13960164,0.36073244,-0.5772288233333334,-0.94936095,0.34674238,0.726929635
396,1778426782510,0.1267960133333333,0.3485366133333333,-0.5555202333333333,-0.9935723166666666,0.3675372566666666,0.8837693
397,1778426782520,0.2155715216666666,0.3259743133333333,-0.4745398833333333,-0.9643271666666668,0.2798271878333333,0.9946413666666668
398,1778426782530,0.269881602,0.33032416,-0.448318848,-0.82726425,-0.032986723,1.2512047
399,1778426782540,0.3849614866666666,0.3507928333333334,-0.41961798,-0.62404975,-0.3832670433333333,1.3566808166666666
400,1778426782550,0.5655411266666667,0.34632102,-0.41945538,-0.321926,-0.84956086,1.3854424
401,1778426782560,0.6089989533333333,0.3114815766666666,-0.4520182533333333,-0.058184912,-0.9667706,1.28663495
402,1778426782570,0.61601156,0.29983455,-0.46331972,-0.1406517196,-0.660986732,1.2351695399999998
403,1778426782580,0.5589350266666667,0.25353105,-0.4954760666666667,-0.2294308066666666,-0.4623740866666666,1.2195924666666669
404,1778426782590,0.52302846,0.2268221833333333,-0.5131803733333333,-0.3198388666666666,-0.3591887666666666,1.2384275
405,1778426782600,0.5483124800000001,0.195035766,-0.45374598,-0.632612038,-0.13326026,1.37249206
406,1778426782610,0.6334312599999999,0.20409728,-0.41049144,-0.64904433,-0.1684461,1.4092661
407,1778426782620,0.75300124,0.23949568,-0.39200458,-0.4114686333333333,-0.6229298333333334,1.4059572666666664
408,1778426782630,0.886820016,0.286333778,-0.384900504,-0.24672846,-0.88728178,1.3123218
409,1778426782640,0.92944443,0.30696914,-0.39148626,-0.13347405,-1.0595458,1.2049317
410,1778426782650,0.9275976485714288,0.2570707457142857,-0.3716506085714285,-0.1199477482857142,-1.1214176857142857,0.9428269
411,1778426782660,0.9165982133333334,0.2238342066666666,-0.34512177,-0.16638442,-1.0164034,0.7867944649999999
412,1778426782670,0.9075123333333334,0.2171061733333333,-0.3359545666666667,-0.211588455,-0.8396852,0.723977135
413,1778426782680,0.9317007266666666,0.2196266333333333,-0.34737798,-0.2940552649999999,-0.4808273,0.6233116049999999
414,1778426782690,0.95334834,0.22281788,-0.35715497,-0.3051272,-0.4729624,0.59696805
415,1778426782700,0.9741625466666668,0.2692433533333333,-0.3805913166666666,-0.2093740666666666,-0.7730499333333333,0.5945754966666666
416,1778426782710,0.9985949,0.3047739,-0.39679146,-0.13133603,-1.0106765,0.5936083
417,1778426782720,0.9985949,0.3047739,-0.39679146,-0.13133603,-1.0106765,0.5936083
418,1778426782730,1.04313,0.2771300033333333,-0.4063042066666666,0.0656680133333333,-1.2857695,0.4684318333333333
419,1778426782740,1.1205125333333334,0.2094227833333333,-0.4333586333333333,0.4695263,-1.7890206833333335,0.2055052549999999
420,1778426782750,1.0636161142857143,0.1748272728571428,-0.4886522371428571,0.5109669571428571,-1.3681636,0.1158898605714285
421,1778426782760,1.013138425,0.16894279,-0.5585996700000001,0.452345715,-0.7190647499999999,0.006948592
422,1778426782770,0.9579623833333332,0.1767176333333333,-0.6811169666666667,0.343764415,-0.46150869,-0.1043816014999999
423,1778426782780,0.9136102,0.1911493633333333,-0.7837042333333333,0.2294817066666666,-0.5004004200000001,-0.23441955
424,1778426782790,0.8988939,0.19677977,-0.8144987,0.20708331,-0.55680364,-0.2648101
425,1778426782800,0.89828415,0.180467845,-0.8545925333333333,0.160657555,-1.03182774,-0.335874075
426,1778426782810,0.9475146333333332,0.172205165,-0.8781812833333333,0.14385876,-1.391551,-0.3662137
427,1778426782820,0.9769646714285714,0.1314797957142857,-0.8828650857142856,0.0987638228571428,-1.5279485000000002,-0.2770273885714285
428,1778426782830,0.9803011166666667,0.086387154,-0.8791163333333333,-0.0385354133333333,-1.1055642666666667,-0.1085812966666666
429,1778426782840,0.9668044,0.0862042173333333,-0.87472581,-0.1865175166666667,-0.6671157366666667,0.0185295833333333
430,1778426782850,0.9451074285714286,0.1245107571428571,-0.8669843357142858,-0.4881903957142857,0.0349938528571428,0.2267619128571428
431,1778426782860,0.936701,0.1783031,-0.8587086,-0.666148525,0.3233767916666667,0.3191770949999999
432,1778426782870,1.0800223666666666,0.3067658533333333,-0.8751120233333333,-0.8068766350000001,0.12133311,0.2270127949999999
433,1778426782880,1.1292528833333333,0.328210195,-0.8799700333333332,-0.8394052100000001,-0.29764409,0.0210748499999999
434,1778426782890,1.1597628,0.312853615,-0.85623898,-0.8397870050000001,-0.5498550649999999,-0.149280195
435,1778426782900,1.1479763714285711,0.3323625885714286,-0.8369042228571428,-0.87019938,-0.6011568257142857,-0.2318669971428571
436,1778426782910,1.07942275,0.3398369,-0.827700725,-0.9830349000000002,-0.452193,-0.29626966
437,1778426782920,1.0548787,0.32593364,-0.8329754499999998,-1.0764973,-0.22082779,-0.30787608
438,1778426782930,1.0532408714285717,0.3031797085714286,-0.8220165971428571,-1.2422162714285714,0.0426733014285714,-0.3137665685714285
439,1778426782940,1.03743855,0.311847465,-0.75608073,-1.4410311,0.415464715,-0.339488375
440,1778426782950,1.0207709333333332,0.3386986166666666,-0.6962195233333333,-1.45457195,0.5038619916666667,-0.365450145
441,1778426782960,0.9927844,0.3524944214285714,-0.6751874942857142,-1.3430963285714286,0.5015858157142857,-0.41772274
442,1778426782970,0.9449534666666668,0.3540450433333333,-0.6635143533333333,-1.2211196,0.479681935,-0.449215025
443,1778426782980,0.9324324,0.35288644,-0.6596117,-1.1446087,0.4662428999999999,-0.46395215
444,1778426782990,1.0588423,0.28855342,-0.6654047,-1.0873401,0.46975538,-0.5494733
445,1778426783000,1.5139211428571429,0.0291916,-0.7960220228571429,-1.098183,0.79901177,-1.1714869
446,1778426783010,0.4821521166666667,0.4198822283333333,-0.6484422900000001,-1.0763955166666666,1.6009759499999998,-1.5698982666666663
447,1778426783020,0.4311837,0.33410487,-0.7026629400000001,-1.0629056,1.3217597,-1.3185526
448,1778426783030,0.4311837,0.33410487,-0.7026629400000001,-1.0629056,1.3217597,-1.3185526
449,1778426783040,0.48103415,0.282668935,-0.64174477,-0.8846856299999999,0.8965211200000001,-0.9078221
450,1778426783050,0.6147919,0.2769064,-0.46899077,-0.70646566,0.4712825400000001,-0.4970916
451,1778426783060,0.67656386,0.3114816,-0.43801335,0.06719518,-0.03894266,0.1127046349999999
452,1778426783070,0.67656386,0.3114816,-0.43801335,0.06719518,-0.03894266,0.1127046349999999
453,1778426783080,0.67656386,0.3114816,-0.43801335,0.2787581666666667,-0.1352557399999999,0.433103445
454,1778426783090,0.7113394228571429,0.3326152342857143,-0.5100733071428571,0.38453966,-0.18341228,0.59330285
455,1778426783100,0.7982783299999999,0.3854493199999999,-0.6902232,0.3787800771428571,-0.1832377471428571,0.5957463142857142
456,1778426783110,1.0901856,0.38587618,-0.64759874,0.34422258,-0.1821905499999999,0.6104071
457,1778426783120,1.1522826,0.4169755716666666,-0.6498346650000001,0.34422258,-0.1821905499999999,0.6104071
458,1778426783130,1.1464082857142857,0.4528835928571428,-0.6848134785714286,0.3675663514285713,-0.0280561642857142,0.2825033642857142
459,1778426783140,1.132688,0.4751497,-0.7107122,0.32360587,0.18524489,0.0421496999999999
460,1778426783150,1.1373049857142858,0.4703933114285714,-0.7028807571428571,0.06776241,0.5388485971428572,0.0276198351428571
461,1778426783160,1.1763796,0.45944753,-0.639610475,-0.1541416666666666,0.8617272666666667,0.034310264
462,1778426783170,1.215027357142857,0.4487369571428571,-0.5669146028571428,-0.2458078071428571,1.120435957142857,0.0245000585714285
463,1778426783180,1.2354583,0.4422005833333333,-0.5144609333333333,-0.26648995,1.2716687,0.00870483
464,1778426783190,1.2419627,0.44215995,-0.49722412,-0.2079741556666666,1.3113494666666667,-0.0277180099999999
465,1778426783200,1.22101635,0.4441925683333333,-0.4662873666666667,-0.006974045,1.27591935,-0.123089345
466,1778426783210,1.1804957,0.438989,-0.4255736,0.17272215,1.1452195999999997,-0.18188512
467,1778426783220,1.18515045,0.39904768,-0.3979805483333333,0.3958661383333333,0.9999864166666668,-0.178958065
468,1778426783230,1.1924127999999998,0.36211172,-0.3746124628571428,0.6924158,0.89568114,-0.13133603
469,1778426783240,1.1950698,0.3505692199999999,-0.37069237,0.7751370916666667,0.87939144,-0.1181006166666666
470,1778426783250,1.1768980000000002,0.2962368,-0.3784164,1.1224649,0.8190176,-0.043905941
471,1778426783260,1.1728734,0.28587034,-0.3858152,1.1751521,0.8338311,-0.007941248
472,1778426783270,1.1711310428571429,0.2872205757142857,-0.4157821,1.1751521,0.8338311,-0.007941248
473,1778426783280,1.16808645,0.293370765,-0.44511743,1.2089024000000002,0.8271879000000001,0.0226020135
474,1778426783290,1.1132269714285714,0.3237384171428571,-0.5162322,1.2449434,0.7611380942857143,0.0226238292857142
475,1778426783300,1.023570157142857,0.3596028685714286,-0.5675244285714285,1.2421727142857144,0.5767004371428571,-0.0800015342857143
476,1778426783310,0.9463967,0.3401417933333333,-0.5939777333333333,1.1986703333333333,0.223678478,-0.1455386533333333
477,1778426783320,0.9165169166666668,0.3118271366666666,-0.59393708,1.1386019333333337,-0.0872010106666666,-0.1523090666666666
478,1778426783330,0.90578455,0.28202865,-0.58296084,1.0893254,-0.3184135,-0.15241088
479,1778426783340,0.9083979428571428,0.2394739071428571,-0.572202382857143,1.0215194,-0.4643666714285714,-0.1393209114285714
480,1778426783350,0.9194032333333334,0.1852750366666666,-0.5558860933333333,0.8695157666666667,-0.53079098,-0.1230893499999999
481,1778426783360,0.91199425,0.163637595,-0.5439341683333333,0.6972517666666667,-0.47240244,-0.1064432733333333
482,1778426783370,0.8541874971428571,0.1943057628571428,-0.5208056542857143,0.5458953714285715,-0.1874047271428571,-0.0769908371428571
483,1778426783380,0.8291236183333334,0.2158865833333333,-0.513170205,0.51854825,-0.0896190221666666,-0.0748564425
484,1778426783390,0.74107983,0.2579622066666667,-0.50761092,0.4998405000000001,0.056352317,-0.089491755
485,1778426783400,0.6529213657142857,0.2993902957142857,-0.5165545428571428,0.4995132357142857,-0.0053014378571428,-0.1145590521428571
486,1778426783410,0.6185117142857143,0.3103491214285714,-0.5236455285714285,0.5308855571428571,-0.26371926,-0.1243983457142857
487,1778426783420,0.6091644828571429,0.2877171285714285,-0.5218945428571428,0.5645922,-0.49388456,-0.13072516
488,1778426783430,0.59222966,0.2678205,-0.5186888,0.5645922,-0.49388456,-0.13072516
489,1778426783440,0.5849121533333334,0.25355138,-0.5208434,0.5897395066666666,-0.7044294266666666,-0.0665843113333333
490,1778426783450,0.5609909014285714,0.2277223442857143,-0.5360765785714287,0.5291620071428571,-0.8607745500000001,0.0118682394285714
491,1778426783460,0.54283655,0.21117085,-0.54850763,0.4634940066666666,-0.8004879666666667,0.0723366253333333
492,1778426783470,0.4701493733333333,0.2467623666666667,-0.52718524,0.41760276,-0.6021604,0.207617825
493,1778426783480,0.4600878,0.26086888,-0.52356714,0.4297437,-0.5224425,0.25686884
494,1778426783490,0.4221326371428571,0.2968030371428571,-0.5364947142857143,0.5333071685714286,-0.3415172928571429,0.3835797442857143
495,1778426783500,0.39847854,0.3260556133333333,-0.54787749,0.5727116166666667,-0.3354922783333333,0.4147266033333334
496,1778426783510,0.4021779433333334,0.3503863,-0.5609067066666666,0.6246606,-0.4532620133333333,0.41630467
497,1778426783520,0.4355132,0.36861907,-0.59198575,0.659505365,-0.5465716749999999,0.33811392
498,1778426783530,0.4564726228571428,0.3573379228571429,-0.6131193714285714,0.6552620314285714,-0.5588107914285715,0.2676898857142857
499,1778426783540,0.4755358933333333,0.3375196966666666,-0.6525482499999999,0.5942955083333333,-0.51913365,0.1142572479999999
500,1778426783550,0.4589989042857142,0.3293223428571429,-0.67861976,0.4902848028571428,-0.37542032,0.0032724919999999
501,1778426783560,0.39959648,0.33886123,-0.67930794,0.2684243733333333,-0.0768672096666666,-0.0726929613333333
502,1778426783570,0.3874006628571428,0.3456908985714286,-0.6687846885714286,0.2049453,0.0047342055,-0.0842994
503,1778426783580,0.3782538,0.35081315,-0.66089225,0.095753126,0.16157386,-0.079870634
504,1778426783590,0.3782538,0.35081315,-0.66089225,0.095753126,0.16157386,-0.079870634
505,1778426783600,0.3782538,0.35081315,-0.66089225,0.095753126,0.16157386,-0.079870634
506,1778426783610,0.37634312,0.3534555833333333,-0.6531072333333333,0.019394971,0.32818735,-0.07544186
507,1778426783620,0.37252176,0.35874045,-0.6375372,0.019394971,0.32818735,-0.07544186
508,1778426783630,0.37252176,0.35874045,-0.6375372,0.0186095738571428,0.3701625214285714,-0.0685478085714285
509,1778426783640,0.38276625,0.35959417,-0.6199752,0.018020526,0.4016439,-0.06337727
510,1778426783650,0.38276625,0.35959417,-0.6199752,0.018020526,0.4016439,-0.06337727
511,1778426783660,0.38276625,0.35959417,-0.6199752,0.0430659979999999,0.43478334,-0.0525344114999999
512,1778426783670,0.39775188125,0.35898436375,-0.64979401125,0.14588225875,0.44140741125,0.003264310625
513,1778426783680,0.4416111199999999,0.3899516166666667,-0.855161705,0.2214895683333333,0.1659262721666666,0.0426587566666666
514,1778426783690,0.4189878466666667,0.3747576433333333,-0.8958449666666667,-0.2624175266666667,0.0349465834999999,-0.1696932716666666
515,1778426783700,0.4122017457142857,0.3588362685714286,-0.8695107,-0.40866885,0.040775254,-0.25518894
516,1778426783710,0.38977882,0.33526346,-0.8505375000000001,-0.47494772,0.024587326,-0.2967278
517,1778426783720,0.2968567533333333,0.2860227833333333,-0.8098643466666666,-0.5814673366666666,0.0239510089833333,-0.2430734766666666
518,1778426783730,0.2343327816666666,0.2708694633333333,-0.7734191083333334,-0.622548025,-0.016442455875,-0.1487456883333333
519,1778426783740,0.17436993,0.31373781,-0.7636420999999999,-0.5626068999999999,-0.159664905,-0.0222965805
520,1778426783750,0.1387972977142857,0.3416575485714285,-0.768964707142857,-0.5128868328571429,-0.2419899057142857,0.0241728098571428
521,1778426783760,0.118462196,0.4019136933333333,-0.8040509800000001,-0.3609195533333333,-0.4974479266666667,0.1155044333333333
522,1778426783770,0.11866546,0.44935548,-0.8418174400000001,-0.2321288,-0.72509706,0.16752979
523,1778426783780,0.11866546,0.44935548,-0.84181744,-0.2321288,-0.7250970600000001,0.1675297899999999
524,1778426783790,0.11866546,0.44935548,-0.8418174400000001,-0.2321288,-0.72509706,0.16752979
525,1778426783800,0.11866546,0.44935548,-0.8418174400000001,-0.2321288,-0.72509706,0.16752979
526,1778426783810,0.11866546,0.44935548,-0.84181744,-0.2321288,-0.7250970600000001,0.1675297899999999
527,1778426783820,0.11866546,0.44935548,-0.8418174400000001,-0.1519018266666666,-0.8672250533333333,0.1548034366666666
528,1778426783830,0.11866546,0.44935548,-0.8418174400000001,-0.11178834,-0.93828905,0.14844026
529,1778426783840,0.11866546,0.44935548,-0.84181744,-0.1385573228571428,-1.0141454,0.0543888259999999
530,1778426783850,0.11866546,0.44935548,-0.8418174400000001,-0.1742492999999999,-1.1152872,-0.071013086
531,1778426783860,0.11866546,0.44935548,-0.8418174400000001,-0.1742492999999999,-1.1152872,-0.071013086
532,1778426783870,0.1233957014285714,0.4549394314285714,-0.85196612,-0.1742493,-1.1152872,-0.071013086
533,1778426783880,0.15177715,0.48844314,-0.9128582,-0.1742492999999999,-1.1152872,-0.071013086
534,1778426783890,0.16891229,0.493565395,-0.95508625,-0.1742492999999999,-1.1152872,-0.071013086
535,1778426783900,0.18604743,0.49868765,-0.9973143,-0.1242892571428571,-1.0836531285714286,0.0074176489999999
536,1778426783910,0.18604743,0.49868765,-0.9973143,-0.10430524,-1.0709995,0.038789943
537,1778426783920,0.1723358371428571,0.4577619085714285,-1.0151724857142856,-0.3402737514285714,-0.9690504471428572,-0.1775436162857142
538,1778426783930,0.172225495,0.3654481616666666,-0.8405774783333332,-0.2504038433333333,-0.3892229683333333,-0.23854288
539,1778426783940,0.2098380331428571,0.4592166871428572,-1.2208029628571428,0.8346819228571428,0.0702276867142857,-0.59343378
540,1778426783950,0.0039026667,0.34550798,-1.238121,0.16722436,0.25778514,-0.8038987
541,1778426783960,-0.0532348125714285,0.2864627099999999,-1.1295519857142855,0.0607810915714285,0.2891574328571428,-0.6848235942857143
542,1778426783970,-0.12189736,0.24115228,-0.9982086666666666,-0.1252273753333333,0.3334306166666667,-0.3528764833333333
543,1778426783980,-0.12485485,0.2324221,-0.927554175,-0.124005646,0.32162055,-0.1768454899999999
544,1778426783990,-0.1130553833333333,0.23371282,-0.9028575666666666,-0.0188859156666666,0.27947085,0.074627368
545,1778426784000,-0.0873570168571428,0.2430978228571428,-0.9110461714285716,0.0904735035714285,0.2414663014285714,0.2240566414285714
546,1778426784010,-0.0362216282233333,0.2619258666666667,-0.9622106333333336,0.2007964866666667,0.2182061466666666,0.337757585
547,1778426784020,0.0046547432199999,0.28369542,-1.0212181333333332,0.289346495,0.2153045433333333,0.40556363
548,1778426784030,0.014452063,0.28519958,-1.042073,0.2764601528571428,0.2316924628571428,0.4161083085714286
549,1778426784040,0.058174128,0.298554,-1.12283995,0.1846849233333333,0.2775873466666667,0.4200716633333333
550,1778426784050,0.0679511206666666,0.3079651166666666,-1.1186019333333332,0.0711148938466666,0.3428990333333333,0.4139121066666666
551,1778426784060,0.0814884953333333,0.3267060533333333,-1.0933971999999998,-0.0131845079733333,0.4257221666666666,0.4035274066666667
552,1778426784070,0.0960421859999999,0.34873986,-1.0668916,-0.041080687,0.4738787,0.3911065
553,1778426784080,0.1083599766666666,0.3720542266666666,-1.0506508,0.001781691,0.50516009,0.3185153266666666
554,1778426784090,0.1187874116666666,0.402543795,-1.0439125833333331,0.06470081,0.4915428833333333,0.2484694366666666
555,1778426784100,0.1197020999999999,0.4139265699999999,-1.05372,0.10797043,0.43676865,0.22250767
556,1778426784110,0.1164600433333333,0.4340192216666667,-1.0696660833333334,0.1916080616666666,0.2752457016666667,0.2072614833333333
557,1778426784120,0.1148440986666666,0.4685436066666666,-1.0940272999999998,0.23968825,0.0881173085,0.18982638
558,1778426784130,0.131958912,0.486878,-1.1081337,0.2434298,0.032375857,0.18203785
559,1778426784140,0.13964228,0.49021152,-1.1114062,0.19715676,-0.100029185,0.14950927
560,1778426784150,0.1315523986666666,0.48027192,-1.090998666666667,0.05589417,-0.0724384345633333,0.124209265
561,1778426784160,0.1105958873333333,0.4680151266666666,-1.0561389,-0.2455678233333333,0.1021672121033333,0.125532805
562,1778426784170,0.0913874466666666,0.4627505733333333,-1.0003225833333331,-0.3644065666666667,0.1646027316666667,0.1355866283333333
563,1778426784180,0.085980628,0.4593682799999999,-0.920944022,-0.58875193,0.214902394,0.171439328
564,1778426784190,0.0818238833333333,0.4510425899999999,-0.808705705,-0.6975572200000001,0.1626428666666667,0.2172135033333333
565,1778426784200,0.0819438079999999,0.4502701799999999,-0.7698741680000001,-0.72586066,0.0786489,0.25579983
566,1778426784210,0.0877693483333333,0.444568625,-0.7457243916666667,-0.59414285,-0.40271293,0.3494149099999999
567,1778426784220,0.1188135457142857,0.4095709485714285,-0.7106337857142856,-0.5305365,-0.6035349,0.37751472
568,1778426784230,0.1508827866666666,0.3120100866666667,-0.6716245333333334,-0.37532578,-0.9860383,0.5843944166666667
569,1778426784240,0.16482669,0.2808293966666667,-0.6455051333333334,-0.3541491266666667,-1.0318531999999998,0.7030549866666668
570,1778426784250,0.21783791,0.2559905366666666,-0.5770052,-0.3642793133333333,-1.018617845,0.8462010666666666
571,1778426784260,0.250400785,0.2490185883333333,-0.5484872749999999,-0.3853032533333334,-0.9590584466666666,1.0866783
572,1778426784270,0.31361586,0.2394651799999999,-0.49716315,-0.37237328,-0.9141089533333332,1.2625566
573,1778426784280,0.3987631133333333,0.1967188,-0.4433998733333333,-0.35506544,-0.8852964599999998,1.3487903999999995
574,1778426784290,0.4398514457142857,0.1657936457142857,-0.4065742371428572,-0.3124357514285714,-0.7112216599999999,1.4986706
575,1778426784300,0.44917256,0.16257046,-0.39642558,-0.2866485,-0.6249151,1.5693127999999998
576,1778426784310,0.56714692,0.2189558666666666,-0.3927668266666666,0.0199040199999999,-0.4555527533333333,1.5873334
577,1778426784320,0.69902858,0.273137884,-0.4383548519999999,0.292634988,-0.57790906,1.40553984
578,1778426784330,0.7443930333333334,0.27776011,-0.5139324266666666,0.4943935866666666,-0.7312566,1.167821633333333
579,1778426784340,0.7633270433333333,0.2697108583333333,-0.5987239833333333,0.6397285933333333,-0.89445942,0.8573493999999999
580,1778426784350,0.77793159,0.2421482733333333,-0.6934551,0.6632469,-0.97326106,0.6774496
581,1778426784360,0.7941927083333334,0.1829374983333333,-0.7522796716666668,0.43188172,-1.0483466133333332,0.2874120933333333
582,1778426784370,0.80212,0.13201989,-0.76528853,0.26175576,-0.96852684,0.20586158
583,1778426784380,0.8242031428571429,0.1119403257142857,-0.7449040800000001,-0.0797179142857142,-0.691783057142857,0.1788307985714285
584,1778426784390,0.8737704983333333,0.1215213183333333,-0.6905789333333333,-0.5111924,-0.2184861243333333,0.1734857333333333
585,1778426784400,0.9454616833333334,0.1485350899999999,-0.6732710333333333,-0.7794640333333334,0.1892664126666666,0.1105157083333333
586,1778426784410,1.0194294000000002,0.1680992399999999,-0.6964634333333333,-0.9153816,0.3987931866666667,-0.0351247533333333
587,1778426784420,1.0189619,0.16891229,-0.70394355,-0.9245446,0.4034765,-0.12644911
588,1778426784430,0.97632735,0.1721137066666666,-0.7357035416666666,-0.8980736833333333,0.3010293083333333,-0.2575306016666667
589,1778426784440,0.9381136933333334,0.1673369999999999,-0.7745472283333333,-0.81504698,-0.1466076633333333,-0.4178318199999999
590,1778426784450,0.94086784,0.1441445933333333,-0.7579405333333332,-0.7414885733333333,-0.4771112133333333,-0.4062762866666666
591,1778426784460,0.95988526,0.15153323,-0.7069802620000001,-0.718835644,-0.508575862,-0.341656924
592,1778426784470,0.9732275133333332,0.17671763,-0.68325126,-0.6844235666666667,-0.4649193599999999,-0.1920153019999999
593,1778426784480,1.024450004,0.2406481939999999,-0.659672676,-0.6456540040000001,-0.300026468,-0.0376903856
594,1778426784490,1.0990275333333333,0.2793658966666666,-0.6808934,-0.57887118,-0.236863,0.00366519135
595,1778426784500,1.1486646,0.29928577,-0.720042,-0.5384777,-0.2356412699999999,-0.0061086523
596,1778426784510,1.1508801833333335,0.33237712,-0.8656805533333333,-0.41658465,-0.711199875,-0.3468441937166666
597,1778426784520,1.1161221,0.32697029,-0.9185088266666668,-0.3830888699999999,-1.07260303,-0.589255875
598,1778426784530,1.0637206714285714,0.2784134585714286,-0.9117953142857144,-0.3860450142857142,-1.233206042857143,-0.6858925714285714
599,1778426784540,1.0105163,0.23949567,-0.8777950933333334,-0.39138645,-1.2916491166666668,-0.7051930000000001
600,1778426784550,0.953073975,0.24461791,-0.7868142300000001,-0.3339142,-1.1368966,-0.5897903999999999
601,1778426784560,0.94752915,0.2589785,-0.7735817171428572,-0.2778127785714285,-0.9633781442857144,-0.4688608842857142
602,1778426784570,1.02799695,0.254821775,-0.88188069,-0.26725355,-0.94225967,-0.4234823299999999
603,1778426784580,0.8859663750000001,0.29904184,-0.90846765,-0.2750166283333333,-0.8503244233333334,-0.4107305233333334
604,1778426784590,0.86645305,0.29849303,-0.91188246,-0.32406402,-0.7315111,-0.41798455
605,1778426784600,0.8121815416666666,0.2765913583333333,-0.9329101333333334,-0.63606345,-0.6217335666666667,-0.4409683466666667
606,1778426784610,0.7533163333333334,0.2621189633333333,-0.8672863166666667,-0.8177959,-0.5493206,-0.41462478
607,1778426784620,0.7773188857142858,0.2549713342857143,-0.7804549142857143,-0.8141960928571429,-0.4393648271428572,-0.35205474
608,1778426784630,0.7851068,0.2591005,-0.7648007,-0.7848091,-0.40439278,-0.3294091
609,1778426784640,0.7888468466666666,0.2587346266666666,-0.7597597666666666,-0.71466141,-0.4088724666666667,-0.3408628166666667
610,1778426784650,0.7782872666666667,0.2596289633333333,-0.7641604666666666,-0.5084944,-0.43399431,-0.3825034533333333
611,1778426784660,0.7256825666666668,0.2554620683333333,-0.8023029333333334,-0.3068579733333333,-0.4424191533333333,-0.43473244
612,1778426784670,0.6502209,0.22568391,-0.8455981,-0.3220786971428571,-0.3385502557142857,-0.4213879271428571
613,1778426784680,0.61314553,0.22611076,-0.84273213,-0.4072944,-0.20097467,-0.36942077
614,1778426784690,0.5654191766666666,0.22859058,-0.8079739766666667,-0.56306505,0.15347989,-0.20906863
615,1778426784700,0.541556,0.22983049,-0.7905949,-0.5900958449999999,0.238771955,-0.162261082
616,1778426784710,0.5492480714285715,0.2366862771428571,-0.7235352371428572,-0.6114106685714286,0.52246432,-0.0096429451428571
617,1778426784720,0.5714358,0.2394651799999999,-0.6672340599999999,-0.5661194,0.6872234,0.0852157
618,1778426784730,0.6474768,0.24361177,-0.6623557,-0.3140101833333333,0.7059311500000001,0.16755525
619,1778426784740,0.7135172500000001,0.26330805,-0.705407,-0.012370021,0.54199016,0.17088956
620,1778426784750,0.7493425416666666,0.2705747583333333,-0.7724840833333334,0.3167590881666667,0.1052724383333333,0.0868446738333333
621,1778426784760,0.7485193,0.29690757,-0.8373049,0.61727935,-0.35262197,-0.020005837
622,1778426784770,0.7456532666666668,0.3021314466666667,-0.8500495666666668,0.6655886,-0.4461861633333333,-0.0454076513333333
623,1778426784780,0.7142794599999999,0.29937722,-0.9136102,0.6994661333333334,-0.6700682566666667,-0.075900007
624,1778426784790,0.71430993,0.28788266,-0.9328593,0.5920811,-0.5891795,-0.03023783
625,1778426784800,0.739311405,0.2746196933333333,-0.9201553,0.28787026,-0.17608191,0.0836885399999999
626,1778426784810,0.8184624057142857,0.2804518942857143,-0.8611565142857144,-0.1176133714285714,0.4962407428571428,0.1789398814285714
627,1778426784820,0.8586070366666667,0.27922362,-0.8082178866666666,-0.2832632883333333,0.8357145500000001,0.1805361316666666
628,1778426784830,0.8806611700000001,0.27418268,-0.7548205066666668,-0.4452698716666667,1.4703781333333332,0.0523816933333333
629,1778426784840,0.89102757,0.27215004,-0.7482754000000001,-0.4445572,1.4958563,0.034972034
630,1778426784850,0.89102757,0.27215004,-0.7482754000000001,-0.3702352566666667,1.427133966666667,-0.015373444
631,1778426784860,0.83495723,0.2498926283333333,-0.7387219733333333,0.0297542299999999,1.0405071666666668,-0.1970040416666666
632,1778426784870,0.7870581200000001,0.20590052,-0.7421861328571427,0.5094398014285714,0.6854780657142857,-0.1632537385714285
633,1778426784880,0.8024045333333333,0.1703757866666666,-0.7710815866666666,0.8149960333333334,0.57014088,-0.0374664046666666
634,1778426784890,0.8206576,0.1737906199999999,-0.7782771,0.9114109,0.61453044,0.060170226
635,1778426784900,0.8503748433333334,0.1718393,-0.7681545666666666,0.9021461333333334,0.8001316800000001,0.1411098753333333
636,1778426784910,0.8790147300000001,0.16196068,-0.7542513,0.8593855666666667,1.0220794,0.2178752766666666
637,1778426784920,0.9391808533333332,0.1808438933333333,-0.7589060466666666,0.7229080899999999,1.4217379666666667,0.3247257866666667
638,1778426784930,1.110996957142857,0.2766276271428571,-0.7836345828571429,0.4065308314285714,1.7853627714285714,0.2535527185714286
639,1778426784940,1.1315905,0.29983455,-0.7898022,0.42439863,1.6449074,0.13927728
640,1778426784950,1.0983059166666669,0.3022229083333333,-0.7894464999999999,0.568588305,1.18879465,-0.1946623866666667
641,1778426784960,1.0834255428571429,0.3021430542857142,-0.7969019285714286,0.6116506628571428,1.0357001785714286,-0.2967277885714286
642,1778426784970,0.9032641,0.2495674,-0.8482608666666667,0.6530149566666666,0.3402519533333333,-0.5924374866666667
643,1778426784980,0.8630381749999999,0.23351973,-0.81385845,0.53611063,0.34758232,-0.500527725
644,1778426784990,0.85748905,0.2264359799999999,-0.7563855666666667,0.43704865,0.41477749,-0.3966042666666666
645,1778426785000,0.8753210885714285,0.2178524342857142,-0.7083252571428572,0.2866267085714286,0.6772532214285715,-0.1716313125714285
646,1778426785010,0.91304106,0.19842622,-0.6252194,0.19211712,0.87857693,-0.023365596
647,1778426785020,1.06277545,0.22915971,-0.56759408,0.1183551399999999,1.1348349,0.10919216
648,1778426785030,1.1322815666666666,0.2873338266666667,-0.5633661933333333,0.2322815,1.2486849,0.0091629774999999
649,1778426785040,1.135981,0.29721245,-0.56393534,0.3280564357142857,1.1739739185714286,-0.1269726985714285
650,1778426785050,1.064767383333333,0.3495224166666666,-0.6173226066666667,0.5950845366666667,0.8070802366666667,-0.57632586
651,1778426785060,0.91899671,0.36676938,-0.6904162666666668,0.68798697,0.54733527,-0.77320266
652,1778426785070,0.7801848771428571,0.3151926085714285,-0.7105815142857143,0.6934629499999999,0.2117738888571428,-0.8516770285714286
653,1778426785080,0.7036589533333334,0.2686335633333333,-0.70268328,0.5691737066666667,0.114079084,-0.72255175
654,1778426785090,0.6804055400000001,0.2383472466666666,-0.6600182033333334,0.4009312133333333,0.2292780866666667,-0.5047783233333334
655,1778426785100,0.68642215,0.2233362016666666,-0.5901360683333333,0.2526182266666666,0.3614795033333333,-0.277154655
656,1778426785110,0.7189444,0.22592781,-0.54216576,0.16722436,0.46914452,-0.08689558
657,1778426785120,0.764953195,0.2288649816666666,-0.5003645516666667,0.186695685,0.4743623116666666,-0.0125736428333333
658,1778426785130,0.863363375,0.24569525,-0.4350152283333333,0.31714087,0.4256203566666667,-0.0147116718
659,1778426785140,0.8213806857142857,0.2985975571428571,-0.48895708,0.6686356571428572,0.2575451442857143,-0.2450224168571428
660,1778426785150,0.7495356333333333,0.3259742866666666,-0.5548087666666667,0.8422813833333334,0.13932817495,-0.3980805249999999
661,1778426785160,0.6758321,0.33117786,-0.6137553,0.97387195,-0.0070249503,-0.538325
662,1778426785170,0.63293325,0.330354645,-0.6500989,0.963818115,-0.0901535268666666,-0.5580254016666667
663,1778426785180,0.5406616133333334,0.3335560433333333,-0.7156311666666667,0.8841001916666666,-0.3133993133333333,-0.58910315
664,1778426785190,0.5289536266666667,0.30341201,-0.72630252,0.6892596266666667,-0.2959642033333333,-0.5580254233333334
665,1778426785200,0.51192008,0.2640804433333333,-0.7193305733333334,0.4035274,-0.1963931766666666,-0.51658837
666,1778426785210,0.50338304,0.25672227,-0.7001018,0.27290404,-0.11636983,-0.4923573699999999
667,1778426785220,0.4838697,0.2537139733333333,-0.6794298666666667,0.1204422645833333,0.0410297796666666,-0.4366922966666666
668,1778426785230,0.44484302,0.24769738,-0.638086,0.0154243475,0.2098322,-0.34773505
669,1778426785240,0.37435113,0.30428605,-0.6375982,0.015882496,0.1077413585,-0.2434298
670,1778426785250,0.33950153,0.3261166,-0.63390895,0.0429641866666666,-0.0363973853333333,-0.1562287866666666
671,1778426785260,0.3356293399999999,0.3293485,-0.6275976,0.0693332,-0.13515393,-0.11438452
672,1778426785270,0.3375603516666667,0.3339625766666667,-0.6288375199999999,0.1197550366666666,-0.202629095,-0.0954731483333333
673,1778426785280,0.34849593,0.34386152,-0.6247926,0.19960022,-0.2929099,-0.07971791
674,1778426785290,0.3341353566666666,0.3468596666666666,-0.6205748583333334,0.2621120916666666,-0.2383138083333333,-0.0575995003333333
675,1778426785300,0.3330377283333333,0.3452233916666666,-0.6252905666666666,0.28619036,-0.1060869366666666,-0.0103338036666666
676,1778426785310,0.343129768,0.311957228,-0.64998916,0.28099802,0.04428773,0.031612277
677,1778426785320,0.330781505,0.33026317,-0.68952195,0.16353372,0.338750235,0.1382082644999999
678,1778426785330,0.34819105,0.3588624,-0.6975406999999999,0.1226312,0.4317290199999999,0.17241672
679,1778426785340,0.396273125,0.3903988066666666,-0.7146351833333333,0.1181260679999999,0.42294782,0.095982205
680,1778426785350,0.425177265,0.42334789,-0.7648921999999999,0.142942465,0.37048975,-0.05849035
681,1778426785360,0.4270981299999999,0.4428307399999999,-0.7821188,0.15622878,0.3475823,-0.15012014
682,1778426785370,0.4244150066666667,0.4773652666666666,-0.7861027466666667,0.1962659116666666,0.2304998166666666,-0.3847687333333333
683,1778426785380,0.38977882,0.4608196,-0.7671179,0.2255619866666667,0.31398474,-0.5824090866666666
684,1778426785390,0.3336881666666667,0.4779445633333333,-0.8593489,0.1848885433333333,0.4148284133333333,-0.7518223933333333
685,1778426785400,0.28467108,0.47293411,-0.9084473066666666,0.0684169049999999,0.4049273116666667,-0.9234755166666668
686,1778426785410,0.2640804466666667,0.43441561,-0.9063536933333332,-0.1343394466666666,0.4316781066666666,-0.9631309
687,1778426785420,0.2647004083333333,0.4131237083333334,-0.8775613266666666,-0.20960314,0.4381939933333333,-0.960814705
688,1778426785430,0.24605095,0.3816686,-0.8431589599999999,-0.28405234,0.4667010599999999,-0.94974273
689,1778426785440,0.2243728566666666,0.36625104,-0.76746347,-0.263359285,0.5397757900000001,-0.889419785
690,1778426785450,0.193029565,0.366362835,-0.6989432,-0.1642209443333333,0.5883650333333333,-0.8470664666666666
691,1778426785460,0.17677861,0.3743511,-0.6890036,-0.0091375274999999,0.5999714749999999,-0.8155814666666666
692,1778426785470,0.15409435,0.38965687,-0.7120538,0.1788308,0.54702985,-0.7838928
693,1778426785480,0.1513764228571428,0.3907283757142857,-0.7183520428571428,0.2630865728571429,0.5012585757142858,-0.7642796785714285
694,1778426785490,0.132507735,0.422524665,-0.91258373,0.6097962499999999,0.2485712433333333,-0.6651813333333333
695,1778426785500,0.12907257,0.41992287,-0.9970297,0.65232775,0.036880985,-0.57795488
696,1778426785510,0.1335037233333333,0.4116093799999999,-1.0880309333333331,0.5951355,-0.0986038333333333,-0.50274209
697,1778426785520,0.13269067,0.39855984,-1.1184798,0.5154176,-0.1516473,-0.45448375
698,1778426785530,0.13269067,0.39855984,-1.1184798,0.4085379714285714,-0.16519542,-0.4019929685714286
699,1778426785540,0.1428132,0.3477032199999999,-1.0965884,0.10705414,-0.1881465,-0.24388795
700,1778426785550,0.1485655766666666,0.3086054083333333,-1.0514943166666666,-0.0434223393333333,-0.2388483066666666,-0.1046615776666666
701,1778426785560,0.1474650514285714,0.2897904457142857,-1.0261748714285714,-0.0754636771428571,-0.2696751871428571,-0.0290597311428571
702,1778426785570,0.14391084,0.27269882,-0.9955459,-0.08750644,-0.32818735,0.12095132
703,1778426785580,0.1599048,0.28257746,-0.9914167514285712,-0.0166897102857142,-0.4350014928571428,0.2522437142857142
704,1778426785590,0.1865149466666666,0.3040827766666666,-1.0360767199999998,0.0651589613333333,-0.5589417116666667,0.3430517366666667
705,1778426785600,0.20879267,0.3187381,-1.0826851,0.1108720449999999,-0.61911196,0.37598756
706,1778426785610,0.1648470216666666,0.2994788516666667,-1.2116764166666667,-0.0866410566666666,-0.4054618033333333,0.4080070733333333
707,1778426785620,0.1482142242857143,0.2920292342857143,-1.2619639142857142,-0.2554943971428571,-0.1884082928571428,0.41449388
708,1778426785630,0.14452063,0.28593132,-1.264403,-0.33337972,-0.08506299,0.41370848
709,1778426785640,0.1937918,0.288492425,-1.1749161,-0.4179336466666667,0.1879428733333333,0.3261511466666666
710,1778426785650,0.20848778,0.29330978,-1.1307976,-0.3921755,0.30787608,0.26221392
711,1778426785660,0.1938092171428571,0.2956270057142857,-1.0657329285714283,-0.1087122,0.3360413285714285,0.1647590785714285
712,1778426785670,0.1730893649999999,0.28885831,-1.0746664,0.2020436733333333,0.23559036,0.1097012133333333
713,1778426785680,0.14525237,0.2778414133333333,-1.1272812333333333,0.3347541466666666,0.1657990113333333,0.10048733
714,1778426785690,0.1175983229999999,0.275625825,-1.1748551,0.4271475199999999,0.1028035306666666,0.1179988033333333
715,1778426785700,0.096651986,0.27727225,-1.2078143,0.42332962,0.093767814,0.17195857
716,1778426785710,0.0795255468571428,0.2934927428571429,-1.241048057142857,0.2820670271428571,0.1056796885714285,0.2898337457142857
717,1778426785720,0.07646788,0.29934675,-1.2479997,0.1438078583333333,0.1095994033333333,0.3904447133333333
718,1778426785730,0.0806347841666666,0.3095099333333334,-1.23260245,0.071318515,0.10888673,0.4434881799999999
719,1778426785740,0.0990301666666666,0.3375196866666667,-1.1524859333333333,-0.05131268,0.072998397,0.5475643200000001
720,1778426785750,0.09939604,0.3413004,-1.1351272,-0.06780604,0.06383542,0.56107974
721,1778426785760,0.101987655,0.334013385,-1.0696966,-0.06658431,0.06627888,0.56596667
722,1778426785770,0.1011237833333333,0.32121792,-1.0403249666666667,-0.0401643876666666,0.1393790866666666,0.5853107166666667
723,1778426785780,0.1072623533333333,0.3174575466666666,-1.0206083333333331,-0.0206676063333333,0.1783217433333333,0.6258823466666666
724,1778426785790,0.1252715366666666,0.3299074666666666,-1.0003124116666666,0.0202349108333333,0.198378485,0.6832273166666667
725,1778426785800,0.14336202,0.3488618,-0.98786247,0.09392053,0.17088956,0.7098254
726,1778426785810,0.1720730533333333,0.3737616333333333,-0.9855758283333332,0.1184060466666666,0.1582141066666666,0.7102326666666667
727,1778426785820,0.2119635899999999,0.4240084716666667,-0.9992859783333332,0.2432261733333333,0.0821613770833333,0.6509023916666666
728,1778426785830,0.2437075957142857,0.4594606171428571,-1.0214707714285711,0.3265292928571428,-0.0348847693571428,0.4911356585714285
729,1778426785840,0.2593037466666666,0.4721820433333333,-1.042073,0.30665435,-0.141797097,0.328569145
730,1778426785850,0.26129574,0.4773449299999999,-1.0502442,0.266744485,-0.1888591716666666,0.234190475
731,1778426785860,0.223549625,0.456032705,-1.0452134,0.0853684205,-0.190895385,0.1021672135
732,1778426785870,0.185468135,0.429110405,-1.0206388,-0.0786489026666666,-0.14457144,0.0617992013333333
733,1778426785880,0.13376796,0.39051059,-0.93631474,-0.39466985,0.01720604,0.14375695
734,1778426785890,0.1112869833333333,0.3715257333333333,-0.84252878,-0.57283888,0.0844012166666666,0.2691879333333333
735,1778426785900,0.11065687,0.3730705333333333,-0.7906761933333333,-0.61559945,0.093462385,0.3119994
736,1778426785910,0.1140310499999999,0.3822174,-0.7462021,-0.6214027,0.031306844,0.4111122999999999
737,1778426785920,0.12936295,0.3957547828571428,-0.7233087771428571,-0.4706062428571428,-0.2373647877142857,0.4594797357142856
738,1778426785930,0.208304834,0.426854176,-0.651367268,-0.2695443,-0.59559363,0.52396965
739,1778426785940,0.2392416,0.40856042,-0.6440416333333333,0.0168496979999999,-0.9869037333333334,0.4680245866666666
740,1778426785950,0.24696562,0.37563166,-0.6490013,0.1780672166666666,-1.16171305,0.4260021566666667
741,1778426785960,0.2367008,0.2727394833333333,-0.6738605,0.2062688233333333,-1.1654800333333333,0.5168937933333333
742,1778426785970,0.225379014,0.228915792,-0.66306308,0.1398270508,-1.05609434,0.69684452
743,1778426785980,0.22574489,0.22696446,-0.655648,0.034666602,-0.923933685,0.9795988
744,1778426785990,0.2751380125,0.216445555,-0.59918129,-0.01282817,-0.86849767,1.1383474
746,1778426786010,0.44911155,0.23800169,-0.57363105,0.43799037,-1.2976305,1.3863586
747,1778426786020,0.44911155,0.23800169,-0.57363105,0.4379903699999999,-1.2976305,1.3863586
748,1778426786030,0.5565060716666667,0.226222545,-0.6141923383333333,0.5816964416666667,-1.4980452333333334,1.3124693833333334
749,1778426786040,0.639854435,0.19366983,-0.6480256050000001,0.96753417,-2.04632215,0.995175825
750,1778426786050,0.6665632733333333,0.1104332733333333,-0.6895727133333334,1.0692431999999998,-2.1436788,0.8458701916666667
751,1778426786060,0.65369668,0.085584263,-0.7018092,0.96570155,-1.78166485,0.7506006800000001
752,1778426786070,0.6481650142857143,0.0908502465714285,-0.7033249942857143,0.8226391142857142,-1.4436272714285714,0.7339764085714285
753,1778426786080,0.6734234,0.107079415,-0.72562163,0.6097453566666666,-1.0113383333333332,0.6723081066666667
754,1778426786090,0.7042890333333333,0.1145188766666666,-0.7481127433333333,0.390953745,-0.6743188999999999,0.51350859
755,1778426786100,0.7385187071428572,0.1228643128571428,-0.7823800971428572,0.34116822,-0.6383542,0.44684792
756,1778426786110,0.781752925,0.1190923099999999,-0.901272075,0.168446085,-0.8077674833333334,0.0220420516666666
757,1778426786120,0.7783787333333333,0.0866107389999999,-0.9484903,-0.012217305,-1.0670289,-0.3585779
758,1778426786130,0.7141676666666666,0.0407544126666666,-0.9442420833333331,-0.1983275808333333,-1.1338931833333332,-0.4428009466666666
759,1778426786140,0.6277805333333334,0.0162001316666666,-0.8772869999999999,-0.7110980533333334,-1.1462887,-0.3998113133333333
760,1778426786150,0.5950956857142857,-0.0188425627142857,-0.7020270142857142,-0.8343983,-1.1029390857142858,-0.2843577839999999
761,1778426786160,0.643147275,-0.0485089275,-0.542226725,-0.95646225,-0.8168032,0.196927686
762,1778426786170,0.687906,-0.0556739799999999,-0.45557535,-0.9477574,-0.655153,0.41340306
763,1778426786180,0.7668740000000001,-0.0401242916666666,-0.37919895,-0.773279025,-0.40011675,0.6763296766666667
764,1778426786190,0.8881267285714286,0.0215953385714285,-0.3924793442857143,-0.3335542357142857,-0.164453656,0.8499971857142857
765,1778426786200,1.0502848666666666,0.12606427,-0.5527355066666667,0.5855143233333333,-0.312457572,0.56219963
766,1778426786210,1.041280315,0.206902315,-0.92791998,0.8608109333333335,-0.5672392833333334,0.2812525266666666
767,1778426786220,0.97060543,0.2063535,-1.0852462,1.1239921,-1.1432343,-0.24281894
768,1778426786230,0.8610606514285715,0.1560456928571428,-1.2340354142857142,1.1320206142857143,-1.4791229285714285,-0.4513857742857143
769,1778426786240,0.6593473933333334,0.0092485083333333,-1.3799586,0.6895141583333334,-2.0566560666666667,-0.4665737766666667
770,1778426786250,0.662437025,-0.1147323033333333,-1.2678382,0.09267335,-1.6004924166666663,0.12426018
771,1778426786260,0.7770226728571429,-0.0319095271428571,-1.210445171428571,-0.1482439042857142,-1.2236285857142857,0.2850340971428571
772,1778426786270,0.8448663399999999,0.034758125,-1.188362,-0.27030787,-1.0151054,0.33582318
773,1778426786280,0.9278850985714284,0.1218450914285714,-1.2280159285714287,-0.4152356514285714,-0.8977974142857142,0.1623374414285714
774,1778426786290,0.866239545,0.134245635,-1.2625432,-0.78312925,-0.86819223,-0.33971744
775,1778426786300,0.81529146,0.13208087,-1.2676959,-0.9014844,-0.8875872,-0.47708577
776,1778426786310,0.6688892657142856,0.1181776271428571,-1.2421369285714283,-1.3145165428571428,-0.9299114285714286,-0.4763440042857143
777,1778426786320,0.5975522714285714,0.0761368468571428,-1.177525157142857,-1.5975434714285712,-0.8923650142857144,-0.37891099
778,1778426786330,0.5627361,0.061162104,-1.0145206083333334,-1.8223128333333332,-0.6342308333333334,-0.1595376433333333
779,1778426786340,0.5572479666666666,0.0704919166666666,-0.9671905866666668,-1.8666005666666663,-0.4514294233333333,-0.0618501066666666
780,1778426786350,0.5616268428571429,0.0999012985714285,-0.8706344085714287,-1.8656915857142855,-0.1699296172857143,0.0561777828571428
781,1778426786360,0.5804607,0.137416555,-0.802485855,-1.7882571,0.1050179176666666,0.1189660066666666
782,1778426786370,0.5910101,0.16202165,-0.7655934700000001,-1.7358499333333333,0.2020691349999999,0.1247692283333333
783,1778426786380,0.6301935857142856,0.21717295,-0.7195193285714286,-1.5407767142857145,0.2743657628571428,0.0716239477142857
784,1778426786390,0.6054215,0.2416604333333333,-0.7182736,-1.28755125,0.252210985,-0.0139735425
785,1778426786400,0.5751206714285714,0.24418672,-0.7207563285714286,-1.1615603,0.23564127,-0.056199603
786,1778426786410,0.5149284333333334,0.2411116433333333,-0.7269326666666668,-0.7699447566666667,0.3179553666666666,-0.047596584
787,1778426786420,0.4739910999999999,0.24184339,-0.7399822,-0.6953174,0.3388775,-0.035888333
788,1778426786430,0.4444074828571428,0.24670429,-0.7713952,-0.6365434142857144,0.33946655,-0.0113446404285714
789,1778426786440,0.44389786,0.2511223766666666,-0.78202735,-0.44165558,0.3417790999999999,0.12034045
790,1778426786450,0.4871015628571428,0.2745282228571428,-0.8062404285714286,-0.4097814857142857,0.3746567614285714,0.1642354842857142
791,1778426786460,0.53984857,0.28794363,-0.799315,-0.3798054499999999,0.47504956,0.15174911
792,1778426786470,0.53806276,0.2928742414285715,-0.7997940428571428,-0.3486295199999999,0.5279403285714286,0.1222821342857142
793,1778426786480,0.50836301,0.29373665,-0.8167753000000001,-0.28878655,0.5775222166666666,0.0890336066666666
794,1778426786490,0.4557931714285714,0.2894768114285714,-0.8427233857142857,-0.2540108557142857,0.5422956214285715,0.0873755457142857
795,1778426786500,0.4350457333333333,0.28845178,-0.8408620433333334,-0.24857125,0.48487428,0.1166243566666666
796,1778426786510,0.41167036,0.28873634,-0.83017033,-0.24816401,0.39843684,0.16661349
797,1778426786520,0.41167036,0.28873634,-0.83017033,-0.1897500183333333,0.3475314233333333,0.2380083816666666
798,1778426786530,0.5197051166666666,0.3021314533333333,-0.7914893033333333,-0.0095702233333333,0.2740494283333333,0.2794708566666666
799,1778426786540,0.60399866,0.31550622,-0.81657207,0.13194689,0.22495113,0.2939789
800,1778426786550,0.60399866,0.31550622,-0.81657207,0.13194689,0.22495113,0.2939789
801,1778426786560,0.6164383800000001,0.318524675,-0.8353841599999999,0.13194689,0.22495113,0.2939789
802,1778426786570,0.6288781,0.3215431299999999,-0.85419625,0.13194689,0.22495113,0.2939789
803,1778426786580,0.6341589080000001,0.32234806,-0.8671726100000001,0.156839648,0.247492054,0.2904969659999999
804,1778426786590,0.65528214,0.32556778,-0.91907805,0.1928807,0.3339905699999999,0.2875648
805,1778426786600,0.65528214,0.32556778,-0.91907805,0.1928807,0.3339905699999999,0.2875648
806,1778426786610,0.7458768466666666,0.3089611233333333,-0.84328093,-0.3344487233333333,1.0057896233333332,0.2027054433333333
807,1778426786620,0.8105859,0.2999361983333333,-0.7809703833333334,-0.475482225,1.4733306,0.0987310914999999
808,1778426786630,0.8821768857142857,0.3029357814285714,-0.7813522285714285,-0.2566070328571428,1.4423400857142856,0.0021162118571428
809,1778426786640,0.8951742000000001,0.29690757,-0.7996808,-0.12370021,1.346347,-0.061239243
810,1778426786650,0.88445195,0.2794776783333333,-0.8344897166666666,0.09582949,1.1746684166666668,-0.1638136988333333
811,1778426786660,0.8782219000000001,0.274314775,-0.8462383733333333,0.1646281866666666,1.1297189166666668,-0.1881719483333333
812,1778426786670,0.8577939,0.26593015,-0.87017274,0.28909197,1.07665,-0.20738874
813,1778426786680,0.8553460457142857,0.2467565485714285,-0.8607122885714286,0.2593341042857143,1.3306389857142855,-0.0476256697142857
814,1778426786690,0.8943204000000001,0.22074458,-0.82980454,0.19929479,1.5931365,0.1125519199999999
815,1778426786700,0.983411,0.21647604,-0.78876555,0.13057245,1.8287778,0.23289238
816,1778426786710,1.05718565,0.2175431816666666,-0.7601155133333334,0.126143675,1.8710039,0.238924675
817,1778426786720,1.189093814285714,0.2283844085714285,-0.7099369285714285,0.2165953628571428,1.8309376857142856,0.104697943
818,1778426786730,1.22383165,0.2411726,-0.69387181,0.30390546,1.7547103999999998,-0.035888333
819,1778426786740,1.2255594,0.2497097,-0.6898573600000001,0.3500257699999999,1.7151569,-0.18616119
820,1778426786750,1.1457725142857142,0.2668535428571428,-0.7044661942857143,0.3321361557142857,1.7570447857142857,-0.3322016042857142
821,1778426786760,1.0914052,0.2774552,-0.7116269000000001,0.3005457,1.7475327,-0.42332962
822,1778426786770,1.0784471166666667,0.2744164083333333,-0.7091674,0.3005457,1.7475327,-0.42332962
823,1778426786780,0.9599951,0.2520269,-0.6680878,0.2939789,1.404532,-0.3831651999999999
824,1778426786790,0.9836811285714286,0.2708868685714286,-0.6356120342857142,0.4206898085714285,0.9467757228571428,-0.3605632028571429
825,1778426786800,1.0095102,0.27794304,-0.61509687,0.59757894,0.3791946,-0.35705075
826,1778426786810,1.039773257142857,0.2578634757142857,-0.5989548028571429,0.77080284,0.0495455345714285,-0.4242677314285714
827,1778426786820,1.02908445,0.221140955,-0.6148834200000001,0.9138544,-0.1232929699999999,-0.4763221666666666
828,1778426786830,1.0111566,0.20909756,-0.63650054,0.94959,-0.06688975,-0.4830416999999999
829,1778426786840,0.9857180866666668,0.2089044566666666,-0.6786066399999999,0.8983028333333333,0.1200604666666666,-0.4367177416666667
830,1778426786850,0.9237385885714284,0.2554852828571428,-0.7528401,0.6877688285714285,0.5943937014285714,-0.3762711642857143
831,1778426786860,0.87639266,0.31276214,-0.7871191,0.5364924,0.8043568,-0.3924809
832,1778426786870,0.8329754499999998,0.35075217,-0.8089496500000001,0.4447099,0.77457714,-0.46822822
833,1778426786880,0.7511152428571428,0.3648122285714285,-0.8125648342857142,0.3005457000000001,0.45555276,-0.635758
834,1778426786890,0.7018092,0.3447761999999999,-0.80163217,0.16508633,0.18325958,-0.7327328300000001
835,1778426786900,0.6998477166666667,0.3231286016666666,-0.7750452483333333,0.1041016166666666,0.0876082633333333,-0.74097953
836,1778426786910,0.7031508,0.25123417,-0.69601625,-0.01786781,-0.10369437,-0.75747293
837,1778426786920,0.7031508000000001,0.25123417,-0.6960162500000001,-0.1077522671428571,-0.1850703557142857,-0.7396923371428572
838,1778426786930,0.7031508,0.25123417,-0.69601625,-0.161818204,-0.2078163599999999,-0.7240279999999999
839,1778426786940,0.54783684,0.17842504,-0.5603985,-0.3474296,0.25213462,-0.52488595
840,1778426786950,0.54783684,0.17842504,-0.5603985,-0.3474296,0.25213462,-0.52488595
841,1778426786960,0.54783684,0.17842504,-0.5603985,-0.3474296,0.25213462,-0.52488595
842,1778426786970,0.3672775299999999,0.309581085,-0.5210669666666666,0.0387135921666666,0.2711223566666667,-0.1869247583333333
843,1778426786980,0.36837515,0.3340439,-0.5241769,0.27458394,0.0759,-0.09560041
844,1778426786990,0.3654045814285714,0.3135810071428571,-0.5709305271428572,0.56286868,-0.3163627485714285,-0.1366811057142857
845,1778426787000,0.37524546,0.29776127,-0.5939980766666667,0.6146831333333332,-0.4108577766666666,-0.1367320133333333
846,1778426787010,0.38679087,0.266113085,-0.6339089649999999,0.63682702,-0.437303155,-0.0966694229999999
847,1778426787020,0.3775307485714285,0.2571578642857143,-0.6470064142857144,0.5919066299999999,-0.3412991305714286,-0.050483646
848,1778426787030,0.36807024,0.26891813,-0.6646729,0.44058657,-0.111177474,0.051618114
849,1778426787040,0.36807024,0.26891813,-0.6646729,0.44058657,-0.111177474,0.051618114
850,1778426787050,0.3712411828571428,0.3314304757142857,-0.6584705,0.1960659242857143,0.1748165428571428,0.23365596
851,1778426787060,0.38020512,0.3473983,-0.64772075,0.18081611,0.19792034,0.25244007
852,1778426787070,0.4140050114285714,0.3796650085714286,-0.6596726414285714,0.2391101128571428,0.2354012828571428,0.2456769185714285
853,1778426787080,0.4405135333333334,0.4061009266666667,-0.6775801733333333,0.3538946033333334,0.31637728,0.21899519
854,1778426787090,0.45171626,0.4204774871428571,-0.7271156,0.3694643857142857,0.3669118457142857,0.1598721642857143
855,1778426787100,0.4675011371428571,0.4366979757142857,-0.7764390428571428,0.3602359657142857,0.4008366885714285,0.077296272
856,1778426787110,0.4773449299999999,0.44423324,-0.79425365,0.310625,0.4289801,-0.023365596
857,1778426787120,0.4711599071428571,0.4481794514285714,-0.8030172285714287,0.2118611571428571,0.5520258,-0.1340631057142857
858,1778426787130,0.46917373,0.45600224,-0.8104740999999999,0.1432479,0.6366743,-0.20845777
859,1778426787140,0.4677102266666667,0.4555347266666666,-0.8088479866666667,0.12517647,0.6598871833333334,-0.2321288
860,1778426787150,0.4400605128571428,0.4313579257142858,-0.7636072771428573,-0.0039488073142857,1.023941,-0.4713043685714285
861,1778426787160,0.39746222,0.44856274,-0.7494949700000001,-0.013897184,1.026559,-0.5334381
862,1778426787170,0.39746222,0.44856274,-0.74949497,-0.0138971839999999,1.026559,-0.5334381
863,1778426787180,0.3243220514285714,0.4448865914285714,-0.7482404814285715,0.1216494502857142,0.8142397457142857,-0.5900085828571429
864,1778426787190,0.269924275,0.46085006,-0.7791613000000001,0.2897791999999999,0.6794348800000001,-0.5410739000000001
865,1778426787200,0.2178988866666666,0.4996430066666666,-0.8171208333333334,0.41378484,0.5674938,-0.5060255
866,1778426787210,0.21007323,0.5109445,-0.8227309,0.4476115,0.5172501,-0.5016731
867,1778426787220,0.1990156766666666,0.4964314266666667,-0.8559645800000001,0.5399030666666667,0.452905675,-0.53738325
868,1778426787230,0.1973692433333333,0.4665516133333333,-0.8814335400000001,0.58800871,0.442215545,-0.5628359733333334
869,1778426787240,0.18136947,0.3974883428571428,-0.9270227342857142,0.6179120114285714,0.4986187514285714,-0.54626624
870,1778426787250,0.158972685,0.35041679,-0.969782205,0.6126469333333334,0.4933246,-0.4633412933333333
871,1778426787260,0.120830213,0.31925644,-1.019083875,0.60429845,0.4147775099999999,-0.351629315
872,1778426787270,0.0951100811428571,0.2928132457142857,-1.0667347857142857,0.5885250285714286,0.1757328414285714,-0.10380346
873,1778426787280,0.0968436342857142,0.2862884642857143,-1.0813785142857142,0.5903794457142857,0.0300632968571428,0.0247836742857142
874,1778426787290,0.1243365228571428,0.2415820242857142,-1.1438386000000005,0.5903358242857143,-0.1177006434285714,0.1546361685714285
875,1778426787300,0.1737732028571428,0.2145421371428571,-1.243617842857143,0.5375395985714286,-0.4752749971428572,0.5283984371428572
876,1778426787310,0.2022069199999999,0.21793956,-1.287758,0.5346598,-0.53130007,0.59666264
877,1778426787320,0.2651896885714286,0.2569400885714285,-1.3491292142857143,0.4753840628571429,-0.6826855714285714,0.59801524
878,1778426787330,0.27208906,0.2766625,-1.3637991000000005,0.46288314,-0.7273878000000001,0.5740606
879,1778426787340,0.233001405,0.3028428883333333,-1.5338396,0.1404990066666666,-0.6797402866666666,0.2689843266666666
880,1778426787350,0.1857599685714285,0.3406906014285714,-1.3381878571428572,-0.0778853228571428,-0.6089017457142857,0.0727584142857142
881,1778426787360,0.17891288,0.34959355,-1.211717,-0.2049453,-0.5849035,-0.09697486
882,1778426787370,0.1017132506666666,0.3322754833333333,-0.9508074866666666,0.2416480938333333,-0.7262424183333334,-0.3119994233333333
883,1778426787380,0.063113436,0.32361645,-0.8203527300000001,0.605062,-0.8303185699999999,-0.46105054
884,1778426787390,0.0464574125714285,0.2911058442857143,-0.8440823614285714,0.7414594857142857,-0.7179629985714285,-0.4897612028571428
885,1778426787400,0.0666502299999999,0.249221855,-0.90929085,0.9027061,-0.45173484,-0.5235115
886,1778426787410,0.0735815266666666,0.2440386266666666,-0.96023893,0.7002042666666667,0.1494583653333333,-0.5713880666666666
887,1778426787420,0.0698008166666666,0.2403189016666666,-0.973634025,0.52710033,0.5367723783333332,-0.5787438783333333
888,1778426787430,0.0687845,0.22568391,-0.960117,0.38087448,0.75732017,-0.53038377
889,1778426787440,0.0753499233333333,0.2175126966666666,-0.9462137533333334,0.3808744799999999,0.75732017,-0.53038377
890,1778426787450,0.08848077,0.20117027,-0.91840726,0.37354409,0.8439103349999999,-0.44753516
891,1778426787460,0.1089000785714285,0.1956472985714285,-0.9341224028571428,0.4663519914285715,0.89485212,-0.2070833185714285
892,1778426787470,0.15067952,0.184949815,-1.0448475000000002,0.5175556,0.8515461700000001,-0.09682214
893,1778426787480,0.17360769,0.18488884,-1.0889659,0.5083926,0.7539604299999999,0.06352998
894,1778426787490,0.1761862385714285,0.1851327542857142,-1.0939836285714286,0.5083926,0.75396043,0.06352998
895,1778426787500,0.2315727471428571,0.1986004442857142,-1.1734830428571428,0.2935643814285714,0.6163630285714286,0.2710932628571428
896,1778426787510,0.253581875,0.212725835,-1.1857094,0.1595885475,0.48181997,0.3549127
897,1778426787520,0.26262857,0.21953371,-1.1880484,0.0788016185714285,0.3777110828571429,0.4033674085714286
898,1778426787530,0.26221043,0.21995185,-1.1843374,0.02565634,0.30008754,0.43936482
899,1778426787540,0.26395269,0.2277746157142857,-1.162088714285714,-0.10578877,0.0926115372857142,0.5562800871428571
900,1778426787550,0.26613342,0.2382049666666666,-1.1299846333333334,-0.1665625899999999,-0.0304414506666666,0.6282240166666667
901,1778426787560,0.26565574,0.24516675,-1.1086622499999998,-0.210901225,-0.115529887,0.686383455
902,1778426787570,0.2697892685714285,0.2602242457142857,-1.0858298857142858,-0.2414881171428571,-0.1872520114285714,0.7292640057142857
903,1778426787580,0.2713877983333333,0.2673326683333333,-1.0756013833333335,-0.2490803,-0.21517728,0.7405214
904,1778426787590,0.27794304,0.27465016,-1.0618303,-0.2490803,-0.21517728,0.7405214
905,1778426787600,0.2861316857142857,0.2830827142857143,-1.0476482428571428,-0.26766806,-0.3276201257142857,0.7470663714285715
906,1778426787610,0.28796104,0.3029357871428572,-1.0420381142857145,-0.2621266457142857,-0.42112614,0.7251843314285714
907,1778426787620,0.2755038666666666,0.30219245,-1.0433332,-0.2802853333333333,-0.5101742733333333,0.7152722866666666
908,1778426787630,0.2638568542857142,0.2960277457142857,-1.0402348714285714,-0.3131775142857143,-0.56169057,0.7284349785714286
909,1778426787640,0.24739249,0.28574836,-1.0321333,-0.3680463,-0.61590487,0.7600691
910,1778426787650,0.24135554,0.26538134,-0.9998144,-0.4923064833333333,-0.6907867833333333,0.837572625
911,1778426787660,0.2319473342857143,0.2516871628571429,-0.9729487142857144,-0.5523749,-0.7162395,0.88147855
912,1778426787670,0.23413969,0.2019630033333333,-0.90134322,-0.6311256083333333,-0.7873034799999999,0.9866746666666666
913,1778426787680,0.27583492,0.1415239342857142,-0.8135230714285714,-0.6424338785714285,-0.9522953,1.2154473
914,1778426787690,0.3072537066666667,0.1130960283333333,-0.7601866166666666,-0.5892813283333332,-1.0355438833333332,1.33293335
915,1778426787700,0.31892106,0.109762505,-0.7351038500000001,-0.48288897,-1.0934488,1.4216361
916,1778426787710,0.3127534457142857,0.1238486907142857,-0.7276295642857143,-0.3666500442857142,-1.1998702428571428,1.4548846714285717
917,1778426787720,0.30465192,0.13921544,-0.7207127999999999,-0.21166481,-1.3417655,1.4992161
918,1778426787730,0.30184686,0.15531394,-0.71693206,-0.1206458899999999,-1.5366314999999997,1.5059355000000003
919,1778426787740,0.3593153942857143,0.1519775071428571,-0.7106773457142858,0.1221076028571428,-1.8862427857142856,1.455124657142857
920,1778426787750,0.3854289916666666,0.1277005416666666,-0.7148181166666667,0.1899281833333333,-1.9662734166666669,1.4177927166666666
921,1778426787760,0.3899008,0.066142072,-0.6831699333333333,0.0914007065,-1.7536414,1.4025466
922,1778426787770,0.3967507866666667,0.0550641886666666,-0.6546316866666667,-0.1099557484999999,-1.4620296000000002,1.4292719500000002
923,1778426787780,0.4104507600000001,0.0582351,-0.62442666,-0.20693061,-1.3321444,1.440573
924,1778426787790,0.4993076116666666,0.076457715,-0.5070214333333333,-0.4222860666666666,-0.9621891166666666,1.3729959333333337
925,1778426787800,0.5770255366666667,0.1044369846666666,-0.4350863599999999,-0.4407901866666666,-0.8234972533333332,1.218778
926,1778426787810,0.6361869642857142,0.1331784985714285,-0.4014781428571428,-0.3481713771428571,-0.8332420085714285,0.9971939257142858
927,1778426787820,0.7399387,0.1328300457142857,-0.3937250714285714,-0.0480838217857142,-0.9838857514285716,0.54428094
928,1778426787830,0.7596886833333333,0.1103113111666666,-0.4076254216666666,0.0067195175,-1.0036516,0.4663956199999999
929,1778426787840,0.7618127600000001,0.0160171945573333,-0.4975290433333333,0.0830267646666666,-0.6474662333333333,0.14467325
930,1778426787850,0.7543123399999999,0.000121958336,-0.51448125,0.0407497983333333,-0.4800891733333334,0.1201622833333333
931,1778426787860,0.7218714,-0.02494048,-0.5338116,-0.1579086666666666,0.0191913566666666,0.2096285866666666
932,1778426787870,0.7012255714285713,-0.034087355,-0.5173908142857143,-0.32742378,0.39263365,0.32925636
933,1778426787880,0.734286728,-0.0051588378,-0.4975778199999999,-0.34465018,0.635208214,0.490341534
934,1778426787890,0.8173850733333333,0.0584383686666666,-0.4879146533333333,-0.1639664166666666,0.5567527600000001,0.5620978266666666
935,1778426787900,0.8596233,0.08787098,-0.50832236,0.05024367,0.34193182,0.5357288
936,1778426787910,0.8950725333333333,0.1196208066666666,-0.5761718533333333,0.3118976233333333,-0.02173662,0.41192678
937,1778426787920,0.91832015,0.1140833125714285,-0.7356352642857144,0.6373070014285714,-0.5592907742857143,0.2148063935714285
938,1778426787930,0.8870639766666666,0.0578895546666666,-0.8896657566666667,0.7312057,-0.85101167,0.0920879355
939,1778426787940,0.8766713714285714,0.0447151517142857,-0.9425027514285714,0.5647667214285714,-0.7500770942857143,0.1188351042857142
940,1778426787950,0.8743193000000001,0.0523811059999999,-0.98017913,0.3109304,-0.50671273,0.2055561499999999
941,1778426787960,0.96923338,0.06451596,-0.9938995,0.0693332,-0.2997057649999999,0.21670444
942,1778426787970,1.010993933333333,0.0717318286666666,-1.0013999,-0.2115629933333333,-0.0690786773333333,0.2017382433333333
943,1778426787980,1.0110346,0.077260606,-1.0076197,-0.29016098,-0.021838432,0.14950927
944,1778426787990,0.9327895428571428,0.1014606194285714,-1.0200072142857144,-0.3953388885714285,-0.0180423412857142,0.0358883328571428
945,1778426788000,0.82096255,0.11775078,-1.0173155,-0.678824,-0.21074851,-0.2921463
946,1778426788010,0.7874849833333334,0.1103926208333333,-1.0092967166666666,-0.7379506516666666,-0.4155410783333333,-0.3484477066666667
947,1778426788020,0.78608245,0.094212815,-1.0034732,-0.79045963,-0.64965516,-0.3727805
948,1778426788030,0.7909956271428572,0.0853795478571428,-1.0029853714285717,-0.8078038228571429,-0.7205591885714286,-0.3690716857142857
949,1778426788040,0.8171295914285714,0.0290173735714285,-1.0018528714285713,-0.8377798428571428,-0.7527605142857142,-0.3563744228571428
950,1778426788050,0.8478746833333334,-0.0134154174666666,-0.9970703333333332,-1.0328203833333334,-0.53654332,-0.2458223533333333
951,1778426788060,0.8415938433333333,0.0061792224,-0.996115,-1.1421143666666669,-0.37008254,-0.2287690333333333
952,1778426788070,0.8025904128571428,0.0416749071428571,-0.9933854971428572,-1.2676545,-0.2814561642857143,-0.2678862285714286
953,1778426788080,0.8020415871428571,0.0577908315714285,-0.9813726028571428,-1.3138185,-0.29061913,-0.2817616
954,1778426788090,0.83139,0.048905294,-0.974813,-1.3138185,-0.29061913,-0.2817616
955,1778426788100,0.8316745666666666,0.0452465433333333,-0.9749451116666666,-1.3350715,-0.28066712,-0.291357275
956,1778426788110,0.8235846333333333,0.0615076533333333,-0.99377748,-1.4891876333333334,-0.25315274,-0.40159299
957,1778426788120,0.8045591,0.13061738,-1.0301211,-1.5848899,-0.29764408,-0.52610767
958,1778426788130,0.7515682149999999,0.122903513,-0.99914365,-1.6449582333333332,-0.3425681466666666,-0.5483787783333334
959,1778426788140,0.7257479,0.1258871314285714,-0.9546114457142856,-1.6963945428571428,-0.299716679,-0.5321726714285714
960,1778426788150,0.6994746142857142,0.1400255942857143,-0.8763838999999999,-1.9568414285714288,0.1023635621428571,-0.3805472285714285
961,1778426788160,0.670344,0.1552123066666666,-0.7481330666666667,-2.008881333333333,0.5360851833333333,-0.2500984033333333
962,1778426788170,0.6643331857142857,0.1703670814285714,-0.6972358,-1.9711531285714283,0.7067492857142856,-0.1966331528571428
963,1778426788180,0.6785152,0.1995238466666666,-0.6497736833333333,-1.709201,0.9801333,-0.10445796
964,1778426788190,0.7193189857142858,0.2471398728571428,-0.6217435714285714,-1.6354608285714285,0.9917397285714288,-0.1104793428571428
965,1778426788200,0.7212819333333332,0.2610721533333333,-0.6302197,-1.33672585,1.01395995,-0.14943291
966,1778426788210,0.7026629142857143,0.2867240285714286,-0.6647164857142858,-1.1367329142857143,0.9641635571428572,-0.1816451457142857
967,1778426788220,0.6982724,0.29135844,-0.6714416,-1.0225884,0.9068295,-0.19272798
968,1778426788230,0.66778284,0.30922535,-0.6979676,-0.90973105,0.78618358,-0.199752935
969,1778426788240,0.6435828628571428,0.3136332757142857,-0.6999711714285715,-0.6195046428571428,0.4250531285714286,-0.1854630514285714
970,1778426788250,0.66869756,0.3037169166666666,-0.6793688933333333,-0.4812091233333334,0.2668462983333333,-0.1498656133333333
971,1778426788260,0.7627535457142857,0.3044864257142857,-0.6891342828571428,-0.2346158857142857,0.125685522,-0.1265145542857143
972,1778426788270,0.8318168,0.32101468,-0.7020125266666666,-0.1602503183333333,0.1274926633333333,-0.170456855
973,1778426788280,0.7751062266666665,0.3625618,-0.7202656333333334,-0.0439822994999999,0.259465015,-0.32459852
974,1778426788290,0.7084255166666665,0.3705500666666667,-0.7303678416666667,-0.019089539,0.32742378,-0.34804046
975,1778426788300,0.6061329,0.3731925,-0.7536415499999999,-0.0363973865,0.38596503,-0.2309579683333333
976,1778426788310,0.6360562785714287,0.3589669385714286,-0.7871800928571429,-0.1310960508571428,0.3763802542857143,0.0690932214285714
977,1778426788320,0.7373296166666666,0.3460364466666666,-0.7690489166666666,-0.197716715,0.2997057566666667,0.2305507216666666
978,1778426788330,0.8192551,0.3185145266666666,-0.7173182533333332,-0.1619301966666666,0.2123774833333333,0.2497929866666667
979,1778426788340,0.8724289,0.30757892,-0.69150376,-0.10308351,0.16829337,0.236863
980,1778426788350,0.9620073,0.30129808,-0.67723465,-0.0300596606666666,0.1802052433333333,0.1638136956666666
981,1778426788360,0.9960337666666668,0.3199576733333333,-0.67170585,0.21395555,0.310395895,-0.121943973
982,1778426788370,0.9662062628571428,0.3298972842857143,-0.6778966571428572,0.25900686,0.36361754,-0.17715092
983,1778426788380,0.90495116,0.3233318866666667,-0.7002034233333333,0.3488040533333333,0.6460918000000001,-0.2232712533333333
984,1778426788390,0.8769414,0.3109328,-0.71052927,0.3476259714285715,0.9619818857142856,-0.1372265142857142
985,1778426788400,0.8650505,0.30227375,-0.7094926,0.3359759,1.0560333,-0.09972375
986,1778426788410,0.9233814057142856,0.3000436442857143,-0.6711454285714286,0.2536836171428571,1.541932957142857,0.1104575285714285
987,1778426788420,0.96786135,0.29837108,-0.6474768,0.20891592,1.8275561,0.23533584
988,1778426788430,1.103895725,0.3339422383333333,-0.6419886333333333,0.2497675283333333,1.7755052666666666,0.2446260816666666
989,1778426788440,1.2053752285714283,0.3766683314285713,-0.6592283285714285,0.4392557514285714,1.3393220785714284,0.0197658542857142
990,1778426788450,1.1806583333333334,0.3711192083333333,-0.6886580833333333,0.6763041799999999,0.67195179,-0.42707115
991,1778426788460,1.1238766,0.34788616,-0.6977846200000001,0.7820602,0.30283645,-0.7501425333333334
992,1778426788470,1.0649053957142858,0.32167384,-0.6977149142857143,0.7579092142857142,0.3094687,-0.7964810457142857
993,1778426788480,0.9657357871428572,0.2486207771428571,-0.6287213142857143,0.6608034814285714,0.4622722785714286,-0.7536332
994,1778426788490,0.944872215,0.20742064,-0.58527802,0.52519137,0.77564615,-0.59406644
995,1778426788500,0.9972619657142856,0.1642517428571428,-0.51552659,0.3717551285714285,1.2537572857142858,-0.2960296628571429
996,1778426788510,1.06817205,0.16872936,-0.4744484,0.29367345,1.6700292,-0.04780020625
997,1778426788520,1.1376781833333334,0.18802927,-0.454071185,0.3101922666666666,1.8033250833333336,0.0050141854166666
998,1778426788530,1.2371046499999998,0.215286945,-0.466826025,0.3904956,1.8257235,-0.047036625
999,1778426788540,1.2192174,0.24714857,-0.49960235,0.5493205666666666,1.7702365833333331,-0.2477313208333333
1000,1778426788550,1.19333175,0.263490985,-0.5163411250000001,0.61162883,1.7382170499999998,-0.33421965
