id,timestamp,acc_x,acc_y,acc_z,gyro_x,gyro_y,gyro_z
0,1778414994510,0.9508787,0.09470064,0.0034148335,0.027437223,0.0040977663333333,0.0006617513333333
1,1778414994520,0.9508787,0.09470064,0.0034148335,0.051463883,-0.022372281,0.018172706
2,1778414994530,1.0004243,0.104945146,-0.036130156,0.058794048,-0.0529146459999999,0.042606596
3,1778414994540,1.0303650333333332,0.1109617553333333,-0.0245847673333333,0.0520068563333333,-0.0478242515555555,0.0381949204444444
4,1778414994550,1.04914048,0.119238663,-0.0177876228,0.0410183939,-0.01168245422,0.02098260265
5,1778414994560,1.0536285,0.1346521627777777,-0.0192694167111111,0.0269621195555555,0.0525583165333333,-0.0078222385555555
6,1778414994570,1.0333835,0.14790498,-0.0041465834,0.006872032,0.12300937,-0.05207473
7,1778414994580,1.0024365,0.1317556611111111,0.0007859536888888,0.0161026124444444,0.1365837611111111,-0.0623912633333333
8,1778414994590,0.97321223,0.12018994,-0.0117232455,0.031916769,0.11537378,-0.050853035
9,1778414994600,0.9568952533333334,0.1114495859999999,-0.028243519,0.0524819586666666,0.0755668933333333,-0.0284553003333333
10,1778414994610,0.97021516,0.1083599776,-0.0307152072,0.0763864484,0.0216087212,0.010109522
11,1778414994620,0.995952417777778,0.1036442577777777,-0.0325798146666666,0.0874359988888889,0.0097990077777777,0.0271317991111111
12,1778414994630,1.01928713,0.1153793566666666,-0.0357507302222222,0.0883183333333333,0.0298890944444444,0.0307968833333333
13,1778414994640,1.03062719,0.12714156,-0.0388620229,0.082800346,0.0581373878,0.01114796275
14,1778414994650,1.0312424333333334,0.1385785433333333,-0.0462662518888888,0.0811239083333333,0.0812681395555555,-0.0059218246666666
15,1778414994660,1.0322858499999998,0.147889725,-0.0572289525,0.07882984,0.094055208,-0.0206771798
16,1778414994670,1.0451186,0.15877281,-0.0835279088888888,0.0823455999999999,0.0712909655555555,-0.0376858806666666
17,1778414994680,1.02284937,0.159003174,-0.0912339841,0.075042582,0.03101577,-0.0474933734
18,1778414994690,0.9860331,0.15717381,-0.064424485,0.0425726586666666,-0.0793846944444444,-0.0570293793333333
19,1778414994700,0.99042366,0.147514704,-0.0369838639,0.0498756773,-0.0658646074,-0.0354596845
20,1778414994710,1.0032428333333334,0.1366678588888888,-0.0295986093333333,0.0661242146666666,-0.0391366448888888,-0.0253331933333333
21,1778414994720,1.000619355,0.10694527,-0.039423029,0.098010444,-0.0259151948,-0.0100484376
22,1778414994730,0.99139935,0.09640807,-0.025153907,0.10888352,-0.016874656,0.01267508
23,1778414994740,1.005159255,0.0976764323999999,-0.0229098739,0.1195122647999999,0.0304660068,0.0311226677999999
24,1778414994750,1.0221633,0.10031073,-0.045155074,0.13209572,0.1144575,0.04566083
25,1778414994760,1.0252366199999998,0.116994633,-0.1114790673999999,0.131668125,0.134554381,0.0537851014
26,1778414994770,1.0409449,0.13762999,-0.20525588,0.1219828033333333,0.12552063,0.0521765381111111
27,1778414994780,1.0555799,0.15961297,-0.26016763,0.0953770133333333,0.0676937556666666,0.0314756024444444
28,1778414994790,1.07040998,0.1865413699999999,-0.285534934,0.0694227879999999,0.0405449886,-0.0006413895999999
29,1778414994800,1.0806321333333333,0.1991376333333333,-0.31213202,0.0649703899999999,0.0514044949999999,-0.0206500325555555
30,1778414994810,1.0985397200000002,0.2278425679999999,-0.444013708,0.0882979705,0.121909839,-0.0838387895
31,1778414994820,1.1219556,0.26041153,-0.73580515,0.12476555,0.08025006,-0.17424418
32,1778414994830,1.1556467,0.28455928,-1.049177,0.091413294,-0.152788172,-0.243941864
33,1778414994840,1.1233142555555555,0.2834752088888889,-1.0730267777777778,0.0570293811111111,-0.5958221444444445,-0.4166147888888888
34,1778414994850,1.08540482,0.286754524,-1.01988272,0.06771242,-0.723991456,-0.50214698
35,1778414994860,0.9929678333333334,0.29147026,-0.8497311333333334,0.1233402433333333,-0.8543462333333333,-0.66638344
36,1778414994870,0.912733156,0.267381465,-0.6938575849999999,0.2245779889999999,-0.733398487,-0.69706835
37,1778414994880,0.79544276,0.19010256,-0.71409655,0.40942037,-0.42797485,-0.58106846
38,1778414994890,0.8337375999999999,0.1437279,-0.8578244400000001,0.461098064,-0.0964680517,-0.300689561
39,1778414994900,0.8669373911111111,0.1122762022222222,-0.9744302,0.4177007544444444,0.0497755627777777,-0.1769590566666666
40,1778414994910,0.921901346,0.0302029824,-1.24826796,0.24418619,0.279386265,0.007177455
41,1778414994920,0.9125566444444444,-0.0068567683333333,-1.3349491555555557,-0.1410208755555555,0.4330482777777777,0.0815650788888888
42,1778414994930,0.85629382,-0.0256813767,-1.35210331,-0.35548256,0.4380843719999999,0.0082769824
43,1778414994940,0.689278,-0.029788323,-1.1799774,-0.7455560555555556,0.5064178222222222,-0.1263266084444444
44,1778414994950,0.6183253777777777,-0.0287042492222222,-1.0083955333333334,-1.0100529333333332,0.7101014333333333,-0.1342676111111111
45,1778414994960,0.6037974399999999,-0.0285199568,-0.936816832,-1.0388985,0.73446745,-0.13392825
46,1778414994970,0.5933577777777779,-0.0040517273333333,-0.6622710377777777,-1.2284647222222222,1.2012226944444444,-0.0234327788888888
47,1778414994980,0.62663104,0.0292242669,-0.53011633,-1.28948327,1.68997003,0.192386345
48,1778414994990,0.6513591466666666,0.0912824256666666,-0.5424199066666666,-0.848925,1.4944378,0.4237753
49,1778414995000,0.6325216850000001,0.119702105,-0.593403535,-0.65834064,1.1865707799999998,0.525298102
50,1778414995010,0.5974501733333333,0.1536708811111111,-0.6538118777777778,-0.40137756,0.4091149466666667,0.7037469233333333
51,1778414995020,0.590479564,0.1497953219999999,-0.632927192,-0.320114514,-0.1258498009999999,0.789000845
52,1778414995030,0.59717916,0.1143765955555555,-0.3722168466666666,-0.2523308199999999,-2.0964532666666664,1.00245125
53,1778414995040,0.7798381670000001,0.0652751524,0.131666218,-0.211628041,-3.00307779,1.0908204600000002
54,1778414995050,0.9843257,0.011464084,0.41414002,0.10766183,-3.6172848,1.0517262
55,1778414995060,1.1606165000000002,-0.00168302529,0.474091674,0.381810094,-3.5464264,0.90756628
56,1778414995070,1.3283701444444445,0.0317362688111111,0.5783264133333333,0.8760398177777777,-3.188809311111111,0.5625733222222222
57,1778414995080,1.31969893,0.0482528165,0.5870464559999999,1.23217061,-3.02977186,0.364523088
58,1778414995090,1.3638296,0.10396948,0.6362262,1.716099,-2.8824356,0.21303298
59,1778414995100,1.4379057333333334,0.0925257228888888,0.6880720222222222,1.8024320666666669,-2.7432981555555553,0.13511602
60,1778414995110,1.7703838399999998,0.0413499728,0.8519521360000001,2.1577416,-2.06243418,-0.238749644
61,1778414995120,1.7525786666666667,0.0079205161533333,0.9155954688888888,2.116611333333333,-1.5047034333333331,-0.5863624866666667
62,1778414995130,1.55320656,-0.0285169070659999,1.3349072,1.92177136,-1.07895476,-0.722540674
63,1778414995140,1.466745488888889,-0.0138829235555555,1.5005923111111112,1.839422311111111,-0.7772437222222223,-0.6173799355555556
64,1778414995150,1.44523068,0.093517648,1.46910396,1.72648336,-0.49907746,-0.4306778519999999
65,1778414995160,1.4730127666666666,0.1837437722222222,1.3892172222222223,1.558729466666667,-0.3717769111111111,-0.3183362511111111
66,1778414995170,1.54916045,0.29701428,1.2631835,1.26546172,-0.3154568,-0.236061918
67,1778414995180,1.658701166666667,0.3644013466666667,1.2761042666666669,0.8445472266666667,-0.2375941266666666,-0.2577266366666667
68,1778414995190,1.51046623,0.347212318,1.2672324199999998,0.0639862491,-0.241055601,-0.393355093
69,1778414995200,1.326117411111111,0.3078465511111111,1.2094167666666666,-0.3311979823333333,-0.1742696422222222,-0.4313429933333333
70,1778414995210,1.12488278,0.247221746,1.21012544,-0.71307254,0.053128438,-0.394882212
71,1778414995220,0.9292818111111112,0.1643591766666666,1.2409566,-1.1452537511111112,0.7597921833333333,-0.2922734488888889
72,1778414995230,0.9267309,0.09811548,1.1262547,-1.2985849,1.7888662,-0.24265908
73,1778414995240,0.96021764,0.087849637,0.99164624,-1.3285165,2.537765,-0.33001024
74,1778414995250,1.0321639,0.07857166,0.70187026,-1.2628842,2.894907,-0.4943960066666666
75,1778414995260,1.0748494,0.08320607,0.46466127,-1.1434298,2.873731,-0.61710846
76,1778414995270,1.080422233333333,0.0813089422222222,0.3846599811111111,-1.0423854333333331,2.7434168666666667,-0.6643472866666666
77,1778414995280,1.10068621,0.0650830656,0.212158712,-0.688699725,2.2557979,-0.6905322700000001
78,1778414995290,1.1242593777777778,0.0970517297777777,0.18359811,-0.3602471555555555,1.8561951333333333,-0.6190088555555556
79,1778414995300,1.185868,0.164634592,0.133852312,-0.009376504,1.44288228,-0.435320292
80,1778414995310,1.2699724666666667,0.2276182955555555,0.0877727311111111,0.1530002733333333,1.1015951555555556,-0.3048297455555555
81,1778414995320,1.3939562899999998,0.306530079,0.047142995,0.281142446,0.409275296,-0.190675966
82,1778414995330,1.4116372,0.31922594,0.11518965,0.2701472,-0.2746522,-0.22127941
83,1778414995340,1.26757393,0.244532546,0.165488301,0.238810739,-0.45497431,-0.259762807
84,1778414995350,1.0814757,0.1451168622222222,0.2196706844444444,0.2585411,-0.5776324,-0.21272756
85,1778414995360,0.96856262,0.0884868695999999,0.249307226,0.335507858,-0.62307946,-0.1137703021999999
86,1778414995370,0.8796346333333332,0.041577632,0.2795081833333333,0.4988076766666667,-0.6639655333333334,0.065411561
87,1778414995380,0.8789469333333334,0.0603050088888888,0.2602760433333333,0.8447508355555556,-0.6594859944444446,0.2773076733333333
88,1778414995390,0.8838930249999999,0.09950275,0.155271261,1.118491894,-0.386681578,0.522121664
89,1778414995400,0.9732071666666666,0.1167073502222222,0.0828029311111111,1.2061688444444445,-0.1569622888888889,0.61605641
90,1778414995410,1.0690105,0.139108727,0.049530327,1.1936261,0.070843012,0.5965228679999999
91,1778414995420,1.2078652333333335,0.1870129433333333,0.0544950473333333,1.0892933666666669,0.41234738,0.4494308666666666
92,1778414995430,1.25528975,0.219906119,0.0774740331999999,0.98703754,0.733856632,0.15585768
93,1778414995440,1.1085403,0.1952248,-0.023202572,0.82785076,1.009425,-0.12720895
94,1778414995450,1.03219438,0.110902812,-0.0864501664,0.765727576,0.86153898,-0.168990901
95,1778414995460,0.9649851611111112,0.0602643566666666,-0.1301939122222222,0.7533952666666667,0.7038996622222222,-0.1540862288888889
96,1778414995470,0.888710388,0.0281113958,-0.184315636,0.749967735,0.36551572,-0.068873033
97,1778414995480,0.8775105333333334,0.025204723,-0.2107033466666666,0.74477554,0.1238238322222222,0.044167651
98,1778414995490,1.04824405,0.0935298485,-0.1146011979999999,0.6466734460000001,0.130706045,0.1047297628
99,1778414995500,1.1710135,0.17327231,-0.05881441,0.5016583,0.50539976,-0.014202199
100,1778414995510,1.2439903,0.204386935,-0.0089182049999999,0.4281122919999999,0.723869256,-0.1173132194
101,1778414995520,1.348093633333333,0.2348511066666666,0.0542172533333333,0.2569800533333333,1.2698496777777777,-0.4511616166666667
102,1778414995530,1.2731657200000002,0.228964592,0.0424475976,0.1845064089999999,1.49559842,-0.6159478190000001
103,1778414995540,0.8749901,0.083937824,-0.070522405,0.042301174,1.5292561,-0.60550237
104,1778414995550,0.8749901,0.083937824,-0.070522405,0.0115144710399999,1.17887418,-0.41100857
105,1778414995560,0.7417980422222222,0.0207092017777777,-0.1250919894444444,-0.0226522515666666,0.6892902533333333,-0.1416656533333333
106,1778414995570,0.5935203988888889,-0.0480820744444444,-0.1885611355555555,-0.0615428583333333,0.1447962533333333,0.1577852433333333
107,1778414995580,0.7109896499999999,0.0075370246999999,-0.1827057779999999,-0.0882979694999999,-0.077592878,0.274484218
108,1778414995590,1.1158578,0.18741947,-0.15985689,-0.2893889,-0.41087115,0.35474956
109,1778414995600,1.2444628,0.24013597,-0.17107704,-0.355360403,-0.394378272,0.20026627
110,1778414995610,1.1320376,0.1760265366666666,-0.1515637133333333,-0.4249291177777777,-0.4448070844444445,0.0191907837777777
111,1778414995620,0.937460165,0.0862397925,-0.128980082,-0.4537068119999999,-0.505552464,0.0090099969999999
112,1778414995630,0.8155150499999999,0.032207165,-0.0940501993333333,-0.4728466866666667,-0.5283574466666666,0.1234420489999999
113,1778414995640,0.7781703799999999,-0.0068296672,-0.0222726403999999,-0.504529281,-0.382955424,0.4173002849999999
114,1778414995650,0.8371525,0.0,0.09101141,-0.54960984,-0.34612134,0.52945185
115,1778414995660,0.94675036,0.080401032,0.125065214,-0.542462931,0.0442100729999999,0.5453949450000001
116,1778414995670,1.0210114444444445,0.1561371522222222,0.1222090266666666,-0.5754690366666666,0.5106937433333333,0.4685707466666666
117,1778414995680,1.03387136,0.192395374,0.0726749744,-0.640259564,1.18069138,0.318343048
118,1778414995690,1.0228273444444445,0.1798580566666666,-0.0243001977777777,-0.6768696799999999,1.4082404666666666,0.2118791666666666
119,1778414995700,1.0028634,0.1498563,-0.23989205,-0.7096518,1.2519314,0.22280654
120,1778414995710,1.0666341555555556,0.1435415711111111,-0.2661537388888889,-0.7680216500000001,1.114490788888889,0.2278969344444444
121,1778414995720,1.0860017666666666,0.1370066388888889,-0.2716046055555556,-0.87254441,0.8884773266666667,0.21445829
122,1778414995730,1.0780477,0.1177507719999999,-0.35405723,-0.98551045,0.6847597679999999,0.181268922
123,1778414995740,1.050647411111111,0.0899307188888888,-0.13816186,-1.1602534666666666,0.4425503555555555,0.1653868944444444
124,1778414995750,1.03501773,0.0872794809,-0.0720621321,-1.19871143,0.53282682,0.113037289
125,1778414995760,1.032977,0.0593835484444444,-0.0904151693333333,-1.2008494,0.6015063933333333,0.10043347
126,1778414995770,1.03977416,0.041106056,-0.099237498,-1.16835225,0.5947666920000001,0.123482771
127,1778414995780,1.0679926,0.0455615977777777,-0.1054058722222222,-1.0496901777777776,0.3715563244444444,0.2363130422222222
128,1778414995790,1.08963367,0.0840384375,-0.201444684,-1.028514,0.14622156,0.3101577
129,1778414995800,1.0870756,0.0910419,-0.2443130299999999,-1.0272924,-0.035200074,0.3852919
130,1778414995810,1.10902822,0.0677448096,-0.1164671615,-1.03663836,-0.1341573294,0.383092867
131,1778414995820,1.0883223666666668,0.0731241853333333,-0.0565175238888888,-1.0132428666666666,-0.02053974,0.2794117233333333
132,1778414995830,1.05983014,0.0771569432,-0.043447655,-0.93505446,0.16381397,0.141380602
133,1778414995840,1.0313779,0.0919328704444444,-0.0877049838888889,-0.7675465222222222,0.1876913133333333,-0.0137270955555555
134,1778414995850,1.0311611333333337,0.1064357549999999,-0.1264606277777777,-0.6242689222222223,0.0744130755555555,-0.1372539877777777
135,1778414995860,1.03643245,0.1227510675,-0.133879765,-0.54625016,-0.002519745,-0.21853061
136,1778414995870,1.0249175333333334,0.1368982333333333,-0.12529187,-0.4697924466666667,-0.072868988,-0.3067980433333333
137,1778414995880,0.96986759,0.13982524,-0.1153359975999999,-0.4391686379999999,-0.0758825016,-0.35884223
138,1778414995890,0.9222693111111112,0.1163821344444444,-0.1301397093333333,-0.4327343766666666,-0.11644276,-0.3120920433333333
139,1778414995900,0.878237239,0.0549605238,-0.167589046,-0.4304946,-0.14087665,-0.28480753
140,1778414995910,0.9172181499999998,0.0282943319999999,-0.17083314,-0.3036419999999999,-0.4287893333333332,-0.0947661633333333
141,1778414995920,0.96040969,0.0249282828,-0.167467092,-0.202526412,-0.5924149599999999,0.0306339889999999
142,1778414995930,1.0157876,0.0245813798888888,-0.1574448311111111,-0.120795045,-0.6609112888888888,0.1388489777777778
143,1778414995940,1.0533847,0.03808149,-0.15497856,-0.0981937,-0.5690806,0.22341739
144,1778414995950,1.0224073,0.031739656,-0.08835881,-0.0979900811111111,-0.2068481541111111,0.3511523333333333
145,1778414995960,0.99116154,0.0432525232,-0.079968082,-0.06704049,-0.021150587,0.4201102
146,1778414995970,0.9675225977777776,0.0682458511111111,-0.0685202577777777,-0.0508869695555555,0.0876480975555555,0.4609691066666666
147,1778414995980,0.970520044,0.0995667804,-0.089322284,-0.0039399640999999,0.1443890198,0.488464004
148,1778414995990,0.9865480244444444,0.1491719775555555,-0.1094711533333333,0.08750387,0.010002624,0.46286952
149,1778414996000,1.002253646,0.164710819,-0.0849195835,0.14919944,-0.21112408,0.34680852
150,1778414996010,1.0103164444444444,0.1433247555555555,-0.029087063,0.1996961511111111,-0.3224340177777777,0.2707919866666667
151,1778414996020,1.006142711111111,0.1276836,-0.0060572645555555,0.2521611422222222,-0.4093779377777778,0.2132365955555555
152,1778414996030,1.00857096,0.1064574351999999,0.0060979166,0.360674774,-0.536827852,0.0837777
153,1778414996040,0.9867512888888887,0.0933049055555555,-0.0138896995555555,0.3986287555555555,-0.5339229333333333,0.0349370697777777
154,1778414996050,0.92502353,0.0739616345,-0.0766660582,0.4340375199999999,-0.517280748,0.0122474871
155,1778414996060,0.9152397666666666,0.0617143075555555,-0.0799843411111111,0.4079950666666667,-0.5279501933333334,0.0601175466666666
156,1778414996070,0.90352833,0.00804925,0.015610667,0.402884305,-0.595347003,0.129530157
157,1778414996080,0.91379656,0.0012195833333333,0.0385896502222222,0.4003255377777778,-0.5627685055555555,0.1723098311111111
158,1778414996090,0.979392548,-0.0272942748,0.0527652732,0.366416724,-0.419422998,0.160988788
159,1778414996100,1.015547,-0.03369099,-0.027593073,0.22922044,-0.08712209,-0.008093726
160,1778414996110,0.98459402,-0.0150039237,-0.1053323612999999,0.0873817,0.091000969,-0.1609277156
161,1778414996120,0.949903,0.021220751,-0.13814831,-0.0171546266666666,0.16536144,-0.2776809766666666
162,1778414996130,0.927023605,0.0357551373,-0.0882490521999999,-0.095628134,0.177985622,-0.361285612
163,1778414996140,0.8584342477777778,0.0335283795555555,0.020756632,-0.1335549655555555,0.0992541988888889,-0.3397837777777778
164,1778414996150,0.8286672960000001,0.0298096651,0.0174400424,-0.110716063,0.0505017991,-0.261717512
165,1778414996160,0.8749901,0.041740242,-0.05417999,-0.0846193157777777,-0.063095434,-0.1591766144444444
166,1778414996170,0.9231128222222222,0.0650478353333333,-0.0617685088888888,-0.0808863599999999,-0.1085017477777777,-0.1324350777777777
167,1778414996180,0.95273241,0.090203434,-0.0711047582,-0.091963053,-0.122184724,-0.129896668
168,1778414996190,0.9140201,0.0921259677777777,-0.0657558744444444,-0.1087138438888888,-0.0738870653333333,-0.1509641044444444
169,1778414996200,0.8512631,0.046331968,-0.0293980588,-0.0738819767,-0.1790546038,-0.126598089
170,1778414996210,0.8672322222222222,0.0387048313333333,-0.009112998,-0.0133538000088888,-0.3673652377777777,-0.060490846
171,1778414996220,0.9304324,0.0491553075999999,-0.016696096,0.03497100728,-0.46126605,-0.0154238935
172,1778414996230,1.0721764333333337,0.0619040213333333,-0.0448298513333333,0.0842460199999999,-0.49883316,0.0163401643333333
173,1778414996240,1.1449144,0.07637641,-0.08128523,0.1052795235,-0.378435152,-0.0051005745
174,1778414996250,1.0958567,0.05271649,-0.15058807,0.06001574,-0.08162446,-0.1143811499999999
175,1778414996260,0.975941114,0.0120769243,-0.183763771,0.0067498615999999,-0.053769828,-0.129530158
176,1778414996270,0.89060074,-0.009268833,-0.120067984,-0.05054761,-0.09323056,-0.0569615069999999
177,1778414996280,0.8764291419999999,-0.0106347661,-0.0797516044,-0.049448086,-0.136478554,0.0346655832
178,1778414996290,0.9146129511111112,0.0078730882222222,-0.0562939342222222,-0.0331045288888888,-0.2056943333333333,0.1666764655555555
179,1778414996300,1.1059317599999998,0.1035324595555555,-0.0735307096666666,0.03191677,-0.243499,0.2197523
180,1778414996310,1.1758369199999998,0.150386824,-0.1006522099999999,0.0436450364,-0.176550128,0.135211044
181,1778414996320,1.1755665666666666,0.1686378966666666,-0.12358444,0.066938681,-0.1337500966666666,0.0411812875333333
182,1778414996330,1.15651568,0.170028223,-0.137831206,0.108639192,-0.131347432,-0.01835596068
183,1778414996340,1.1103560777777777,0.1520244477777778,-0.1663071266666666,0.20967332,-0.18119256,-0.007482879
184,1778414996350,1.1951916,0.1117748199999999,-0.30751795,0.254204078,-0.337874892,0.0502421886
185,1778414996360,1.2064389333333334,0.1120458366666666,-0.3526594777777778,0.25833748,-0.4249206133333333,0.0558416196666666
186,1778414996370,1.20636312,0.110994286,-0.417176804,0.24937839,-0.55991785,0.0597103184999999
187,1778414996380,1.2129433777777776,0.11058234,-0.44975526,0.2530434766666667,-0.6573819377777778,0.0571990588888888
188,1778414996390,1.24843864,0.1158726119999999,-0.52393298,0.292748556,-0.469268128,-0.029962058
189,1778414996400,1.2251222333333331,0.1043760066666666,-0.67040495,0.2142886144444444,-0.0349285811111111,-0.2192432533333333
190,1778414996410,1.1539392,0.1039694799999999,-0.79559517,0.0449888997999999,0.450362421,-0.44197854
191,1778414996420,1.0400572444444445,0.1195801555555555,-0.7871394188888889,-0.09513946,0.74057597,-0.5822902
192,1778414996430,0.9734341333333334,0.1302040766666666,-0.7741576499999999,-0.1252745933333333,0.79870825,-0.5738740666666666
193,1778414996440,0.89352467,0.146176211,-0.760202905,-0.164898221,0.87607713,-0.5581617
194,1778414996450,0.8657212888888889,0.1414276311111111,-0.8639461088888889,-0.18249062,0.9422997888888888,-0.3132458733333333
195,1778414996460,0.899939713,0.1379714689999999,-1.013464678,-0.157201544,0.80889922,-0.203442678
196,1778414996470,0.9592768422222222,0.1757317977777777,-1.0838674777777777,-0.1294147866666666,0.583520311111111,-0.1172996377777777
197,1778414996480,1.064367,0.207048666,-1.005381824,-0.1143811549999999,0.4782170349999999,-0.137287915
198,1778414996490,1.1887889777777778,0.2214898922222222,-0.832599328888889,-0.0776285033333333,0.4430933166666667,-0.24795307
199,1778414996500,1.2202663399999998,0.185083964,-0.7680143279999999,-0.0490815752,0.599225908,-0.410764234
200,1778414996510,1.140107166666667,0.0829011753333333,-0.7668029,-0.0293037004444444,1.0573342833333332,-0.6800935944444445
201,1778414996520,0.97032794,-0.0238306593,-0.8099618980000001,-0.0395523598,1.23091836,-0.7236402479999999
202,1778414996530,0.8789096666666667,-0.05839433,-0.8460317722222223,-0.0683979248888888,1.301817311111111,-0.6828084888888889
203,1778414996540,0.73323791,-0.104164614,-0.92534668,-0.1304464332,1.2750214400000002,-0.508255474
204,1778414996550,0.63534194,-0.053204324,-1.0843011,-0.1664049788888889,1.1045136333333334,-0.3915021944444444
205,1778414996560,0.612483884,0.0019238926,-0.8640076950000001,-0.226777051,0.360880916,0.037414396
206,1778414996570,0.6798126688888888,0.0579437566666666,-0.4429763833333333,-0.1565635488888889,0.10441246,0.2680092433333333
207,1778414996580,0.66142744,0.0759698811111111,-0.2334214777777777,-0.0058878883333333,0.0400020111111111,0.3916718733333333
208,1778414996590,0.62366138,0.0736201522,-0.0061893838,0.2857848795,-0.035994176,0.572944178
209,1778414996600,0.62875617,0.034666654,0.10957957,0.6496190844444444,-0.1268950333333333,0.7714831288888888
210,1778414996610,0.724963047,0.0006128404599999,0.044545282,0.930839594,-0.110089942,0.87201498
211,1778414996620,0.8631872244444445,0.0135238248666666,-0.0632760466666666,1.00309608,-0.0390008984444444,0.8495358333333333
212,1778414996630,0.99749718,0.0391638715,-0.13849893,0.97109445,-0.0132095715,0.77073655
213,1778414996640,1.2411395,0.0560500182222222,-0.2370090833333333,0.8618545666666667,-0.1085017416666666,0.5339314133333333
214,1778414996650,1.3418679,0.0195407743,-0.2226501809999999,0.81257954,-0.562972102,0.281692212
215,1778414996660,1.2454386,-0.022196416,-0.041008487,0.8095253,-0.6637619,0.2399102599999999
216,1778414996670,1.19955784,0.0098176464,0.0660831318,0.97482056,-1.13254901,0.219569048
217,1778414996680,1.2003749666666663,0.0731241866666666,0.29227316,1.5653978333333334,-2.5476912,0.16640498
218,1778414996690,1.351748922222222,0.1037458908888888,0.4391380733333333,1.7582474666666663,-2.7633202666666663,0.12893968
219,1778414996700,1.4733543399999998,0.1008717359999999,0.536741712,1.6027869200000002,-2.16133022,-0.114320067
220,1778414996710,1.459072211111111,0.1254070504444444,0.601014068888889,1.3661599444444446,-1.7269245666666668,-0.2363469955555555
221,1778414996720,1.5019474,0.16522306,0.8461164,0.86181389,-0.7310772300000001,-0.4443608409999999
222,1778414996730,1.5613207999999998,0.20833534,0.9341297066666668,0.7018126222222222,-0.2559874,-0.5613177277777778
223,1778414996740,1.51893312,0.221866603,1.033307308,0.5195561439999999,0.5600324000000001,-0.774096195
224,1778414996750,1.4134057,0.2416265611111111,1.010526488888889,0.4656182999999999,1.7888662,-1.0935693
225,1778414996760,1.35755181,0.33673306,0.88625293,0.626149005,1.3028761,-1.04903847
226,1778414996770,1.1978748,0.22867186,1.122352,0.6342121833333334,0.5716003199999999,-0.8885282000000001
227,1778414996780,0.90402838,0.1538443352,1.30122531,0.6183301240000001,-0.271353648,-0.5486935319999999
228,1778414996790,0.5931036933333333,0.0864684586666666,1.466548966666667,0.5729916955555556,-0.974411722222222,-0.1035216366666666
229,1778414996800,0.287998506,-0.0234403919999999,1.71690502,0.443078076,-1.9859484199999995,0.760474293
230,1778414996810,0.13211136,0.046618573,2.0599983,0.5042374377777777,-2.812866833333333,1.5617159222222223
231,1778414996820,0.13211136,0.046618573,2.0599983,0.59047552,-3.2410029199999997,2.1381333600000003
232,1778414996830,0.3752149933333333,0.2368396991111111,1.879127244444445,0.5728559711111111,-3.2617038444444444,2.3294914666666666
233,1778414996840,0.6196398333333334,0.4150343866666667,1.6940826,0.5018619333333333,-3.1186297333333335,2.4032003666666664
234,1778414996850,0.8497935200000001,0.54187916,1.50345966,0.33795125,-2.4027983199999996,2.08987628
235,1778414996860,0.9468134,0.57627344,1.2758671,0.1669140166666666,-1.623453933333333,1.7444778333333333
236,1778414996870,1.17200132,0.5793630519999999,0.70460206,-0.265077182,0.041033664,0.95814446
237,1778414996880,1.2054362,0.5771678,0.65427595,-0.3967622733333333,0.3467830911111111,0.7234976611111111
238,1778414996890,1.2054362,0.5771678,0.65427595,-0.529879448,0.674115789,0.247484765
239,1778414996900,1.4869973555555556,0.3496206622222222,0.3698962344444444,-0.5844281088888889,1.0078471,-0.2765271488888889
240,1778414996910,1.42291224,0.168744603,0.261192081,-0.5471664,1.3362284,-0.68552333
241,1778414996920,1.376323588888889,0.0847576577777777,0.2274793911111111,-0.4798374755555555,1.494234177777778,-0.8402713033333333
242,1778414996930,1.35604556,0.0241020169,0.146953703,-0.4034951519999999,1.44899074,-0.92069952
243,1778414996940,1.3231734,0.0205703065555555,0.1858136977777778,-0.3034383666666667,1.2291264666666666,-0.9469659466666668
244,1778414996950,1.28352308,0.0269284016,0.221790373,-0.1177408092,0.84431308,-0.926074954
245,1778414996960,1.1454022,0.074181154,0.14397182,0.0741330995555555,0.42008474,-0.8488910444444444
246,1778414996970,1.1249589700000002,0.1088935527999999,0.0899412236,0.0567782532999999,0.10706625,-0.7894895359999999
247,1778414996980,1.1106542333333334,0.089801992,0.1215213213333333,-0.0723344943333333,-0.1537044466666666,-0.7903854466666667
248,1778414996990,1.0982958,0.0375784142,0.228534675,-0.17027367,-0.3314609999999999,-0.7982246500000001
249,1778414997000,1.0921437,-0.0565039736888888,0.4386231533333333,-0.16090735,-0.37869986,-0.79303244
250,1778414997010,1.0668001,-0.15741771,0.6208594,0.1384078022222222,-0.1490891555555555,-0.6887811622222222
251,1778414997020,1.0404570999999998,-0.127095828,0.55977658,0.488219696,0.16308094,-0.496038504
252,1778414997030,1.0253884444444443,-0.0876575577777777,0.4584651,0.7071065911111112,0.4220530444444444,-0.3005538199999999
253,1778414997040,1.03084676,-0.0628085473399999,0.407639634,0.7368344920000001,0.5159063319999999,-0.2398491771999999
254,1778414997050,1.0845958111111111,0.0109491481333333,0.2550114811111111,0.7567209777777778,0.9889107755555556,0.0113855137777777
255,1778414997060,1.09578037,0.0282272562999999,0.1802635632,0.669824559,1.1224317899999998,0.0541516096
256,1778414997070,1.075825,0.025123417,0.10445731,0.48638713,1.3062968,0.0981937
257,1778414997080,1.04953076,0.0065125750999999,0.081215105,0.347419371,1.25669606,0.0473101218
258,1778414997090,0.9354306,-0.0541698266666666,0.0183852199999999,0.1889045133333333,0.936887,0.0377198179999999
259,1778414997100,0.884015,-0.08052299,-0.00804925,0.113342707,0.540462382,0.080601292
260,1778414997110,1.0035952,-0.04735032,-0.03149574,0.1179104933333333,0.0702050137777777,0.1403421544444444
261,1778414997120,1.1029505777777775,0.0363944,-0.0184868493333333,0.1512356066666666,0.0336899246666666,0.1064061977777777
262,1778414997130,1.2089425500000002,0.1854376499999999,-0.0043203738,0.142602292,0.3201908516,0.0389415136
263,1778414997140,1.2185264333333334,0.18424855,-0.0314042733333333,0.0916440555555555,0.8425789388888888,-0.0378216263333333
264,1778414997150,1.12608401,0.104143273,-0.132629683,0.062398047,1.250831955,-0.0799293623
265,1778414997160,0.9738373,0.01243975,-0.27846137,0.1252406522222222,1.3339886,-0.0397220411111111
266,1778414997170,0.91322095,-0.0042441503,-0.329199104,0.24204823,1.1505308,0.023059484
267,1778414997180,0.8591355,0.014391083,-0.4961570199999999,0.3843077766666666,0.7388876000000001,0.1159082626666666
268,1778414997190,0.97714848,0.1022559632,-0.5353971279999999,0.406060725,0.43820654,0.153475375
269,1778414997200,1.179923088888889,0.1734078211111111,-0.4715248088888889,0.3919772966666667,0.0260203993333333,0.09059204
270,1778414997210,1.15523502,0.149295296,-0.369359969,0.371425673,0.0646734517999999,-0.09422319
271,1778414997220,1.0985397,0.118360564,-0.40804207,0.3697153,0.074141584,-0.11193776
272,1778414997230,1.060946,0.025855167,-0.49420568,0.221279416,0.5084539684,-0.1702125889999999
273,1778414997240,1.0287287333333333,-0.0284772709999999,-0.5046127933333334,0.1939949066666666,0.5937689666666667,-0.16426701
274,1778414997250,1.0054651666666663,-0.08363293,-0.5822189433333333,0.18462858,0.6169811666666667,-0.0628663653333333
275,1778414997260,1.0333835,-0.06832716,-0.69626015,0.205580642,0.3793209,0.0661242197
276,1778414997270,1.1234192,0.0139032509999999,-0.6391531,0.2099448099999999,-0.1199042266666666,0.1657941333333333
277,1778414997280,1.1550581599999998,0.0916699821,-0.5809515399999999,0.21541528,-0.268055048,0.144740264
278,1778414997290,1.1897103,0.1936969366666666,-0.4805293933333334,0.2172071,-0.3121175066666667,-0.0144058133333333
279,1778414997300,1.2213152,0.255572848,-0.4024411559999999,0.216820242,-0.218209911,-0.244430534
280,1778414997310,1.2198273,0.27333912,-0.35142294,0.2041757,-0.13476817,-0.4943281400000001
281,1778414997320,1.1612568,0.19888356,-0.3494716,0.2041757,-0.13476817,-0.49432814
282,1778414997330,1.1174331555555554,0.1817551866666666,-0.3948130222222222,0.0141343271111111,-0.1380938933333333,-0.8059960077777778
283,1778414997340,1.0660005888888888,0.1685023788888889,-0.4064430888888888,-0.1796400035555555,-0.1763736555555555,-0.9530744533333334
284,1778414997350,0.991765225,0.1342303899999999,-0.40584685,-0.38834615,-0.22883865,-1.02515442
285,1778414997360,0.9211208,0.0573509069999999,-0.4109691,-0.6320741844444444,-0.2889052977777778,-1.069814177777778
286,1778414997370,0.917827925,0.0292242663,-0.405041907,-0.8549112799999999,-0.391995936,-1.09198106
287,1778414997380,0.89352775,0.027074749,-0.35779527,-0.9856869155555557,-0.4626574066666666,-1.0637736111111111
288,1778414997390,0.87899029,0.020830483,-0.311512082,-1.054169665,-0.45637926,-1.0077453
289,1778414997400,0.8087836577777777,-0.0044718056666666,-0.1711109322222222,-1.1507344333333334,-0.3473430133333333,-0.8675558266666666
290,1778414997410,0.7799997860000001,-0.0404444327,-0.124242001,-1.2521605,0.10040802,-0.5004366
291,1778414997420,0.7896395222222222,-0.0530417122222222,-0.1412616311111111,-1.318403522222222,0.2719882244444445,-0.2246051422222222
292,1778414997430,0.81124853,-0.05286284,-0.161027692,-1.34134422,0.315426238,-0.0435228676
293,1778414997440,0.8538641888888888,-0.0404664511111111,-0.1908512488888888,-1.3509821,0.2780288111111111,0.0593709564444444
294,1778414997450,0.928590772,0.001109822,-0.161283808,-1.32668395,0.29832253,0.089030988
295,1778414997460,1.0092594066666667,0.0895174179999999,-0.1519702488888888,-1.2921370888888888,0.3819407511111111,0.0671762302222222
296,1778414997470,1.0150592,0.097871564,-0.15449072,-1.2514139222222225,0.5474803333333333,-0.0262834016666666
297,1778414997480,1.08733775,0.2226166634,-0.1953498199999999,-1.18252389,0.7136986399999999,-0.1698460815
298,1778414997490,1.0698794555555555,0.2487408166666666,-0.2108388666666666,-1.1470099111111112,0.7236758133333333,-0.2460526699999999
299,1778414997500,0.98661245,0.248977948,-0.1964078,-1.04225815,0.60557868,-0.427134945
300,1778414997510,0.8936971222222222,0.2176685411111111,-0.1112395511111111,-0.9155073666666668,0.3534345166666666,-0.4771565444444444
301,1778414997520,0.881895957,0.209911654,-0.082815807,-0.7373843000000001,0.13168339668,-0.4961606879999999
302,1778414997530,0.92648697,0.19473697,0.00219525,-0.4049068866666667,0.0390518018555555,-0.5241239277777778
303,1778414997540,0.9186816,0.19156605,-0.07665081,-0.273506864,0.160698643,-0.506361836
304,1778414997550,0.9279775533333334,0.1970677233333333,-0.1244821988888889,-0.2004766733333333,0.2625540244444445,-0.4537407444444444
305,1778414997560,0.9031167,0.201569689,-0.148828801,-0.12995775,0.2873273,-0.3361187
306,1778414997570,0.8596233,0.19473697,-0.11323831,-0.10552386,0.16699037,-0.18829367
307,1778414997580,0.84032345,0.18546814,-0.015153322,-0.047493376,0.008170082,-0.032527618
308,1778414997590,0.87718534,0.19400522,0.018781584,0.08383878,-0.08345701,0.12384928
309,1778414997600,0.911358068,0.196737092,-0.0101225423999999,0.14785558,-0.094207922,0.1917755039999999
310,1778414997610,0.9333167,0.1979079,-0.059546154,0.1817779577777777,-0.0648601006666666,0.2597967399999999
311,1778414997620,0.92990184,0.1659548,-0.1247024,0.15164283,0.05764871,0.37246412
312,1778414997630,0.89826584,0.142709544,-0.126848864,0.12476555,0.103095742,0.437946952
313,1778414997640,0.8652706677777778,0.1362206855555555,-0.1063815466666666,0.1068473666666666,0.0937565666666666,0.4950407933333333
314,1778414997650,0.8407137060000001,0.15521637,-0.0192816133599999,0.0940399378,0.002794626,0.551136948
315,1778414997660,0.8701591444444444,0.1752778422222222,0.0375868816222222,0.0990420966666666,-0.0846787011111111,0.5431620066666666
316,1778414997670,0.8971864999999999,0.18522422,0.06491233,0.130263174,-0.148451154,0.469588828
317,1778414997680,0.8791908555555555,0.1886932688888888,0.0067788514755555,0.13881505,-0.14393088,0.44271156
318,1778414997690,0.9146266,0.2078840999999999,-0.055734958668,0.120672877,-0.218148822,0.5103323310000001
319,1778414997700,0.9694604,0.2097276944444444,-0.0660235011111111,0.1030465377777777,-0.2820502266666666,0.5375286111111112
320,1778414997710,0.974136098,0.183961949,-0.0047563754,0.1069898974,-0.49260249,0.639037866
321,1778414997720,1.0914661,0.21086596,0.0566191559999999,0.07406523,-0.5648047,0.66322744
322,1778414997730,1.0597965500000002,0.161049023,0.0805260426,0.082006246,-0.65276664,0.61558133
323,1778414997740,0.983594,0.1125065599999999,0.10689648,0.08750387,-0.70407784,0.63268507
324,1778414997750,0.9716908,0.08535864,0.150630736,0.09678875,-0.647879864,0.687416958
325,1778414997760,1.0367984,0.0910419,0.17937022,0.103385895,-0.51227176,0.7670714
326,1778414997770,1.10824152,0.082821908,0.168052492,0.1063790495,-0.354489926,0.79657535
327,1778414997780,1.1302217666666663,0.0692757224444444,0.1413463311111111,0.1158064611111111,-0.2700369266666666,0.8249661755555555
328,1778414997790,1.1804652599999998,0.0775715962,0.111875434,0.131973548,-0.302628996,0.784419532
329,1778414997800,1.2696675444444443,0.1045352366666666,0.0595461564444444,0.1319599711111111,-0.2903984922222222,0.6991995311111111
330,1778414997810,1.329779422222222,0.1263556188888889,0.0229078409999999,0.0995171964444444,-0.2193365888888888,0.5686139366666667
331,1778414997820,1.3955388,0.17058922,-0.01978774,0.01530172336,-0.044362782,0.30136149
332,1778414997830,1.2566892,0.18278505,0.00219525,-0.0593030879777777,0.1376697047222222,0.041045543
333,1778414997840,1.091954,0.13714215,0.0026830835,-0.08231167,0.2250208599999999,-0.017256435
334,1778414997850,0.9912366866666668,0.0919159299999999,-0.0082321875,-0.0566560833333333,0.2014014333333333,0.0499367616666666
335,1778414997860,0.915510726,0.0632536871999999,-0.024812423,-0.0120642332,0.123131536,0.168074624
336,1778414997870,0.9477077,0.052228656,-0.0585704929999999,0.03191677,0.0069483876999999,0.29305398
337,1778414997880,1.01234571,0.0520335235,-0.1328217746,0.0314280921999999,-0.01986780716,0.313028675
338,1778414997890,1.0711906,0.075888574,-0.18940128,-0.020005248,0.055205323,0.27900448
339,1778414997900,1.0826242,0.0890783679999999,-0.201109284,-0.0914132924,0.1676623019,0.211017183
340,1778414997910,1.0726575333333337,0.0980883782222222,-0.2240916599999999,-0.1725134511111111,0.30327719,0.0808863566666666
341,1778414997920,0.9974972,0.089822315,-0.22257397,-0.16905198,0.30748525,-0.01175881
342,1778414997930,0.9658856,0.0873800975,-0.227842561,-0.12360494,0.2239213379999999,-0.036681378
343,1778414997940,0.945604,0.0783277433333333,-0.20289802,-0.031611344,0.0336220533333333,-0.04576264
344,1778414997950,0.9256577,0.06544894,-0.165235258,0.1113269161999999,-0.174656509,-0.0429120182
345,1778414997960,0.9338858066666664,0.0414150166666666,-0.1543281166666666,0.2441522544444444,-0.3117102722222222,-0.0448803048888888
346,1778414997970,0.989298556,0.0100280242999999,-0.154100454,0.386085999,-0.3742203,-0.0860989192
347,1778414997980,1.015397977777778,-0.0156513194444444,-0.2465015077777777,0.4196690222222222,-0.3505330033333333,-0.1206932355555555
348,1778414997990,1.07696834,-0.067888109,-0.530012634,0.35163423,-0.269643234,-0.217980846
349,1778414998000,1.1518557888888887,-0.0476044044444444,-0.6914563277777778,0.1549685622222222,-0.1777989622222222,-0.3007574311111111
350,1778414998010,1.12367835,-0.02122075,-0.9753465850000002,-0.2334963649999999,-0.0196234699999999,-0.4320217250000001
351,1778414998020,1.0517043222222222,-0.0035774444444444,-1.2091017333333334,-0.7017107755555556,-0.0599733222222222,-0.5232416133333333
352,1778414998030,0.941036636,0.008781,-1.06936728,-1.33851902,0.005726692,-0.6533928
353,1778414998040,0.78806091,0.0065044444444444,-0.9357863,-1.5956602999999998,0.2087316066666666,-0.63339772
354,1778414998050,0.704455746,0.017281496,-0.88316128,-1.68121966,0.313105044,-0.5522364740000001
355,1778414998060,0.6404913088888889,0.0478178288888888,-0.8447071611111111,-1.7045947444444445,0.4042705911111111,-0.2831107366666667
356,1778414998070,0.79272007,0.185901086,-0.96896814,-1.6996672199999998,0.562086366,-0.048776156
357,1778414998080,0.9359997,0.3204455,-1.1377493,-1.7624894222222225,0.8235833155555556,0.1383060033333333
358,1778414998090,0.91965735,0.40706643,-1.2004664,-1.8636186,0.9660549,0.12384928
359,1778414998100,0.87044712,0.4325496359999999,-1.2028080200000002,-1.89825369,1.05627713,0.125132058
360,1778414998110,0.7977803,0.4392939333333333,-1.1835548333333332,-1.9002016333333336,1.0922288555555557,0.1311115755555555
361,1778414998120,0.7361679600000001,0.4271499239999999,-1.0796880400000002,-1.73760087,0.72714495,0.14480134
362,1778414998130,0.6848875,0.36800927,-0.8436772,-1.425021877777778,0.2417173525777778,0.1814725333333333
363,1778414998140,0.7048887,0.27846137,-0.63232344,-1.1122001,-0.0009926268,0.20753536
364,1778414998150,0.7262110733333333,0.2073596633333333,-0.5405701466666666,-0.8943312666666665,-0.1044973008,0.2204310211111111
365,1778414998160,0.756336838,0.1219308945,-0.4516452359999999,-0.4421007099999999,-0.382283492,0.267092964
366,1778414998170,0.7527539111111111,0.0784124361111111,-0.4162844688888888,0.0017137657777777,-0.8231251422222222,0.3831199966666666
367,1778414998180,0.79934543,0.11397006,-0.22354963,0.4887083613999999,-1.513755846,0.538064814
368,1778414998190,0.7847917144444444,0.1039965844444444,-0.1289641686666666,0.8733249288888889,-2.0270372444444447,0.6000386844444444
369,1778414998200,0.71602044,0.0470454288,-0.0264344708,1.35824177,-2.40591358,0.64685671
370,1778414998210,0.66973758,-0.0258551666666666,0.0872679633333333,1.8603267555555556,-2.536492377777778,0.6525036333333333
371,1778414998220,0.738061374,-0.0866727363,0.216125416,2.2750242,-2.2477653,0.5697678
372,1778414998230,0.9220965,-0.19010256,0.35556954,2.4922144222222222,-1.6954914333333333,0.3770115511111112
373,1778414998240,1.0418324111111112,-0.1792618133333333,0.3605562777777777,2.5425754,-1.0687536,0.140953
374,1778414998250,1.16047013,-0.113558457,0.3045147019999999,2.47770349,-0.7779292200000001,-0.060809846
375,1778414998260,1.1756478666666668,-0.0916008733333333,0.2942346266666666,2.452373666666667,-0.7279008466666667,-0.1151956133333333
376,1778414998270,1.30616764,-0.0219585975999999,0.282754296,2.43079032,-0.836631676,-0.19721204
377,1778414998280,1.5855735333333332,-0.0078324358444444,0.3870856222222222,2.6040672666666667,-1.184814602222222,-0.31575713
378,1778414998290,1.67287499,0.00102444999,0.5087370200000001,2.8338273999999997,-1.16990998,-0.409420378
379,1778414998300,1.7172037,0.01536675,0.5581118,2.977973722222222,-0.8544820066666667,-0.46161388
380,1778414998310,1.70978874,-0.0227086419999999,0.5924796880000001,3.0104233299999996,-0.505735711,-0.517967941
381,1778414998320,1.5669241333333332,-0.0638282533333333,0.517279508888889,2.935350111111111,-0.25809145,-0.5106852666666666
382,1778414998330,1.3879011499999998,-0.0709126766,0.376451848,2.5523489,-0.3406237,-0.3092414
383,1778414998340,1.3323338,-0.048082076,0.40413943,2.1076522,-0.5764108,-0.00015271181
384,1778414998350,1.36594862,0.0105585436,0.440388523,1.70577574,-0.8023631800000001,0.314311465819
385,1778414998360,1.4704177666666665,0.1046639635555555,0.7562399222222222,1.295378,-0.8710427333333333,0.5316916433333333
386,1778414998370,1.5640952555555556,0.2314836955555555,1.0125285666666666,0.6359768511111111,-0.0300418,0.6708969666666666
387,1778414998380,1.39147454,0.3368794149999999,0.57850325,-0.625538162,0.0224028235,0.768170993
388,1778414998390,1.4398198111111111,0.5136410511111111,0.6450986222222223,-1.1083908333333332,-0.6020663244444444,0.84302011
389,1778414998400,1.39733762,0.559557012,0.68996708,-1.42814561,-1.197115535,0.81832151
390,1778414998410,1.3044968,0.55692273,0.7079681,-1.9356986,-2.1836262,0.71698195
391,1778414998420,1.15213123,0.407779883,0.68594246,-2.5156981,-3.21107125,0.6589514750000001
392,1778414998430,1.0156622777777775,0.0909199351111111,0.9704223666666666,-3.5533579666666664,-4.49961988888889,0.6392007666666667
393,1778414998440,0.89431434,-0.1120095742999999,1.5844034,-3.4421090800000003,-3.36188187,0.740804993
394,1778414998450,0.9965216,-0.07344941,1.9570043,-2.8709059,-1.6844877,0.65834063
395,1778414998460,1.12830974,0.0186413319999999,1.7798294,-2.3698888599999997,-0.6556987296,0.4670232739999999
396,1778414998470,1.265958,0.20769504,1.420845,-1.4726764,0.82800347,0.035276428
397,1778414998480,1.33107755,0.282928099,1.22219022,-0.711301103,1.7481227,-0.36275165
398,1778414998490,1.5458828,0.32532385,1.0225596,-0.37429667,2.4754586,-0.5804576
399,1778414998500,1.62335685,0.301404775,0.86380035,-0.243880775,2.8028726500000003,-0.723701285
400,1778414998510,1.697307622222222,0.2231126111111111,0.5938727111111111,0.0216002422222222,3.253813588888889,-0.9633230422222222
401,1778414998520,1.6271377,0.14006914,0.37483895,0.26770382,3.3819558333333335,-1.0522353
402,1778414998530,1.61074643,0.172531402,0.165061459,0.68185824,3.0728672,-0.87794024
403,1778414998540,1.6181398111111112,0.2080947844444444,-0.0294224465555555,0.7730781099999999,2.702761488888889,-0.8119008633333333
404,1778414998550,1.5812508,0.2157442999999999,-0.07860215,0.8473978599999998,2.013658,-0.78509146
405,1778414998560,1.5194382666666666,0.20352814,-0.0348191053333333,0.8376242866666667,1.6846149333333331,-0.8058602599999999
406,1778414998570,1.43897424,0.199298209,0.0135373750999999,0.792971368,1.33708358,-0.849169328
407,1778414998580,1.358517688888889,0.1985854411111111,0.0515748244444444,0.6696413,1.0833377,-0.91214764
408,1778414998590,1.1556467,0.09031015,0.09198707,0.3440597,0.85060483,-0.97628665
409,1778414998600,0.9777400000000002,0.020001167,0.17205273,0.16569231,0.7534037,-0.9194778
410,1778414998610,0.90274172,0.0309499783,0.266344809,0.124276872,0.74607356,-0.8381129639999999
411,1778414998620,0.8546433333333333,0.038081492,0.3788330866666667,0.1280234066666666,0.7949413666666667,-0.6950932733333333
412,1778414998630,0.9276944,0.0408621381999999,0.5101456360000001,0.393416172,1.25484829,-0.456211272
413,1778414998640,1.0343591,0.07466899,0.51030415,0.6476508,1.7760384,-0.32939938
414,1778414998650,1.09936294,0.104939046,0.411493526,0.8054937600000001,2.1899484800000004,-0.2947032519999999
415,1778414998660,1.114394288888889,0.1276836044444444,0.2749449088888889,0.8530312555555556,2.3257330444444446,-0.2846039111111111
416,1778414998670,1.105288066666667,0.1388495699999999,0.1339712323333333,0.9117404444444444,2.5826283555555554,-0.2721833622222223
417,1778414998680,1.0499698,0.1203119,-0.11250656,0.74501988,2.33300908,-0.24314776
418,1778414998690,1.040104777777778,0.1138616566666666,-0.1455403377777777,0.4933779355555555,1.742577533333333,-0.2064154666666666
419,1778414998700,0.94283543,0.111140627,-0.0890936145,0.316205068,1.05755984,-0.1529866959999999
420,1778414998710,0.8535592666666667,0.0983051905555555,-0.0421704827777777,0.2547402655555555,0.3408273177777777,-0.0120302967777777
421,1778414998720,0.7167521889999999,0.0934078925,0.0323890848,0.249989244,-0.105691844,0.1315459588
422,1778414998730,0.6551330622222222,0.0930203333333333,0.085292916,0.2909160111111111,-0.5838766244444444,0.4021920266666666
423,1778414998740,0.6734021090000001,0.086233682,0.0363923669999999,0.3585368029999999,-0.647024686,0.745630727
424,1778414998750,0.79202795,0.12884897,-0.03808149,0.3577698544444445,-0.4612999688888888,0.84369883
425,1778414998760,0.84180524,0.165015728,-0.099731424,0.339295112,-0.2959096816,0.8519792
426,1778414998770,0.9395873666666668,0.21760416,-0.2415283,0.2876581533333333,0.0199797953333333,0.8312104
427,1778414998780,1.01271765,0.225696087,-0.3746925909999999,0.199411088,0.083854049,0.804210962
428,1778414998790,0.9768456466666668,0.2310839322222222,-0.5767375755555556,0.19806722,-0.6271111,0.8892409
429,1778414998800,0.91965735,0.1149457399999999,-0.66845363,0.220057721,-1.72340632,1.08055822
430,1778414998810,0.9113099666666664,0.0822913933333333,-0.6094291866666667,0.21598541,-2.6857427666666664,1.2101902333333332
431,1778414998820,0.9098735,0.0699261622222222,-0.4076660644444444,0.17607672,-3.617488366666666,1.2827029
432,1778414998830,0.952955024,0.1024815944,-0.1009814979999999,0.140708675,-3.89796917,1.20438461
433,1778414998840,0.96944684,0.097871564,0.20717672,0.18279605,-2.8427305,0.8715263
434,1778414998850,0.9116081,0.1134822299999999,0.32187852,0.266909708,-1.6199898700000002,0.62358341
435,1778414998860,0.864281488888889,0.1110430688888888,0.2410811311111111,0.3376797588888889,-0.7483981944444444,0.4898146444444444
436,1778414998870,0.834615765,0.0607504981,0.0213244142,0.405449865,0.30076591,0.35933089
437,1778414998880,0.8709959166666666,0.021312219,-0.145059278,0.4020223277777777,1.015228157777778,0.2829410688888889
438,1778414998890,0.906748012,-0.0289315655,-0.3534504859999999,0.259762798,1.5330433,0.162454836
439,1778414998900,0.8657212,-0.053204324,-0.4712774800000001,0.07406523,1.6331002,0.056656085
440,1778414998910,0.842863225,-0.0367399454,-0.497840035,-0.0375365646,1.50005761,-0.0302063953
441,1778414998920,0.84032345,-0.03491057,-0.50079143,-0.1249352284444444,1.3390110999999998,-0.084313892
442,1778414998930,0.812443745,-0.0327153233,-0.508035773,-0.27344576,1.0411279800000002,-0.130324261
443,1778414998940,0.7440576444444444,-0.0836668052222222,-0.4164233666666666,-0.4152234222222222,0.6392516333333333,-0.0636129553333333
444,1778414998950,0.677009015,-0.128044061,-0.351499175,-0.4566388759999999,0.469848432,0.0132859283999999
445,1778414998960,0.6652623855555555,-0.1548396688888888,-0.2865682211111111,-0.45676103,0.32214558,0.176993
446,1778414998970,0.6105200311111111,-0.1589896277777777,-0.2661029277777778,-0.4453585433333333,0.2924176866666667,0.2673984
447,1778414998980,0.541473674,-0.18022394,-0.30080718,-0.4396573,0.240414212,0.432327156
448,1778414998990,0.63485414,-0.19964579,-0.4885955799999999,-0.6009210066666666,0.1415383966666666,0.7169141099999999
449,1778414999000,0.6792164959999999,-0.1887976039999999,-0.493132444,-0.743737074,0.120077298,0.804455288
450,1778414999010,0.9235599333333332,-0.1034714833333333,-0.5657952066666667,-0.9406878222222222,0.1341403566666666,0.7766413777777778
451,1778414999020,1.1024423,-0.05186278,-0.6789573000000001,-1.16507665,0.06803311,0.6617003
452,1778414999030,1.204508,-0.0451821755555555,-0.7269224777777779,-1.2564365,-0.01137703,0.5801522
453,1778414999040,1.16908967,0.0794467086,-0.4463339299999999,-1.3290051200000002,-1.057025353,0.200266268
454,1778414999050,1.1100037,0.14936846,-0.053936075,-1.1440406,-1.2483428,0.118962504
455,1778414999060,1.05399751,0.0647964626,-0.0289102223,-0.98309762,-1.1966651,0.1361883996
456,1778414999070,1.039644,0.082575958,0.2820184759999999,-0.6481598666666667,-0.4996476199999999,0.1020623966666666
457,1778414999080,1.0424571,0.04139265998,0.2455996844,-0.473864764,0.258983972,0.0272132446
458,1778414999090,1.0470427,0.0048783333,0.118604474,-0.4400645555555555,0.8425874600000001,-0.2442201421111111
459,1778414999100,1.2153723888888888,-0.2100935629666666,-0.2753480362222222,-0.4729145577777777,0.7707195444444443,-0.3449420777777778
460,1778414999110,1.21914434,-0.219695754,-0.1642473842,-0.4167505399999999,0.73660543,-0.260068235
461,1778414999120,1.2653922777777775,-0.1757792288888889,-0.0360759531111111,-0.2948186355555555,0.7918616933333333,-0.0967344511111111
462,1778414999130,1.45961562,-0.065064771,-0.093502406,-0.178703361,1.01107434,-0.0590383917999999
463,1778414999140,1.4821595666666667,-0.0016294988888888,-0.2184748166666666,-0.1792327655555555,1.2538318888888886,-0.3591951522222222
464,1778414999150,1.3691957,0.027562585,-0.3070301,-0.24968381,1.2965233,-0.5780142
465,1778414999160,1.2242178,0.06564408,-0.3023957,-0.3128046933333333,1.1916611888888888,-0.7314047333333334
466,1778414999170,1.1732697,0.086590419,-0.2777906,-0.373991226,0.93929984,-0.922532066
467,1778414999180,1.0416766333333334,0.1171409816666666,-0.2088231666666666,-0.3476908666666666,0.6028807866666667,-0.9585041866666668
468,1778414999190,0.9120288,0.143020542,-0.158344606,-0.295863864,0.358307728,-0.90958212
469,1778414999200,0.8009003800000001,0.1248175808888888,-0.2471993933333333,-0.23746687,-0.0240012066666666,-0.7319477
470,1778414999210,0.783411564,0.1289465414,-0.264454462,-0.237833373,-0.48814333,-0.52248817
471,1778414999220,0.7544343,0.14421573,-0.17961414,-0.3094111022222222,-0.6875849555555555,-0.4713195533333333
472,1778414999230,0.7402057888888889,0.1389037722222222,-0.08489994,-0.3514238355555555,-0.7822662644444445,-0.4450531188888889
473,1778414999240,0.6913208,0.127726964,0.039977946,-0.288533707,-0.744577007,-0.342715859
474,1778414999250,0.6885936888888888,0.1146476135555555,0.1154335653333333,-0.19898349,-0.6851415766666666,-0.2198541133333333
475,1778414999260,0.78641172,0.1435114276,0.0627932968,-0.076936212,-0.579587156,-0.0260526368
476,1778414999270,0.866825621111111,0.16836688,0.0065112197222222,-0.0257743615555555,-0.5368414422222223,0.0776285106666666
477,1778414999280,0.930331701,0.1666377809999999,-0.04778023105,0.00406213417,-0.53762197,0.1659366609999999
478,1778414999290,0.9861855666666668,0.1432502299999999,-0.0852590433333333,-0.0155935734888888,-0.6147584022222223,0.1790970266666666
479,1778414999300,1.0506954199999998,0.054186088,-0.039014472,-0.0724159405,-0.853246749,0.076019944
480,1778414999310,1.0821396444444444,-0.0009451773333333,0.0434408811111111,-0.0943249927777777,-0.8835311722222223,0.0070417117244444
481,1778414999320,1.1122142499999998,-0.0201383685,0.07174199,-0.082922512,-0.8229486959999999,-0.004062134286
482,1778414999330,1.1633707,-0.037187128,0.07540074,-0.0456608336666666,-0.6189664333333333,0.0014762142666666
483,1778414999340,1.1797131111111112,-0.0259703494444444,0.0263497763333333,-0.0238060757777777,-0.4299431433333333,0.0261815925333333
484,1778414999350,1.100735,-0.0019513334,-0.094212815,-0.0317335136,-0.212590118,0.0526244932
485,1778414999360,1.0417104555555556,-0.0015719074222222,-0.09060827,-0.0660224066666666,-0.1682290355555555,0.0483757077777777
486,1778414999370,0.995439135,-0.00121958335,-0.0565124454999999,-0.081334312,-0.183513788,0.0449278139999999
487,1778414999380,0.96977199,0.0143097777666666,-0.0089537748,-0.0904562966666666,-0.2029794533333333,0.0462716806666666
488,1778414999390,1.023572,0.052612828,-0.03431907534,-0.077547056,-0.0889546316,0.0318556848
489,1778414999400,1.0562844555555555,0.0698177588888888,-0.1223140522222222,-0.0748457555555555,0.0336899231111111,0.0146433655555555
490,1778414999410,1.04801846,0.066522176,-0.210567166,-0.094223191,0.04188885,0.00656660781
491,1778414999420,1.0255340666666666,0.0556434933333333,-0.2637586133333333,-0.1402064166666666,-0.0370326122222222,-0.0050394898333333
492,1778414999430,0.997472809,0.0457160841999999,-0.291315769,-0.21559855,-0.163722332,-0.0260526354
493,1778414999440,0.9437339433333334,0.0420654626666666,-0.2560820099999999,-0.3649303333333333,-0.3353296866666666,-0.063680825
494,1778414999450,0.90455892,0.044472107,-0.107494072,-0.5318953,-0.3846047,-0.06306998
495,1778414999460,0.8363157222222222,0.0358049321111111,-0.07494339,-0.5727541677777778,-0.2344720211111111,-0.0212608785555555
496,1778414999470,0.829493536,0.0497407036,-0.0878221979999999,-0.607151612,-0.1355011944,0.0694838756
497,1778414999480,0.8499377866666668,0.0706850166666666,-0.1281375566666666,-0.6389971066666666,-0.1184789213333333,0.1460433933333333
498,1778414999490,0.9016278,0.0962657811111111,-0.1650604311111111,-0.6668924533333334,-0.18241427,0.1336228333333333
499,1778414999500,1.01976068,0.15550907,-0.205835168,-0.7084300800000001,-0.23665751,0.0153628076
500,1778414999510,1.0311882,0.16278389,-0.2013532,-0.7389725,-0.26732203,-0.25243264
501,1778414999520,1.02737397,0.156115817,-0.190514158,-0.721929848,-0.292061341,-0.284868628
502,1778414999530,1.0066847666666667,0.11643633,-0.1585831044444444,-0.64225498,-0.3858942666666666,-0.3653036322222222
503,1778414999540,0.982228068,0.083065818,-0.136489676,-0.541119024,-0.361025997,-0.264588487
504,1778414999550,0.9897461511111112,0.0878133875555555,-0.078713942,-0.36757734,-0.27159795,-0.06795676
505,1778414999560,1.05655551,0.1384897852,-0.0234495386,-0.20680234,-0.181192574,0.0786465839999999
506,1778414999570,1.1549149,0.20793895,0.005366167,0.113159455,-0.040697698,0.2423536499999999
507,1778414999580,1.2164032500000002,0.232696501,-0.029486476,0.3295215415,-0.01033858971,0.285540549
508,1778414999590,1.2937646,0.26821688,-0.14717323,0.6209771722222222,-0.0472812763666666,0.3029632822222222
509,1778414999600,1.36674437,0.232626385,-0.227427896,0.92344832,-0.1645775252999999,0.216514813
510,1778414999610,1.4135886,0.1703453,-0.30581054,1.1436588,-0.17019732,0.06765133
511,1778414999620,1.41346665,0.13484018,-0.40025202,1.21622748,-0.060244812,-0.059893574
512,1778414999630,1.4133447,0.09933506,-0.4946935,1.268271666666667,0.1197515199999999,-0.2406229166666667
513,1778414999640,1.3066786222222222,0.0457885786666666,-0.8008664766666667,1.205965222222222,0.3536381444444444,-0.4414559322222222
514,1778414999650,1.20188717,0.0122202252,-1.021757771,1.08794948,0.5010016559999999,-0.59169717
515,1778414999660,0.9538056,-0.016586334,-1.394746,0.7106359222222223,0.5363493855555556,-0.7567888555555555
516,1778414999670,0.85938246,-0.0341757737999999,-1.44855709,0.431410885,0.42959362,-0.773668612
517,1778414999680,0.7577678,-0.0410084886666666,-1.4172778333333331,0.17261526,0.2826441133333333,-0.7352055866666667
518,1778414999690,0.6715025960000001,-0.0232330622,-1.32338824,-0.064352762,0.1458550499999999,-0.6248051
519,1778414999700,0.5500727422222222,0.0305200728888888,-1.1328709666666663,-0.3193204,0.06436803,-0.36849362
520,1778414999710,0.559179,0.046374656,-1.1055523,-0.3761292,0.18042901,-0.024586603
521,1778414999720,0.5533249822222223,0.043556064,-1.0849278555555557,-0.3772151466666666,0.2054058722222222,0.0557737494444444
522,1778414999730,0.5299089520000001,0.0267942464,-1.08030086,-0.394698954,0.242491092,0.341677416
523,1778414999740,0.4770332555555556,0.0058811019555555,-1.1420550777777778,-0.4662631055555555,0.1383484186666666,0.7590625444444444
524,1778414999750,0.4317934799999999,0.100554645,-1.2624518,-0.575570826,-0.1989682264,1.0503212750000002
525,1778414999760,0.4649932666666667,0.1736483383333333,-1.287412511111111,-0.6444269133333334,-0.4890596011111111,1.1367019
526,1778414999770,0.5464038422222222,0.2543542788888888,-1.2240856444444443,-0.7025252466666667,-0.7692348866666667,1.0669974
527,1778414999780,0.5878544299999999,0.283293979,-1.18784674,-0.7279772,-0.8934405,1.028514
528,1778414999790,0.7698857111111111,0.3603665622222222,-0.9987201555555556,-0.7448094333333333,-1.2063300666666668,0.7230904377777778
529,1778414999800,0.76852656,0.28489467,-0.57146016,-0.672756635,-1.3036854999999998,0.26880334
530,1778414999810,0.6914733,0.08909056,-0.15912513,-0.528841,-0.7572215,0.0590994729999999
531,1778414999820,0.6235303200000001,0.035197174,-0.0381851508,-0.353650018,-0.580931,0.1214058952
532,1778414999830,0.5795358666666668,-0.027257688,0.0645769406666666,-0.1258854427777777,-0.4372733055555555,0.2287792822222222
533,1778414999840,0.6269908620000001,-0.040862138,0.069327216,0.0705834048,-0.404396156,0.348213492
534,1778414999850,0.7904458622222222,-0.0002202022888888,0.0290836759999999,0.20600824,-0.32718506,0.42682952
535,1778414999860,0.8945704899999999,0.03480690846,0.0593998087999999,0.148405345,-0.1453358337,0.319748003
536,1778414999870,0.9369754,0.07320549,0.104945146,0.19684553,-0.018707197,0.23074755
537,1778414999880,1.0844108,0.073546978,0.1476519038,0.306736969,-0.0644596541,0.1520704199999999
538,1778414999890,1.2805422,0.0598950931666666,0.2372530033333333,0.4892377222222222,-0.2973892877777778,0.0594388302222222
539,1778414999900,1.4250832,-0.0026830835,0.502011,0.84617615,-0.9685747,-0.10766183
540,1778414999910,1.3480597333333333,-0.1267824581666666,0.8894319777777778,1.1678211333333333,-1.0669210444444444,-0.0739294833333333
541,1778414999920,1.2783978,-0.21769562,1.1096684,1.522384,-0.7065212,0.06215371
542,1778414999930,1.3130542666666667,-0.2035281266666666,1.034664,1.6805680555555556,-0.2460102444444444,0.1612467044444444
543,1778414999940,1.3992076333333334,-0.1295908933333333,0.7578389333333333,1.863313166666667,0.40827504,0.2690273
544,1778414999950,1.5530906,0.0077199619999999,0.1141469095999999,1.7011944,0.2285026849999999,0.111204747
545,1778414999960,1.7194159777777778,0.0683813633333333,-0.5958376197777777,1.2597282555555551,-0.9340278722222224,-0.1332495344444444
546,1778414999970,1.7738199600000002,-0.0399535497,-0.709727423,0.598783036,-2.3122553800000003,-0.294825436
547,1778414999980,1.7856936555555558,-0.1477863935555555,-0.4944258888888889,-0.1543237688888889,-3.4455688666666666,-0.2548760277777778
548,1778414999990,1.77704274,-0.295309906,0.131922328,-1.087147742,-4.32879959,-0.0098041029999999
549,1778415000000,1.711106,-0.3067557,1.1401885,-2.0456512,-3.2293968,0.5972559
550,1778415000010,1.5809276,-0.2435142,1.6802017,-2.17991526,-1.598503305,0.7819761
551,1778415000020,1.287995111111111,-0.1635766111111111,2.1022941222222222,-2.2256473333333333,0.52499775,0.9067518333333332
552,1778415000030,1.11695535,-0.10092052,2.06390095,-2.1835803,1.87084186,0.890462584
553,1778415000040,0.922614788888889,0.020783732,2.0121059555555556,-1.9958331555555555,3.3823545555555556,0.7467777466666666
554,1778415000050,1.01601053,0.1621893366,1.92192926,-1.6297863200000002,3.69710724,0.5504650160000001
555,1778415000060,1.209518388888889,0.23549817,1.6784481555555557,-1.004767373333333,3.2876901333333333,0.06819431
556,1778415000070,1.21799786,0.168592154,1.36196969,-0.5905365770000001,2.57527095,-0.35725402425
557,1778415000080,1.1734390666666663,0.0738389959444444,1.2054463777777775,-0.3898393111111111,1.9060809666666667,-0.52738178
558,1778415000090,1.1179785777777775,-0.0570460107333333,1.0860356,-0.1440072333333333,1.1065498,-0.63136154
559,1778415000100,1.1604975999999998,-0.081913315,1.01931567,0.150970894,0.5746774450000001,-0.5740436959999999
560,1778415000110,1.2981551,-0.010488417,0.7899851,0.450958001111111,0.2810151888888889,-0.5236487866666667
561,1778415000120,1.30078931,0.0308097273,0.6434796439999999,0.6259046149999999,0.1757865639999999,-0.554435506
562,1778415000130,1.2730993333333334,0.0179312648,0.3716578804444444,0.6442571888888888,0.1271495477777778,-0.5619964333333333
563,1778415000140,1.22216886,0.03109327692,0.3228298223999999,0.6538814399999999,0.113602324,-0.562743018
564,1778415000150,1.1820168999999998,0.0686794811111111,0.4382674622222222,0.6684196,0.36307234,-0.5444176
565,1778415000160,1.1822337,0.08515741,0.5220122,0.6562027,0.6831563,-0.53892
566,1778415000170,1.2193361,0.0554537744444444,0.5098705111111111,0.5953894111111111,0.8233118555555555,-0.5687836444444445
567,1778415000180,1.2239739,0.05174082,0.5083528,0.58778775,0.8408313,-0.5725166
568,1778415000190,1.1678662333333334,-0.0318887146666666,0.4491589944444444,0.4058910333333333,0.9479331555555556,-0.6336013222222222
569,1778415000200,1.0659090333333334,-0.1374368822222222,0.4669377855555555,0.3105309888888888,1.0877492888888889,-0.5218162666666666
570,1778415000210,1.05294556,-0.180101976,0.523859816,0.4620753999999999,1.51227452,-0.1215891456
571,1778415000220,1.1065584444444443,-0.1216161711111111,0.5425824555555556,0.7633724066666666,2.0015090666666664,0.2616292831111111
572,1778415000230,1.13372472,-0.0810291155999999,0.511804248,0.8492303760000001,2.1504879,0.351206636
573,1778415000240,1.1641839,0.0022155766666666,0.3900566466666667,1.1990422555555555,2.882418544444445,0.6892223377777777
574,1778415000250,1.1280537,0.036130156,0.31163403,1.29936377,3.0932083300000004,0.767865538
575,1778415000260,1.1280537,0.036130156,0.31163403,1.2933164,3.045379,0.72553384
576,1778415000270,0.95432706,-0.011314685,0.128906913,1.24053914,2.78479156,0.674955694
577,1778415000280,0.8484031,-0.09738373,0.0019513334,1.2251729444444444,2.5043719,0.7087015888888888
578,1778415000290,0.85615966,-0.098554528,-0.10347554464,1.20474354,1.9242299,0.875802216
579,1778415000300,0.9307385755555556,-0.0793609933333333,-0.3032798722222222,1.1106730111111112,1.2558679666666668,1.1163403333333333
580,1778415000310,1.1828163733333332,0.0305132983333333,-0.1914678222222222,0.8363347211111111,0.63532356,1.262392222222222
581,1778415000320,1.29882584,0.0897155992,-0.1435388689999999,0.6134433340000001,0.351221904,1.18429544
582,1778415000330,1.3382149111111112,0.114213976,0.0259296933333333,0.3955744844444445,0.2294325328888889,0.9592169
583,1778415000340,1.2823918600000002,0.13877029,-0.007866314,0.051830387,0.1823837156,0.5205335
584,1778415000350,1.1351678666666667,0.1550056611111111,-0.0466795523333333,-0.18459465,0.1818543133333333,0.17468534
585,1778415000360,0.89835724,0.08229139,0.0573387134,-0.332148212,-0.0620773552,-0.153108868
586,1778415000370,0.7258655,-0.03003224,0.08344999,-0.32726142,-0.375442,-0.2506001
587,1778415000380,0.670737296,-0.0983319566,0.107186131,-0.3028886169999999,-0.5002991800000001,-0.1967233679999999
588,1778415000390,0.67038802,-0.1036713602222222,0.1183639511111111,-0.2899318711111111,-0.5518411155555555,-0.1569368474444444
589,1778415000400,0.802412644,-0.03675824204,0.205146108,-0.26709298,-0.44538401,0.0148130465
590,1778415000410,0.9481243666666666,0.0342431887777777,0.2005265977777778,-0.2374668733333333,-0.1241801539999999,-0.0023924853333333
591,1778415000420,1.0437905,0.0941213413333333,0.1061545666666666,-0.1584639566666666,0.1490721863333333,-0.1107160693333333
592,1778415000430,1.0037934,0.095895841,-0.079593061,-0.0645970976,0.2696127,-0.21993555
593,1778415000440,0.9866836,0.0496980233333333,-0.1228526966666666,-0.03283304073,0.2518981266666666,-0.24265907
594,1778415000450,0.9750569,-0.007088826,-0.17036055,0.0379030727239999,0.0432327099999999,-0.227265724
595,1778415000460,0.9482530888888888,-0.0540173785555555,-0.5579051700000001,-0.0384664093333333,-0.6676306077777778,-0.1358286711111111
596,1778415000470,1.00393365,-0.1114302869999999,-0.313676823,-0.1581788915999999,-0.96173322,-0.104607594
597,1778415000480,1.0929296,-0.12689765,-0.2889498,-0.3299084355555555,-0.7078108000000001,-0.1887008944444444
598,1778415000490,1.11071117,-0.076598981,-0.243919722,-0.550342851,-0.214056155,-0.316449418
599,1778415000500,1.1261836333333333,-0.0220439688666666,-0.2408677199999999,-0.64775261,0.0340292799999999,-0.3880407133333333
600,1778415000510,1.14349665,0.0114396916699999,-0.320707753,-0.74129366,0.313654804,-0.45309597
601,1778415000520,1.156053277777778,-0.0735476511111111,-0.4348085677777777,-0.6772769,0.29099235,-0.29824618
602,1778415000530,1.1619071888888888,-0.1163279191111111,-0.5248003077777778,-0.6734760999999999,0.1253848833333333,-0.1809635044444444
603,1778415000540,1.16164704,-0.1132626998,-0.5116335409999999,-0.6923037599999999,-0.014309094,-0.11254861
604,1778415000550,1.1231347,-0.0693434744444444,-0.3705670199999999,-0.734832288888889,-0.3122532377777778,0.0295073161111111
605,1778415000560,1.05104918,0.005603986,-0.1908465,-0.689005192,-0.4166131079999999,0.169540653
606,1778415000570,1.082329366666667,0.0471301211111111,-0.154951451111111,-0.6237938599999999,-0.3243344533333333,0.2101823566666666
607,1778415000580,1.17366596,0.0720346954,-0.162930242,-0.582229068,-0.0852895504,0.15036005
608,1778415000590,1.22934,0.0882673466666666,-0.1815045,-0.5624375933333333,0.193053189,0.0456608318666666
609,1778415000600,1.22216886,0.088922868,-0.216622394,-0.5491211120000001,0.424523576,-0.09129112344
610,1778415000610,1.1557992,0.0691402133333333,-0.26625536,-0.5378000933333333,0.45388497,-0.15266091
611,1778415000620,1.044347574,0.0488382166,-0.318143562,-0.512592476,0.387872756,-0.1619050679999999
612,1778415000630,0.90304047,0.036374073,-0.36242968,-0.4603582555555555,0.1568095755555555,-0.1080690577777777
613,1778415000640,0.8420443755555556,0.0301237085555555,-0.3247242299999999,-0.4351777666666667,-0.0132095733333333,-0.0743367166666666
614,1778415000650,0.72530452,-0.0010732334,-0.247563232,-0.40129611,-0.254372068,-0.0036956265999999
615,1778415000660,0.6114414666666667,-0.0304895834444444,0.014567244,-0.300995,-0.37116608,0.228915
616,1778415000670,0.64577851,-0.0346178733,0.0276845418,-0.2861514109999999,-0.323886497,0.271613229
617,1778415000680,0.8286154,-0.031007906,-0.053936075,-0.22280654,-0.04497363,0.41583428
618,1778415000690,0.919699978,0.0062015811999999,-0.147654956,-0.232702268,0.047752986,0.38761313
619,1778415000700,1.0003429066666667,0.044287816,-0.2435474188888889,-0.28124426,0.0696620406666666,0.31260109
620,1778415000710,1.00537882,0.054936134,-0.238794432,-0.331842766,-0.0545028459999999,0.207596445
621,1778415000720,1.0228951,0.07857166,-0.15205155,-0.3932329,-0.3742203,-0.04718795
622,1778415000730,1.06416568,0.1029663669999999,-0.0912156864,-0.386086,-0.45668469,-0.2088181399999999
623,1778415000740,1.064523477777778,0.1095795611111111,-0.0728430037777777,-0.3571250666666666,-0.4960503833333333,-0.3156892611111111
624,1778415000750,1.0410127000000002,0.1171680866666666,-0.0544239088888888,-0.3134155555555555,-0.5460041166666667,-0.3957781277777777
625,1778415000760,0.980325501,0.1335321749999999,0.0018690112999999,-0.219996636,-0.6486129,-0.356154504
626,1778415000770,0.95258605,0.13080032,0.17180881,-0.0539412048888888,-0.7764292733333333,-0.2115058666666666
627,1778415000780,0.969510797,0.112018732,0.225101546,0.0801737048,-0.8602103680000001,-0.135638634
628,1778415000790,1.005722588888889,0.0900797822222222,0.23916029,0.25250051,-0.9126482111111112,-0.0604229744444444
629,1778415000800,1.11555287,0.0527408821999999,0.19418511,0.397203435,-0.787275215,-0.0246476871999999
630,1778415000810,1.2054362,0.039301075,0.14494748,0.4531298955555556,-0.4893989544444444,-0.0535679108888888
631,1778415000820,1.18023956,0.058814407,0.066479488,0.4520575079999999,-0.183025112,-0.0986212868
632,1778415000830,1.0948809,0.0573509069999999,0.01097625,0.4761384733333333,-0.0736155766666666,-0.12123621
633,1778415000840,1.07937695,0.05283845,-0.0016007035,0.49829865,-0.1017824249999999,-0.12812521
634,1778415000850,1.0643608666666666,0.0333454423333333,-0.0211699343333333,0.5099387,-0.2564625311111111,-0.1694931511111111
635,1778415000860,1.062653422222222,0.0043905000666666,-0.0385422214444444,0.4880839444444444,-0.3178187444444444,-0.2175464733333333
636,1778415000870,1.0589948,-0.05417999,-0.052228656,0.3422272,-0.25571594,-0.36299598
637,1778415000880,1.0429504444444444,-0.0504941366666666,-0.0381356933333333,0.2409622722222222,-0.1108093947777777,-0.4062304044444444
638,1778415000890,0.987822922,-0.0397889085,-0.0285199568,0.16630317,0.017943637,-0.39720342
639,1778415000900,0.9274694555555556,-0.0234227765555555,-0.0596816659999999,0.1369824993333333,0.0602957163333333,-0.34059826
640,1778415000910,0.8488421880000001,-0.0116592173,-0.116333015,0.0889699076,0.0045050004,-0.2389939979999999
641,1778415000920,0.8354451,-0.01243975,-0.12445848,0.0558755588888888,-0.0848144455555555,-0.1694931522222222
642,1778415000930,0.8598824500000001,-0.01295197535,-0.086361743,-0.019272232,-0.201472696,-0.101919868
643,1778415000940,0.8842047111111111,-0.0120332223333333,-0.0197369232222222,-0.0676513377777777,-0.2189972322222222,-0.0400613996666666
644,1778415000950,0.9118926277777776,-0.008997815,-0.0167658842222222,-0.0874020611111111,-0.18411107,0.0079240456666666
645,1778415000960,0.97285557,0.0138544666,-0.0333007236,-0.111326912,-0.1414875,0.0517082207
646,1778415000970,1.0317269,0.0749908244444444,-0.0062910175555555,-0.1166548597777777,-0.14827469,0.0660902828888889
647,1778415000980,1.0746055,0.13714215,0.034880083,-0.0989267152,-0.134401664,0.0303896524
648,1778415000990,1.0890981666666668,0.1524479166666666,0.0395958063333333,-0.0609320144444444,-0.1352432733333333,-0.0323918725555555
649,1778415001000,1.08456322,0.158222637,0.0493169014999999,0.0328941252,-0.152727092,-0.164714969
650,1778415001010,1.0539028999999998,0.1389613633333333,0.0557247978888888,0.1077297044444444,-0.1610346133333333,-0.2305100066666666
651,1778415001020,1.0089643599999998,0.0936274134,0.0690832971,0.24748478,-0.175389522,-0.214499006
652,1778415001030,1.0004243,0.036861908,0.05417999,0.4033797733333333,-0.1356505066666666,-0.0807166733333333
653,1778415001040,1.02086753,0.0124671911,0.0332976743,0.47203222,-0.091703443,-0.0074828764999999
654,1778415001050,1.023139,0.009756667,0.030977417,0.5600960566666666,-0.0113770313333333,0.0831261289999999
655,1778415001060,1.0421103222222223,-0.0169928623333333,-0.0821389406666666,0.6004798,0.0811323913333333,0.1252067166666667
656,1778415001070,1.05477498,-0.0332244991999999,-0.200566579,0.613870927,0.125819262,0.121405894
657,1778415001080,1.0987836,-0.028812656,-0.24992312,0.6027195811111112,0.1209053366666666,0.0783750977777777
658,1778415001090,1.12514185,-0.0262362865,-0.28274516,0.5752654,0.13003411,0.016034742
659,1778415001100,1.1724769666666668,-0.0327864656666666,-0.3868315066666666,0.4988077,0.1568095766666666,-0.1412584253333333
660,1778415001110,1.1807457,-0.056643553,-0.485488678,0.3901786889999999,0.1531852229999999,-0.276866522
661,1778415001120,1.1480854,-0.096651986,-0.58448535,0.15042114,0.23296188,-0.3953709
662,1778415001130,1.123279,-0.0855049892,-0.6046084300000001,0.02385358608,0.351221896,-0.37680114
663,1778415001140,1.0746055,-0.05369216,-0.62817687,-0.0962932869333333,0.5192456288888889,-0.2917983444444444
664,1778415001150,1.050430566666667,-0.0224572737777777,-0.663436381111111,-0.17997936,0.5687921255555556,-0.1999676388888888
665,1778415001160,1.05377486,0.0632475916,-0.756513674,-0.2854794639999999,0.5603760099999999,-0.0641695044
666,1778415001170,0.9709103,0.16473523,-0.8539218,-0.47814068,0.3380276,-0.03130592
667,1778415001180,0.8575348359999999,0.185934637,-0.8555346699999999,-0.559749896,0.244690144,-0.051341712
668,1778415001190,0.79053396,0.2025728,-0.8973694,-0.6229115,0.013667707,-0.04902049
669,1778415001200,0.79053396,0.2025728,-0.8973694,-0.6229115,0.0136677069999999,-0.04902049
670,1778415001210,0.7594210133333333,0.1776966822222222,-0.9943601555555556,-0.6082511666666667,-0.2827968309999999,-0.0025960993333333
671,1778415001220,0.837801937,0.19717004,-0.8327223500000001,-0.459448768,-1.35634054,0.20399245
672,1778415001230,0.91746205,0.19400522,-0.59280896,-0.11712996,-1.9466174999999997,0.3113794
673,1778415001240,0.9535752722222222,0.17991226,-0.5111239866666667,0.0248580888888888,-1.8469476333333337,0.2809727733333333
674,1778415001250,1.01373295,0.141182022,-0.403285725,0.280531605,-1.5501013,0.18676655
675,1778415001260,1.0055803444444444,0.0654069331111111,-0.4886633077777778,0.4551660444444445,-0.9920583777777776,-0.0190889765555555
676,1778415001270,0.993692108,0.0236172324,-0.6687524220000001,0.488402912,-0.512760454,-0.2629392074
677,1778415001280,1.0165228,0.0141471659999999,-0.73995167,0.46256408,-0.2526617,-0.41797224
678,1778415001290,0.98974069,-0.0269314494,-0.661773377,0.446071202,0.032115292,-0.517479264
679,1778415001300,0.9064925666666668,-0.0507380566666666,-0.5942420111111111,0.4730842377777777,0.3776648022222222,-0.5298930444444445
680,1778415001310,0.799909468,-0.0704004505,-0.53726306,0.5155856400000001,0.8351809219999999,-0.5152191
681,1778415001320,0.72879255,-0.080279075,-0.4973765599999999,0.5505261,1.2165023,-0.4833329
682,1778415001330,0.6563188,-0.056131326,-0.45148978,0.58778775,1.1932901,-0.42530242
683,1778415001340,0.63826895,-0.03125182,-0.415634,0.5737383,0.7918871,-0.32145837
684,1778415001350,0.65389181,-0.045301424,-0.372680272,0.571539236,0.650903556,-0.2750339819999999
685,1778415001360,0.7137509888888889,-0.0737746308888888,-0.2490118222222222,0.5957966533333333,0.2118536977777777,-0.1222542933333333
686,1778415001370,0.7511566380000001,-0.0642781381,-0.203231376,0.65449227,-0.26933783,0.040163205
687,1778415001380,0.8215419,-0.00219525,-0.076406896,0.7087355,-0.9087117,0.22219568
688,1778415001390,0.8701355,0.0144994913333333,-0.0058878773333333,0.7210881977777778,-1.1035041222222222,0.31341555
689,1778415001400,0.896710876,0.0185376676,0.0126836672,0.714355296,-1.20057452,0.368066018
690,1778415001410,0.9502281877777776,0.0484276242222222,-0.0093196493333333,0.6333976933333333,-1.2632066666666666,0.3985269366666666
691,1778415001420,1.0973201,0.05052124,-0.06100966,0.30771432,-1.34119157,0.32286332
692,1778415001430,1.1541831,0.09738373,0.044423323,-0.032222193,-1.1255624,0.21242213
693,1778415001440,1.2466581,0.122190052,0.1173330673,-0.2312362293,-0.8407854260000001,0.143152055
694,1778415001450,1.4329596999999998,0.1999507033333333,0.19360887,-0.3975767333333333,-0.44433199,0.0339868633333333
695,1778415001460,1.64017506,0.296322164,0.242038528,-0.5954233600000001,-0.012843064,-0.171067778
696,1778415001470,1.8527267888888888,0.3730908688888889,0.2519252777777778,-0.7755554222222222,0.0780781577777777,-0.5009796055555555
697,1778415001480,2.0246913,0.3494716,0.47124702,-1.2283375,-0.14759597,-1.3018682
698,1778415001490,1.7797720111111108,0.2596560711111111,0.8179068244444445,-1.5152999333333337,-0.0863076255555555,-1.6311742555555555
699,1778415001500,1.6448995444444443,0.2354202355555555,0.9451534666666668,-1.6953641444444445,0.0421739133333333,-1.7856677
700,1778415001510,1.41448498,0.179333626,1.2196260200000002,-1.82696784,0.201686498,-1.7779167399999998
701,1778415001520,1.2071334666666669,0.1427861033333333,1.6835908777777775,-1.7377840666666668,0.2317401766666666,-1.5764186333333334
702,1778415001530,1.19611552,0.162366188,2.5998772699999995,-0.8282248899999999,-0.040147937,-0.8802080159999999
703,1778415001540,1.2161414444444445,0.2204837366666666,2.484396311111111,-0.3093432333333333,0.02832804,-0.6645509133333333
704,1778415001550,1.12083971,0.18505654,2.53999893,0.567629808,-0.2668333639999999,-0.43104436
705,1778415001560,0.990362611111111,0.1382567177777777,2.629638588888889,1.1527196999999998,-0.3563699977777778,-0.2529077277777778
706,1778415001570,0.713032445,0.033889172,2.69417542,2.03386181,-0.061466507,0.108822436
707,1778415001580,0.5832251222222222,-0.0490272497777777,2.1677925222222223,2.6745183,1.1798515,0.71698195
708,1778415001590,0.64390956,-0.0336232346666666,1.877619755555556,2.6006057666666664,1.5980782333333332,0.8363007666666666
709,1778415001600,0.88913727,0.04686249,1.0855206,2.4095327400000004,2.4763137,1.06931864
710,1778415001610,0.9473045644444444,0.0940366566666666,0.7391081555555555,2.0940777333333336,2.6228763444444443,1.0038765777777778
711,1778415001620,1.05984232,0.202267886,0.256185688,1.33877106,2.6980512699999997,0.789672825
712,1778415001630,1.257681788888889,0.3298702022222222,-0.1080720311111111,0.3462994844444444,2.1151943444444448,0.323732082
713,1778415001640,1.31940022,0.338153876,-0.197151742,-0.20081604,1.6263808000000002,0.024281178
714,1778415001650,1.3866459333333332,0.2840748377777778,-0.1126759477777777,-0.6694037377777778,1.037252568888889,-0.273269318
715,1778415001660,1.3578109,0.204127768,0.017019285,-0.8837432780000001,0.524488724,-0.4185830819999999
716,1778415001670,1.2709786000000003,0.13357148,0.2066448588888889,-1.0236951733333333,-0.1488176666666666,-0.5030157322222223
717,1778415001680,1.12319656,0.181373389,0.43322038,-1.010921634,-0.7960103239999999,-0.4790569699999999
718,1778415001690,1.0443598,0.22354963,0.5127433,-0.99552834,-0.9032140400000002,-0.51754034
719,1778415001700,0.9873103155555556,0.2510850966666667,0.6331297355555556,-0.9678366066666668,-0.9385074266666668,-0.6120180466666666
720,1778415001710,0.927663866,0.240672566,0.790113208,-0.888507876,-0.939254,-0.720219464
721,1778415001720,0.8522550055555556,0.2140097766666666,0.8772259777777778,-0.7152173444444444,-0.8602511333333334,-0.8827591511111111
722,1778415001730,0.7622944800000001,0.167180488,0.8255054879999999,-0.54105794,-0.5678589,-0.9555178
723,1778415001740,0.7292092266666667,0.1405671533333333,0.7209973866666667,-0.5194746466666667,-0.3801251666666667,-0.9164236
724,1778415001750,0.7361283160000001,0.1368494499999999,0.581710802,-0.530307018,-0.076982026,-0.83420356
725,1778415001760,0.7859232222222222,0.1431858588888888,0.4246961777777777,-0.5581616766666666,0.1716735366666666,-0.7537346
726,1778415001770,0.809248452,0.150042292,0.319896708,-0.5604829199999999,0.288793312,-0.6728177399999999
727,1778415001780,0.7356831511111112,0.1256272477777777,0.2663197399999999,-0.5496098,0.2316723066666667,-0.535254888888889
728,1778415001790,0.67735354,0.093898768,0.302575579,-0.4908463,0.176030904,-0.392438802
729,1778415001800,0.6346102,0.082230404,0.3523986,-0.38468108,0.1272853,-0.20173231
730,1778415001810,0.6526329444444445,0.1230424075555555,0.3647299555555555,-0.27581452,0.1310861222222222,-0.0722326922222222
731,1778415001820,0.710297532,0.178242116,0.33290968,-0.0009468144,0.106516486,0.217186742
732,1778415001830,0.7841921,0.19595654,0.15494807,0.2422518435555555,-0.0620773546666666,0.4011060633333333
733,1778415001840,0.7969063,0.19229782,-0.1352213,0.4265241000000001,-0.44935453,0.64795625
734,1778415001850,0.7930035888888889,0.1857933577777777,-0.2798909888888888,0.41919392,-0.77799034,0.80433315
735,1778415001860,0.7780088000000001,0.163613196,-0.311603544,0.39078952,-0.8946621699999999,0.8577822750000001
736,1778415001870,0.7724569666666667,0.1365492955555555,-0.2497367999999999,0.3585843022222222,-1.069432311111111,0.9622710977777778
737,1778415001880,0.82502682,0.205469298,-0.133465113,0.396042832,-0.95519712,0.938963876
738,1778415001890,0.9113642,0.34752026,0.018293751,0.37948886,-0.5770216,0.8379297
739,1778415001900,1.02946868,0.331129052,0.0946396702,0.359391979,-0.075454912,0.73616258
740,1778415001910,1.0589948,0.32703125,0.11372615,0.35077903,0.13950224,0.6925481
741,1778415001920,1.02301694,0.100682696,-0.0531677407999999,0.331903854,1.166389978,0.568546098
742,1778415001930,1.0032427888888888,0.0400057238888888,-0.1783640706666666,0.2744910022222222,1.5331927333333333,0.5749939311111112
743,1778415001940,1.01330303,0.024614241,-0.282141472,0.01915006184,1.94841946,0.62126218
744,1778415001950,1.0073894,0.0390165055555555,-0.3490413744444444,-0.0963611510666666,1.9305827555555557,0.6113732555555556
745,1778415001960,1.0269044,0.078464945,-0.46943286,-0.215842874,1.79570772,0.58699366
746,1778415001970,1.1379016666666668,0.1260845933333333,-0.6107063833333333,-0.43572074,1.481474311111111,0.5082079333333334
747,1778415001980,1.3931972,0.161411856,-0.5811314999999999,-0.787351564,1.0420443599999998,0.297207744
748,1778415001990,1.4419134,0.19132213,-0.42661023,-0.9167290299999998,0.8341119,0.13973132
749,1778415002000,1.3273810444444445,0.15945037,-0.2528331811111111,-0.8765488255555556,0.7764886466666667,0.0539412071111111
750,1778415002010,1.2355904,0.131593048,-0.1849925,-0.82534628,0.81587814,0.0421179172
751,1778415002020,1.123778333333333,0.0852996888888888,-0.1542468,-0.7532255800000001,0.8782965744444444,0.069891105
752,1778415002030,1.06148876,0.049301656,-0.169662344,-0.7078803659999999,0.826163247,0.1747939385
753,1778415002040,1.0097032,0.0006606066666666,-0.2153275966666666,-0.6874577,0.6210534666666666,0.3126010833333333
754,1778415002050,0.99822903,-0.0425146778,-0.284845888,-0.65027745,0.236016104,0.5178457599999999
755,1778415002060,1.0581240333333333,-0.0305200742222222,-0.2772688977777777,-0.6115768722222222,-0.1156282911111111,0.7264840555555555
756,1778415002070,1.14148738,-0.0113238311999999,-0.204139966,-0.54264618,-0.25082916,0.8712819999999999
757,1778415002080,1.198325366666667,0.0288871856666666,-0.0484039103333333,-0.4199744722222222,-0.15947356,0.9305748777777778
758,1778415002090,1.1785749,0.048569907,0.017805915,-0.3126011,0.10651649,0.90267956
759,1778415002100,1.118273211111111,0.028379027,-0.0253673347777777,-0.2659052155555556,0.25094793,0.8500109377777778
760,1778415002110,1.1011191,0.0240501836,-0.0491614058,-0.204358954,0.448468784,0.750822908
761,1778415002120,1.0171020333333332,-0.0047970279999999,-0.1478135016666666,-0.2160872166666666,0.5082503666666667,0.5217144733333333
762,1778415002130,0.9392858133333332,-0.0541461157777777,-0.1537047688888889,-0.2502946666666666,0.4663055166666667,0.3948618533333333
763,1778415002140,0.849305631,-0.0783277404,-0.141489968,-0.302338864,0.356475194,0.248828624
764,1778415002150,0.8807593722222222,-0.0613619777777777,-0.1973929555555555,-0.3407000733333333,0.2612644666666666,0.18432316
765,1778415002160,0.917330935,-0.0375448728,-0.242962341,-0.3921333999999999,0.086480701,0.1016144438
766,1778415002170,0.9177872866666666,-0.0288939621111111,-0.2715774922222222,-0.4569646477777778,-0.1754913299999999,-0.0150166615555555
767,1778415002180,0.91404724,-0.0290565729999999,-0.27504653,-0.554130083,-0.383932766,-0.117557551
768,1778415002190,0.89108855,-0.046374656,0.05149691,-0.57709795,-0.27098712,-0.11071607
769,1778415002200,0.907360865,-0.0303493316,0.227418749,-0.554007955,0.062168976,-0.069483875
770,1778415002210,0.93014574,0.0041465834,0.28529102,-0.4653129,0.51272994,0.022448637
771,1778415002220,0.943170906,0.0242148263599999,0.200645846,-0.416445112,0.587497628,0.0656966262
772,1778415002230,0.9776790222222222,0.0322816941111111,0.0557620608888888,-0.2796153144444444,0.6182028844444445,0.2109289566666666
773,1778415002240,1.06463223,0.0215164991,-0.0790137614,-0.239727008,0.1729155929999999,0.307042364
774,1778415002250,1.1021985,0.030763991,-0.03222749,-0.25029466,-0.17080817,0.28999972
775,1778415002260,1.0955585555555556,0.0493287571111111,0.0447925877777777,-0.2407925888888889,-0.2454672766666666,0.2264716133333333
776,1778415002270,1.0692239899999998,0.0686198545,0.154408406,-0.2061914879999999,-0.312036056,0.0920852242
777,1778415002280,1.0478558555555555,0.0748587027777777,0.1891810988888888,-0.1254782057777778,-0.1835002155555555,-0.0053788495555555
778,1778415002290,1.03413961,0.0804742079,0.200929411,-0.1067455559999999,-0.1518719,-0.02275406
779,1778415002300,1.0647131333333335,0.0820406931111111,0.1038102577777777,0.0039535398888888,-0.0036396308888888,-0.0697893
780,1778415002310,1.0569214299999998,0.066619746,0.069546737,0.0917798,0.0020616094,-0.12354386
781,1778415002320,1.0284035,0.0618227166666666,0.0823930193333333,0.1088835222222222,0.0091881605333333,-0.1278197866666666
782,1778415002330,0.965245332,0.0617658013,0.1008381958,0.13234006,0.0473864772,-0.127086768
783,1778415002340,0.881088,0.054667823,0.08857224,0.15714046,0.04665346,-0.113159455
784,1778415002350,0.82903317,0.0357886733,0.0587168406,0.1699682539999999,-0.044423869,-0.0840831245
785,1778415002360,0.8399439888888889,0.0177313870555555,0.056537851,0.1716650533333333,-0.1746768677777778,-0.0385003466666666
786,1778415002370,0.8778591800000001,0.02136710015,0.0503748899,0.147244735,-0.185651755,-0.009987353192
787,1778415002380,0.9274321222222224,0.0389995657777777,0.0595190577777777,0.1098337302222222,-0.1550618777777778,0.0357515332711111
788,1778415002390,0.9367856888888888,0.0496810822222222,0.0972685508888888,0.0946304246666666,-0.1284560873333333,0.0776285026666666
789,1778415002400,0.93187757,0.0452282479,0.0806297002,0.076752959,-0.1260330618,0.150237882
790,1778415002410,0.94575644,0.031007906,0.06100966,0.0451517933333333,-0.1868938066666666,0.2136438233333333
791,1778415002420,0.950927464,0.0326665396,0.078876552,0.01572931728,-0.255715935,0.25670856
792,1778415002430,0.9903660444444444,0.0258043522222222,0.1570891033333333,0.0207179022844444,-0.36444674,0.2975335266666666
793,1778415002440,1.04179559,0.0206109594,0.188882971,0.0532964232999999,-0.36915028,0.28694552
794,1778415002450,1.1424752,0.022440333,0.16546696,0.0824134764444444,-0.2567340133333333,0.1864271977777777
795,1778415002460,1.13074288,0.0241965346,0.1213424432,0.076508619,-0.19279867,0.0939177687499999
796,1778415002470,1.0985228555555555,0.0293953488888888,0.104602984,0.0492241084444444,-0.0972350094444444,-0.0413509655555555
797,1778415002480,0.9961489333333334,0.0320648791111111,0.1013880277777777,0.0128447608888888,-0.0171461429777777,-0.1667782699999999
798,1778415002490,0.91363868,0.0342763872,0.110164966,-0.0063222689599999,0.0162332663599999,-0.227510059
799,1778415002500,0.8715753,0.051009074,0.15348457,0.0036141797333333,0.004980102,-0.23709358
800,1778415002510,0.872429,0.06992786,0.16362235,0.0200052479999999,-0.0257319415,-0.23441264
801,1778415002520,0.8911156666666665,0.1007985657777777,0.1790721033333333,0.0642916762222222,-0.1209901763333333,-0.2267091755555556
802,1778415002530,0.92638328,0.109774696,0.177760378,0.09086353,-0.179360025,-0.23227467
803,1778415002540,1.0661665777777778,0.1217211927777777,0.1898315422222222,0.1751265222222222,-0.3304429044444444,-0.252500491111111
804,1778415002550,1.1849898,0.1185800825,0.196468785,0.204236777,-0.33811924,-0.253165639
805,1778415002560,1.2839841,0.1178456288888888,0.1954687266666666,0.2172070977777777,-0.2895161555555555,-0.25874471
806,1778415002570,1.3762489999999998,0.1158400966666666,0.1835168066666666,0.23397146,-0.2067802799999999,-0.2706223
807,1778415002580,1.4293577599999998,0.108750246,0.137940976,0.24119304,-0.0570684056,-0.310707466
808,1778415002590,1.3921340666666666,0.1012050866666666,0.058560332,0.2377723,-0.010155336,-0.32634515
809,1778415002600,1.16103109,0.078702761,0.0880234344,0.19941108,0.0313822764,-0.3731360609999999
810,1778415002610,0.9384727222222222,0.0467811844444444,0.1723203605555555,0.1425479944444444,-0.057462065,-0.36224939
811,1778415002620,0.90169284,0.0413987559999999,0.1986518359999999,0.137959854,-0.0735612826,-0.318892802
812,1778415002630,0.8891643111111112,0.0358591403333333,0.2164760511111111,0.17872372,-0.0108340548888888,-0.2213472888888888
813,1778415002640,0.962970765,0.0418621993,0.1617228502,0.241864962,0.0873358884999999,-0.1526812719999999
814,1778415002650,1.0585068,0.04905774,0.087352656,0.3165716,0.16576867,-0.097277425
815,1778415002660,1.10516808,0.0619365432,0.0543751232,0.330498912,0.186048802,-0.095322715
816,1778415002670,1.1165624,0.0753194362222222,0.0192829677777777,0.3642855466666666,0.2707665388888889,-0.1035895138888888
817,1778415002680,1.0859048,0.097523982,-0.0365631092,0.38388696,0.378221346,-0.126231593
818,1778415002690,1.043628,0.110311314,-0.099822894,0.4247594244444445,0.4327767933333333,-0.1204217497777777
819,1778415002700,1.0492381,0.07783991,-0.2230617899999999,0.438374522,0.401433556,-0.0801737052
820,1778415002710,1.0483708111111112,0.0637469411111111,-0.28878379,0.4052801744444445,0.35329878,-0.0486811331111111
821,1778415002720,1.05206748,0.0438379215999999,-0.376229256,0.35872006,0.339249292,-0.0265413135999999
822,1778415002730,1.0716987333333334,0.0117181631333333,-0.4825688,0.2476816088888889,0.3065350355555555,0.0174939863333333
823,1778415002740,1.1262106222222223,-0.0073988061444444,-0.6494721444444445,0.11010522,0.26472592,0.052380152
824,1778415002750,1.14566134,0.0033172667,-0.741866444,0.0245866029,0.238642744,0.0297177192
825,1778415002760,1.1444266,0.028050419,-0.76705694,-0.0800040217777777,0.2165368666666666,-0.0327312314444444
826,1778415002770,1.1495488,0.0467252895,-0.71019387,-0.09605573,0.30473642,-0.0942231885
827,1778415002780,1.1775992,0.0927391533333333,-0.6211135000000001,-0.0475612444444444,0.6198317933333334,-0.2085873633333333
828,1778415002790,1.26331771,0.163293069,-0.614005345,0.0560452364,1.205560464,-0.453951128
829,1778415002800,1.2479692,0.20898576,-0.7383256,0.1896511071111111,1.3449838333333333,-0.5788286722222222
830,1778415002810,1.2215346,0.22037871,-0.8995647,0.46989426,1.2702569,-0.758825
831,1778415002820,1.1906216,0.18865261,-0.9365756666666668,0.5601639211111111,1.108382361111111,-0.8216065555555556
832,1778415002830,1.11991908,0.122860833,-1.019931456,0.700183676,0.8021798739999999,-0.90188547
833,1778415002840,1.0355787,0.051252995,-1.0828376,0.7855665733333335,0.5263721299999999,-0.9430972944444443
834,1778415002850,1.01389454,-0.003799001,-1.08635,0.8168555,0.21769069,-0.9695673
835,1778415002860,0.99237496,-0.05052124,-1.0699099,0.7663587888888889,0.2144328322222222,-0.9983449888888888
836,1778415002870,0.99237496,-0.08550296,-1.0770648333333337,0.6688268333333334,0.2965578533333333,-1.0204033555555556
837,1778415002880,0.980423048,-0.099578982,-1.08695973,0.45181317,0.44223815,-1.04018124
838,1778415002890,0.9540292777777776,-0.0728599466666666,-1.0482860777777778,0.1601947,0.37101334,-0.97995174
839,1778415002900,0.8022724,0.0073175007,-0.86562985,-0.0404686295,-0.245820218,-0.843060858
840,1778415002910,0.6065293,-0.023903834,-0.610371,-0.1552061051111111,-1.1665570333333335,-0.62905392
841,1778415002920,0.5623773699999999,-0.0087566080999999,-0.312969483,-0.1226275859999999,-1.6997588999999995,-0.4460712
842,1778415002930,0.4219555333333333,-0.0147163056666666,-0.1639221659999999,-0.0533982306666666,-1.944148633333333,-0.2705544333333333
843,1778415002940,0.340147906,-0.00273186673,0.0289498596,0.0613596053999999,-2.25790526,-0.0093154227999999
844,1778415002950,0.41147726,-0.0125210562333333,0.1657922033333333,0.1519821922222222,-2.490746644444444,0.2424215262222222
845,1778415002960,0.571880894,-0.015366751,0.316335536,0.188415838,-2.71200908,0.576242752
846,1778415002970,0.7341892,-0.008537084,0.47246656,0.12293301,-2.7211719,0.7145386
847,1778415002980,0.8494215219999999,0.0466551604,0.680686024,0.111204741,-2.6284452600000003,0.7266333819999999
848,1778415002990,0.9713981,0.10518907,0.9852099,0.2228404772222222,-2.1208448333333334,0.7108056633333333
849,1778415003000,1.0440582777777778,0.1444596388888889,1.2095048333333334,0.4826541666666666,-1.0181975555555556,0.7083622333333333
850,1778415003010,1.11353755,0.1546370779999999,1.12091898,0.594079477,-0.1226123158,0.70018367
851,1778415003020,1.2165683,0.1905632888888888,0.9511225,0.5096671966666667,0.2718524864444444,0.6894938888888889
852,1778415003030,1.3129272,0.247941295,0.907720615,0.396103906,0.260205664,0.6503996400000001
853,1778415003040,1.479039522222222,0.3416899933333333,0.9251454144444444,0.0746082053333333,-0.0153135997777777,0.4895431577777778
854,1778415003050,1.6246984000000002,0.37511334,1.045244,-0.1707623466,-0.5617503993999999,0.271124551
855,1778415003060,1.7813845,0.42145753,1.1672632,-0.18126893,-1.0168316,0.14156385
856,1778415003070,1.90848021,0.441626385,1.24874971,-0.0662463866999999,-1.55132297,-0.0042453939999999
857,1778415003080,1.940573911111111,0.45040568,1.3430594444444444,0.0892685395555555,-2.0383464222222223,-0.1417335366666666
858,1778415003090,1.84221121,0.4465870449999999,1.4826414,0.24864538,-2.3982780000000004,-0.280531606
859,1778415003100,1.5758846,0.33434877,2.1158857,0.3186756177777778,-1.586497611111111,-0.3962532211111111
860,1778415003110,1.3414705444444444,0.2652458277777778,1.8319091555555551,0.3652357466666667,-1.1302456333333333,-0.3605525966666666
861,1778415003120,1.06956843,0.153246748,1.89596118,0.395859568,-0.610496052,-0.201243624
862,1778415003130,0.9795523888888888,0.1078823111111111,1.8866005333333336,0.4244879366666667,0.0016543666666666,0.00208706
863,1778415003140,0.897826764,0.0667173071999999,1.76468832,0.457066468,0.6595775939999999,0.2406432719999999
864,1778415003150,0.9546356088888888,0.1352077575555555,1.4054377333333334,0.38071055,1.3784277444444444,0.4201102
865,1778415003160,1.00942169,0.1939777909999999,1.18824313,0.265565845,1.7178246600000002,0.424508308
866,1778415003170,1.0535472333333336,0.2412742266666666,1.0481709,0.18055627,1.8471003,0.36248695
867,1778415003180,1.06499503,0.256063698,0.95408308,0.0471879496,1.99661535,0.1814521788999999
868,1778415003190,1.055661188888889,0.2495131966666667,0.7601933888888889,-0.0609998841111111,1.979111177777778,-0.1390865253333333
869,1778415003200,1.07492557,0.256697923,0.6099563299999999,-0.0562284884999999,1.6171570199999998,-0.401540458
870,1778415003210,1.1317123,0.2891937,0.4590511599999999,-0.07986828,1.205507,-0.6452074
871,1778415003220,1.14061231,0.286803326,0.455465592,-0.083166858,1.11497948,-0.724006696
872,1778415003230,1.1444266,0.28577888,0.4539289199999999,-0.054484185,0.9429784833333332,-0.8654517766666667
873,1778415003240,1.1310873300000002,0.253999573,0.469466407,0.0255639579999999,0.735475379,-0.96388642
874,1778415003250,1.0962597333333333,0.2345529755555555,0.5000325488888888,0.13881505,0.48768517,-0.9775083
875,1778415003260,1.0392374,0.24769738,0.53591543,0.25365433,0.10040802,-0.9616263000000002
876,1778415003270,1.015223824,0.247599816,0.552416378,0.259518463,0.045981528,-0.97170528
877,1778415003280,0.9552793066666668,0.23948553,0.5778182666666667,0.2560977111111111,-0.1203793266666666,-1.030244811111111
878,1778415003290,0.8923630859999999,0.232184288,0.546897772,0.112059926,-0.106547028,-1.1619842
879,1778415003300,0.8013272611111111,0.2083725966666666,0.5078650066666666,-0.1390525916666666,0.1160864299999999,-1.2599912333333334
880,1778415003310,0.779877846,0.141782662,0.443318558,-0.4574329609999999,0.573509229,-1.27609048
881,1778415003320,0.7582556288888889,0.1032478966666666,0.3957751377777778,-0.6102873044444445,0.7124091088888889,-1.250489188888889
882,1778415003330,0.72014875,0.083587195,0.400709345,-0.81838263,0.930282185,-1.1399937
883,1778415003340,0.6631518000000001,0.0530722017777777,0.4469874366666667,-0.88672965,1.1218888333333334,-0.8852025055555556
884,1778415003350,0.72293854,0.028782167,0.4944191,-0.8525901000000001,1.2470447,-0.55296946
885,1778415003360,0.7535297466666666,0.0678291596666666,0.5059848333333333,-0.7015071666666667,1.3337850333333334,-0.2198541026666666
886,1778415003370,0.7699093944444445,0.169362864,0.4366955222222222,-0.37857258,1.1798515,0.2973299
887,1778415003380,0.7810212,0.21818347,0.3223664,-0.301605823,0.982303485,0.412780039
888,1778415003390,0.7735410666666667,0.23753419,0.2880351066666666,-0.1845267755555555,0.5502800533333333,0.5848353433333333
889,1778415003400,0.75772714,0.2575272309999999,0.248697438,-0.135577544,0.1685785719999999,0.689249506
890,1778415003410,0.7696655333333333,0.2617327411111111,0.2631183311111111,-0.16844113,-0.32413083,0.81960434
891,1778415003420,0.8301247,0.263045844,0.286849066,-0.20460329,-0.3832608299999999,0.874336228
892,1778415003430,0.8422510855555555,0.2575624622222222,0.2857483933333333,-0.2284399055555555,-0.3521619166666666,0.8965710666666666
893,1778415003440,0.910739135,0.1757114599999999,0.234510645,-0.3198090779999999,-0.046195322,0.932122384
894,1778415003450,0.931500811111111,0.1094982568888889,0.1585559988888888,-0.48974678,0.4699706,0.95276904
895,1778415003460,0.8915337000000001,0.1014327468,0.130605188,-0.60702944,0.568317,0.9943066
896,1778415003470,0.81837094,0.13372731,0.17205273,-0.61619216,0.4791333,1.0224056
897,1778415003480,0.7117184,0.1483928,0.2298914799999999,-0.543379152,0.362339316,1.04732816
898,1778415003490,0.6742975333333333,0.1438193599999999,0.23200542,-0.4433902611111111,0.2476222033333333,1.0857979666666666
899,1778415003500,0.7271901222222222,0.1723474488888888,0.2239561588888888,-0.2927146122222221,0.1243668033333333,1.140909922222222
900,1778415003510,1.00350368,0.299645532,0.1954321339999999,-0.1764432309999999,0.275293581,1.1197746299999998
901,1778415003520,1.5285411222222225,0.4559548055555555,0.0653628919999999,-0.0537375913333333,0.6308270377777778,0.8435631
902,1778415003530,1.6926414600000002,0.4576730579999999,-0.0392096096,-0.00839915,0.684744504,0.632318548
903,1778415003540,1.6717235333333331,0.3811909533333333,-0.1743496066666666,0.0870966413333333,0.3763073666666667,0.1421747024666666
904,1778415003550,1.44244396,0.2862728,-0.175912712,0.160194694,-0.041858314,-0.15145958189
905,1778415003560,1.0328957,0.09494456,-0.1366848,0.2393333544444444,-0.8645270277777777,-0.3612991866666666
906,1778415003570,0.9050101,0.0363557784,-0.072046888,0.24693501,-0.9520818,-0.37948886
907,1778415003580,0.7806214111111112,-0.0513851138888888,0.049321982,0.1951487377777777,-1.2808534444444444,-0.3115490688888889
908,1778415003590,0.713727635,-0.1322760148,0.1637656508,0.124276876,-1.1984975800000002,-0.1382041918
909,1778415003600,0.7233619944444444,-0.1573364155555555,0.2493539755555555,-0.0010689826666666,-0.60573138,0.1888027156666666
910,1778415003610,0.9242918,-0.07125416,0.16790615,-0.18371232,0.576258,0.5544966
911,1778415003620,0.9776552666666666,-0.0046649063999999,0.0373023135555555,-0.20651728,0.8776772,0.5805593911111111
912,1778415003630,0.96408063,0.058570493,-0.15327114,-0.21181129,0.9190197,0.5282302
913,1778415003640,0.963132057777778,0.0719859079999999,-0.2056115844444444,-0.2242997211111111,0.8603444377777777,0.4815343022222221
914,1778415003650,0.9534330333333334,0.0994366977777777,-0.3085952466666666,-0.25212722,0.5548783866666667,0.2944792766666666
915,1778415003660,0.899482355,0.1055305409999999,-0.3958920019999999,-0.30514874,0.220867104,0.146572796
916,1778415003670,0.8624690577777777,0.0711254243333333,-0.3939762311111111,-0.32637908,-0.1239086733333333,0.0648685857777777
917,1778415003680,0.85340351,0.0482040335,-0.35156013,-0.30343838,-0.3562003299999999,0.060321168
918,1778415003690,0.8917830822222221,0.0440981038888888,-0.2907520533333333,-0.2570818555555555,-0.5259140555555555,0.0965647711111111
919,1778415003700,0.99285678,0.0774008582,-0.269338896,-0.241193037,-0.497977951,0.1119988488
920,1778415003710,1.1393043,0.09128582,-0.24602045,-0.31565532,-0.39926505,0.026724568
921,1778415003720,1.13115444,0.0754525789999999,-0.2438252149999999,-0.404167089,-0.327246159,-0.0711331646
922,1778415003730,1.106345,0.06271707,-0.2689486,-0.4885251,-0.24410984,-0.17180079
923,1778415003740,1.06824827,0.0589607558999999,-0.266046008,-0.5107598999999999,-0.25779281,-0.210284172
924,1778415003750,1.0181285222222225,0.0389487493333333,-0.2203854844444444,-0.5164883333333333,-0.2950137744444444,-0.2134741488888888
925,1778415003760,0.96920294,0.0151228339999999,-0.057594825,-0.480767352,-0.2817380209999999,-0.1314237892
926,1778415003770,0.9921040288888888,0.0307233373333333,-0.0139439033333333,-0.4126442933333333,-0.0892939866666666,-0.0245866037777777
927,1778415003780,1.1271524555555557,0.1030717257777777,-0.0039568699999999,-0.3394783733333333,0.3082997146666666,0.0580813913333333
928,1778415003790,1.2219799,0.1623814156,-0.0665282652,-0.32127512,0.561475556,0.049570253
929,1778415003800,1.3362026666666666,0.2286380022222222,-0.1511504066666666,-0.2927146222222222,0.7279517577777778,-0.0390433205555555
930,1778415003810,1.2449507,0.2657777,-0.18769388,-0.28511295,0.51272994,-0.15225367
931,1778415003820,1.1885517333333333,0.2504549933333333,-0.1560185896111111,-0.2834840388888888,0.3900175,-0.1552400388888889
932,1778415003830,0.8820636000000001,0.15522248,0.0026830835,-0.227571146,0.0260679060299999,-0.1034469824999999
933,1778415003840,0.8405774666666667,0.13194876,0.0072361944999999,-0.22158484,0.0026724567,-0.097277425
934,1778415003850,0.8383842999999999,0.121677832,-0.0009390791999999,-0.201793392,-0.03691044598,-0.05989357312
935,1778415003860,0.93648756,0.15156372,-0.022470824,-0.1482153044444444,-0.1147459608888889,0.0157293169666666
936,1778415003870,0.924535578,0.1715405019999999,0.0207481616,-0.126414837,-0.1012326596,0.01047603058
937,1778415003880,0.9079492999999998,0.20156664,0.04686249,-0.09330692,-0.082235314,0.031000499
938,1778415003890,0.91136418,0.182443571,0.0362551646,-0.084755055,-0.1104564552,0.0626423897
939,1778415003900,0.9099005999999998,0.14863673,0.05881441,-0.065818794,-0.23311459,0.118962504
940,1778415003910,0.92868227,0.11689706,0.13250773,-0.013530267152,-0.377274534,0.1824906208
941,1778415003920,0.9876830077777776,0.1394458066666666,0.121450178,0.0250617049511111,-0.3438136755555556,0.2466974588888889
942,1778415003930,1.0419205,0.17010139,0.07905949,0.0249938343333333,-0.2775706922222222,0.2581678022222222
943,1778415003940,1.04704275,0.18510226,0.074303115,0.020921519,-0.277950778,0.254692764
944,1778415003950,1.0421373333333337,0.2113673411111111,0.0916516877777777,0.0235685235555555,-0.3242665733333333,0.2382813355555555
945,1778415003960,1.0082296,0.2550149,0.1937613,0.0942231912,-0.40574002,0.219874468
946,1778415003970,1.0131079,0.25943586,0.24818522,0.27442312,-0.4530195999999999,0.19837265
947,1778415003980,1.02337066,0.25180737,0.263716604,0.38223767,-0.43988638,0.17668757
948,1778415003990,1.0402402222222222,0.2413013433333333,0.26863356,0.55385182,-0.4145362155555555,0.1359983566666666
949,1778415004000,1.06972712,0.220768978,0.245746056,0.662188985,-0.374403548,0.08915316
950,1778415004010,1.1214781,0.1970236933333333,0.20531686,0.7172873833333333,-0.2705798866666666,0.0088063813333333
951,1778415004020,1.1943105399999998,0.166540216,0.0646501136,0.721868745,-0.1118614055,-0.1443126619
952,1778415004030,1.1794183666666664,0.14820308,-0.0850151251111111,0.5858873644444444,0.0442100705555555,-0.3167073411111111
953,1778415004040,1.14201475,0.137468379,-0.1409686,0.470138588,0.088435412,-0.361896468
954,1778415004050,1.0574533666666666,0.1205016122222222,-0.1977994811111111,0.2926128111111111,0.1154755866666666,-0.3694438155555555
955,1778415004060,0.98896015,0.121775396,-0.2201348099999999,0.1665475049999999,0.077256906,-0.310157696
956,1778415004070,0.91477895,0.13738607,-0.20354846,-0.0435568022222222,-0.0774842788888889,-0.1022999511111111
957,1778415004080,0.92453567,0.1586610211111111,-0.1521362466666666,-0.1637579688888888,-0.1613739733333333,0.0483078366666666
958,1778415004090,0.94148788,0.17985806,-0.1230102249999999,-0.229525865,-0.17997088,0.13912046
959,1778415004100,1.0255713444444443,0.2341972766666666,-0.0942399157777777,-0.30839302,-0.1177323244444444,0.2116755455555555
960,1778415004110,1.08704816,0.243941061,-0.1143359414,-0.394698938,0.095765578,0.176565405
961,1778415004120,1.0456368888888887,0.2215440866666666,-0.2327303855555555,-0.5083436866666667,0.1473753844444444,0.1498442288888889
962,1778415004130,0.98447818,0.17161977,-0.277290568,-0.570867288,0.009391776,0.236489512
963,1778415004140,0.9767643166666669,0.1530983633333333,-0.29196825,-0.5967808,-0.0776200205555555,0.3077143022222222
964,1778415004150,1.0535737099999998,0.1499477739999999,-0.328348438,-0.6328072,-0.194386868,0.4782628459999999
965,1778415004160,1.1087876,0.1658192955555555,-0.3491904266666666,-0.6451734888888888,-0.1797672577777777,0.5735007111111111
966,1778415004170,1.24292008,0.19107822,-0.451068992,-0.6319520599999999,-0.072706094,0.6210789400000001
967,1778415004180,1.3436251,0.2025389055555555,-0.5736886288888889,-0.6203323555555555,0.0724447877777777,0.5562612777777778
968,1778415004190,1.3748058,0.2069632899999999,-0.68016165,-0.6444132939999999,0.2054737489999999,0.3969590699999999
969,1778415004200,1.3748058,0.20696329,-0.68016165,-0.64734536,0.216469,0.3816268
970,1778415004210,1.31704326,0.203231368,-0.701702529,-0.683996198,0.23577177,0.252860208
971,1778415004220,1.2466309555555557,0.2127901922222222,-0.633576951111111,-0.6935661711111112,0.2440928733333333,-0.033002722
972,1778415004230,1.1492947111111111,0.2051745711111111,-0.5714832133333333,-0.6011246266666667,0.2687982399999999,-0.132910178
973,1778415004240,1.07321808,0.153469328,-0.531262686,-0.430738948,0.287815948,-0.206741252
974,1778415004250,1.0367000444444443,0.1069472988888888,-0.5599039388888889,-0.1962007444444444,0.2568527877777777,-0.23403934
975,1778415004260,0.98637461,0.0307914299999999,-0.627969545,0.119695522,0.146710241,-0.228915009
976,1778415004270,0.9838649622222222,-0.0563684653333333,-0.6755814044444445,0.3959817599999999,-0.0358109199999999,-0.17098633
977,1778415004280,0.97603256,-0.13762999,-0.66918534,0.69401416,-0.195975073,-0.097766106
978,1778415004290,0.9241866844444444,-0.1285237588888889,-0.6398883266666666,0.8245928911111111,-0.2371190288888889,-0.0581832011111111
979,1778415004300,0.91770595,-0.12738548,-0.6362262,0.8575379120000001,-0.25241736,-0.050853034
980,1778415004310,0.8003380166666667,-0.1139971677777777,-0.5900547566666667,1.0280729444444443,-0.4146040888888889,-0.0321882572222222
981,1778415004320,0.68962249,-0.126482983,-0.5069167859999999,1.30541122,-0.8500703,-0.0471268664
982,1778415004330,0.70244956,-0.14790498,-0.4739605499999999,1.6562359,-1.4633609,-0.08261709
983,1778415004340,0.762407281,-0.200837931,-0.535015965,1.81676665,-1.88344823,-0.118901418
984,1778415004350,0.8685263,-0.2532227577777777,-0.598927211111111,1.8301238666666664,-2.256724333333333,-0.1636561566666666
985,1778415004360,0.96439166,-0.2937305699999999,-0.575487894,1.67266014,-2.76558051,-0.2174310799999999
986,1778415004370,0.94624424,-0.30016994,-0.44368443,1.326302,-3.3711133,-0.22799873
987,1778415004380,0.8469091,-0.22794013,0.20961589,1.1570975,-3.6069005,-0.1565296
988,1778415004390,0.74897353,-0.1925691669999999,0.646717639,1.24121114,-3.56786723,-0.096605494
989,1778415004400,0.6461081555555555,-0.1853868333333333,0.7677413,1.3283383,-3.3485119333333335,-0.0321203866666666
990,1778415004410,0.5272258799999999,-0.194005222,0.831554588,1.47150055,-2.5434763,0.18487292
991,1778415004420,0.75711733,-0.06369274,0.79486346,1.1173923,-1.5336084,0.38834614
992,1778415004430,0.989643146,0.1198301719999999,0.875087652,0.78020465,-1.0797489,0.37429667
993,1778415004440,1.179448911111111,0.2635485711111111,1.0056785888888888,0.4819075777777777,-0.6789652166666666,0.2487336144444444
994,1778415004450,1.43055605,0.429522005,1.2359715,0.16080554,-0.206237305,0.0007635599999999
995,1778415004460,1.5988839666666668,0.4796486088888889,1.4148419777777776,0.0398577826666666,-0.0356073042222222,-0.2888119733333333
996,1778415004470,1.64289468,0.464149044,1.48399822,-0.0453554082,-0.1342184164,-0.395920648
997,1778415004480,1.7801276777777777,0.5062626333333333,1.5954386222222223,-0.60153186,-0.45607382,-0.2157818
998,1778415004490,1.85102574,0.53226583,1.69565685,-0.735307392,-0.516730964,-0.202404245
999,1778415004500,2.019816333333333,0.6432759944444445,2.053541177777778,-1.1523378666666666,-0.7004127433333334,-0.2167998766666666
1000,1778415004510,2.0199654,0.7431966585714286,2.2951775142857143,-1.4102826714285714,-0.7970138428571428,-0.3645667342857143
