id,timestamp,acc_x,acc_y,acc_z,gyro_x,gyro_y,gyro_z
0,1778415316230,-5.3130536,-1.0774714,1.642169,1.2762127,-3.3454578,-8.937688
1,1778415316240,-5.9192681333333335,-0.5438223733333333,1.6428194,1.1808525888888888,-3.7038214666666662,-8.355007444444444
2,1778415316250,-6.1950446,0.072376164,1.77805496,1.030713089,-3.80450943,-7.549086900000001
3,1778415316260,-5.791709733333333,0.9582876,1.9718020333333333,0.8180093355555554,-2.72538,-6.480715999999999
4,1778415316270,-5.05041024,1.35084708,1.75605364,0.90787178,-1.268057928,-6.25880208
5,1778415316280,-4.210215,1.6682985,1.4388949,1.091126,0.14377818,-6.2566032
6,1778415316290,-3.61406759,1.34449001,0.983130565,2.05768476,1.27208942,-6.3891569
7,1778415316300,-3.4963626,1.2750167888888888,0.7822373944444445,2.3940036888888887,1.3045322333333331,-6.253413077777777
8,1778415316310,-3.1860396,1.2111174,0.2385911566666666,2.6781834666666664,1.1698743333333337,-5.9825362
9,1778415316320,-2.8873849700000003,1.2031250999999998,-0.1733851209999999,2.67085333,0.863715135,-5.5380635
10,1778415316330,-2.4260663,1.2317080666666669,-0.5091658933333334,2.3731671666666667,0.5510096833333333,-4.820093666666668
11,1778415316340,-2.1018848599999997,1.30417978,-0.685930256,2.10227674,0.4589753639999999,-4.3572346
12,1778415316350,-1.8405377,1.378742388888889,-0.793359288888889,1.8683188111111109,0.4224602711111111,-4.014980511111111
13,1778415316360,-1.35230455,1.5307753,-0.8887104000000001,1.36649584,0.45384425,-3.3712507200000004
14,1778415316370,-1.1733238888888888,1.5868643333333334,-0.8972068244444444,1.2237476444444446,0.4853096699999999,-3.1583772000000003
15,1778415316380,-0.872383188,1.7403636800000002,-0.890945282,1.00469108,0.549136402,-2.6506952900000003
16,1778415316390,-0.5525830622222222,1.9810675555555557,-0.8160740333333334,0.87366429,0.5701495666666667,-1.9531077
17,1778415316400,-0.4163217044444444,2.1438752222222224,-0.7475639377777777,0.9175095733333332,0.5962123777777778,-1.5626321
18,1778415316410,-0.38465658,2.29623155,-0.712998885,1.02295536,0.7094227200000001,-1.18837278
19,1778415316420,-0.5255184433333333,2.328286366666666,-0.7947922666666667,1.0854247333333331,0.8055803,-0.8164482466666666
20,1778415316430,-0.731189,2.30917148,-0.92973714,0.98880905,0.95200545,-0.21517095
21,1778415316440,-0.8558527611111111,2.2719043,-1.0349350777777775,0.7231922777777778,1.1537208111111112,0.5500849311111111
22,1778415316450,-0.887228567,2.21808063,-1.06329988,0.42298121119,1.2769151600000002,1.0672647
23,1778415316460,-0.8851228,2.0939195777777777,-1.0158146733333333,-0.1867665500888889,1.4313848444444444,2.0046565555555556
24,1778415316470,-0.7906101400000001,1.99404922,-0.8874786740000001,-0.525420284,1.44923512,2.58686188
25,1778415316480,-0.664656,1.8924748666666664,-0.6613631400000001,-0.6981135833333334,1.4486242777777778,3.041603688888889
26,1778415316490,-0.6667089777777778,1.8318176111111113,-0.5879848611111111,-0.70171078,1.4761124,3.3007386333333333
27,1778415316500,-0.72429228,1.74479094,-0.543537808,-0.579419156,1.5251023,3.4955580999999993
28,1778415316510,-1.031662488888889,1.597203588888889,-0.6808425733333333,-0.3354060555555555,1.4674927,3.652043611111111
29,1778415316520,-1.46259146,1.4749214,-0.851787536,-0.2985516099999999,1.31362705,3.7538855
30,1778415316530,-2.2675205666666667,1.3071189333333333,-1.0320825866666667,-0.4691816066666667,1.2246469666666668,3.9871781
31,1778415316540,-3.15299496,1.13115136,-1.04349986,-0.78124312,1.33635056,4.4258327600000005
32,1778415316550,-3.650202844444444,1.0200256533333334,-0.985877248888889,-0.9646551,1.4307061,4.741735922222222
33,1778415316560,-4.243891,0.8617270900000001,-0.909092665,-1.2405544000000002,1.66944555,5.68026855
34,1778415316570,-4.547152344444445,0.6163028866666667,-0.7709833133333333,-1.4144422333333333,1.7746130666666666,6.534691266666666
35,1778415316580,-4.565920344444445,0.5029561711111111,-0.7025918111111111,-1.5134673666666667,1.8597245,6.896881333333334
36,1778415316590,-4.527861919999999,0.154576093,-0.6561480639999999,-1.8779735,2.1923308500000003,7.2480845
37,1778415316600,-4.5063202,-0.0536921499999999,-0.69423765,-2.3641061333333333,2.2598294333333335,7.221309000000001
38,1778415316610,-4.4884328,-0.3460567499999999,-0.678332235,-3.16918252,2.21022873,7.062265050000001
39,1778415316620,-4.537724000000001,-0.6992786133333334,-0.1717274953333333,-4.638341466666667,1.9104248,6.7556397
40,1778415316630,-4.4685536,-1.0382374479999998,0.3573867228,-5.364766,1.613553,6.643651
41,1778415316640,-4.040052977777778,-1.3782952666666666,0.892636811111111,-5.676807,1.1767971666666668,6.7259119
42,1778415316650,-3.65888428,-1.46054869,1.02640136,-5.52914494,0.916370088,6.7989285
43,1778415316660,-2.8925264444444445,-1.5115820777777778,1.1130289666666666,-5.017703066666667,0.4994948899999999,6.786793
44,1778415316670,-2.2914446,-1.4782671,1.0782742333333333,-4.490338288888889,0.2199983366666666,6.442241222222222
45,1778415316680,-1.7172801,-1.411561,0.98850275,-3.85837865,0.094299545,5.7801422
46,1778415316690,-1.4850595777777778,-1.388211077777778,0.9228925888888888,-3.466278388888889,0.1050911833333333,5.296860311111112
47,1778415316700,-1.21322014,-1.39483753,0.7986258700000001,-2.81360842,0.254708033,4.4455632199999995
48,1778415316710,-0.9364774111111108,-1.3805412222222222,0.6523483666666667,-2.501003877777778,0.3138651822222222,4.018475844444445
49,1778415316720,-0.7551355,-1.34659684,0.540543742,-2.02561532,0.292947066,3.3184125
50,1778415316730,-0.6408368333333334,-1.3297219,0.4950695366666666,-1.728825,0.26228253,2.888416766666667
51,1778415316740,-0.5681886300000001,-1.30943615,0.49063839,-1.2499844,0.277553725,2.3199215
52,1778415316750,-0.3958835088888889,-1.2331919222222223,0.4439859333333333,-0.7338821222222222,0.3520770911111111,1.924974788888889
53,1778415316760,-0.3123081755555555,-1.1973971444444445,0.41882186,-0.5428905311111111,0.3588642866666667,1.781900788888889
54,1778415316770,-0.1107137759999999,-1.10627182,0.354386532,-0.0426066,0.333751685,1.35871515
55,1778415316780,-0.0073175,-1.04444098,0.2877437644444444,0.4601207133333333,0.30789247,0.7892655333333334
56,1778415316790,0.141517405,-0.91432166,0.12018994,0.761940305,0.291603205,0.354199771
57,1778415316800,0.1463601633333333,-0.87760202,0.0518119655333333,0.8793655,0.2895670466666666,0.0994153866666666
58,1778415316810,0.1009052775,-0.860166078,-0.01037560538,1.0136704600000002,0.300765912,-0.258296774
59,1778415316820,0.0355813438888888,-0.8757387555555556,-0.0300593416666666,1.0706285333333332,0.3606968155555556,-0.5079703866666667
60,1778415316830,-0.0196840744,-0.91233373,-0.010451829,1.0767099,0.48548614,-0.6781931800000001
61,1778415316840,-0.0020292507777777,-0.9527622333333334,0.0509209948888888,1.055221711111111,0.6672063911111111,-0.7850914322222222
62,1778415316850,0.0885925763333333,-0.95211858,0.0706037166666666,1.0366248111111112,0.7481776044444444,-0.8568320477777778
63,1778415316860,0.143337642,-0.946372316,0.072132262,1.010371924,0.783090936,-0.99167997
64,1778415316870,0.2330285033333333,-0.93856426,0.0773791788888888,0.9661058333333332,0.7666387555555556,-1.2269376222222224
65,1778415316880,0.264058095,-0.958028477,0.0613755339999999,0.8557053760000001,0.74057594,-1.59096698
66,1778415316890,0.2978087088888889,-1.029203008888889,-0.0103291916666666,0.7071066155555555,0.6115514333333333,-1.9018644222222223
67,1778415316900,0.435318088,-1.21379646,-0.1087075592,0.38156575,0.0324817959999999,-2.30446704
68,1778415316910,0.5759008,-1.4473033,-0.1420780655555555,0.1266659633333333,-0.4619787088888889,-2.594633066666667
69,1778415316920,0.7780087840000001,-1.7993428000000002,-0.2123355619999999,-0.54502847,-1.78287225,-3.4191412
70,1778415316930,0.8207389466666667,-2.2010532,-0.2339669099999999,-1.7615816666666666,-3.795652066666667,-4.8186432
71,1778415316940,0.435708356,-2.6347207399999997,0.004329524,-2.8739599599999996,-5.1713258,-5.92393552
72,1778415316950,-0.0296629755555555,-2.8910731,0.3323974533333333,-3.547945088888889,-5.704015155555556,-6.515008288888889
73,1778415316960,-0.8008699,-3.1118279,0.9551777,-4.303419,-5.8707767,-7.1051464
74,1778415316970,-1.97733194,-2.85766977,1.74802583,-4.7222158,-4.63414694,-7.4543066
75,1778415316980,-2.750252,-2.3914911333333335,2.2099867,-4.763862111111111,-3.3347338333333334,-7.681989644444444
76,1778415316990,-4.2206182,-1.00586354,3.12309672,-4.30647336,-1.578597276,-7.932844040000001
77,1778415317000,-4.577350666666667,0.1625297999999999,3.696801,-3.6539186666666663,0.3929020111111111,-8.200531
78,1778415317010,-4.55982115,0.799052695,4.0794239,-2.58429617,2.29522036,-8.5708741
79,1778415317020,-4.476412666666667,1.304862688888889,3.7266536,-0.5794479977777777,3.823606855555555,-9.186777333333332
80,1778415317030,-4.383304409999999,1.23089505,2.9268293200000004,1.701537924,3.99874346,-9.1212475
81,1778415317040,-4.115788822222222,1.2696608666666669,2.3270090999999997,3.2705017333333335,4.461806533333334,-8.840563333333334
82,1778415317050,-3.7557881333333336,1.2216160666666669,1.4447489,4.243420088888889,4.872296,-8.548510222222223
83,1778415317060,-3.5142780799999995,1.15214654,0.8925215400000001,4.8019923,5.1217863999999995,-8.22208012
84,1778415317070,-3.166309344444445,1.0553427333333334,0.3198086111111111,5.243818288888889,5.470179555555555,-7.628099333333334
85,1778415317080,-2.68125404,1.0109858,-0.34381274,5.33593412,5.75981604,-6.91563092
86,1778415317090,-2.2690346666666668,1.0094017333333332,-1.1038821,5.254813655555555,5.8868452,-6.0434173
87,1778415317100,-2.0897804,1.08411206,-1.59939812,4.8027866,5.3666749000000005,-5.05017965
88,1778415317110,-1.9654331333333337,1.1460763444444444,-1.8615516888888888,4.3221090222222225,4.813654622222223,-4.177134611111111
89,1778415317120,-1.7808295,1.22960216,-2.141375,3.10235564,3.47350664,-2.69406546
90,1778415317130,-1.6311792111111112,1.3191555777777777,-2.2657553555555556,1.838429611111111,2.1754646222222225,-1.4331664277777778
91,1778415317140,-1.3508258000000002,1.4303579000000002,-2.1847157000000004,0.595606632,1.0743886960000002,-0.25634203
92,1778415317150,-0.9397398333333334,1.5291949333333337,-1.8568054,-1.2983558566666666,-0.36831542,1.3846889333333334
93,1778415317160,-0.8355366,1.5482306,-1.7432419,-1.7518336,-0.69125,1.7481685
94,1778415317170,-0.53017728,1.62325318,-1.30390534,-2.59504714,-0.97193436,2.37135491
95,1778415317180,-0.3161160166666666,1.6866939666666667,-0.9117707,-3.025450088888889,-0.8914043266666667,2.6833757333333335
96,1778415317190,-0.257234528,1.70252624,-0.6268719600000001,-3.19361635,-0.355345123,2.91012218
97,1778415317200,-0.2328082966666667,1.7022335666666666,-0.20525588,-3.109000422222222,-0.02311887,3.0213099111111115
98,1778415317210,-0.242977594,1.6850496200000002,-0.09006623,-2.9806139199999997,0.1231315346,3.08910036
99,1778415317220,-0.2841019522222222,1.6040502777777776,0.1738380588888889,-2.256257711111111,0.2684588888888888,3.2976844888888888
100,1778415317230,-0.305670273,1.53318392,0.292916481,-1.45642787,0.181895041,3.45395945
101,1778415317240,-0.3519175588888888,1.4533638777777778,0.2656523611111111,-0.4561756506666666,0.1733024533333333,3.564828266666667
102,1778415317250,-0.4643360366666667,1.2976773,0.13592257,0.2081122773333333,0.2214915177777777,3.5959136
103,1778415317260,-0.575472592,1.18133718,3.0489999999996908e-05,0.643741384,0.282684844,3.5484575200000004
104,1778415317270,-0.7489156388888889,1.0630938333333335,-0.2155105477777777,1.0840672333333332,0.3467830777777778,3.3794022
105,1778415317280,-1.191697592,0.94431117,-0.65552608,1.22416846,0.359285078,3.1286833
106,1778415317290,-2.0963723,0.7546781833333333,-1.0212587666666666,0.9308124388888888,0.2946574411111111,2.909728422222222
107,1778415317300,-2.9283569,0.56180107,-1.25098765,0.2417427984,0.223860247,2.90138703
108,1778415317310,-3.719563244444444,0.3669082455555555,-1.4147777111111113,-0.2487336122222222,0.2842730444444444,3.1120547
109,1778415317320,-4.10878228,0.2431117301999999,-1.47097606,-0.884125064,0.4736509599999999,3.52819268
110,1778415317330,-4.666627055555555,-0.1083938606666666,-1.3901454555555557,-2.420507777777778,1.0190628666666666,4.695582988888889
111,1778415317340,-4.535074844444444,-0.4019204777777778,-1.0372590888888888,-3.558363533333333,0.9992442933333332,5.4343009
112,1778415317350,-4.417465,-0.51738384,-0.76250184,-4.22584138,0.728160476,5.80488142
113,1778415317360,-4.321990066666666,-0.6568980666666666,-0.3430484666666666,-4.700944777777778,0.3336159299999999,6.035374333333333
114,1778415317370,-4.2777744,-0.8102759300000001,0.060512674,-4.87224005,0.0191042474999999,6.1329673
115,1778415317380,-4.0268508333333335,-0.9608893666666668,0.5603985366666666,-4.800241222222223,0.0062017955555555,6.2341033333333336
116,1778415317390,-3.25544595,-1.01868137,0.8351584360000001,-4.15095158,0.567828346,6.321352989999999
117,1778415317400,-2.7743149555555555,-1.0068947666666668,0.8482777955555556,-3.747904266666666,0.7605302733333333,6.144716233333333
118,1778415317410,-2.4393428555555556,-0.9803993333333332,0.828727211111111,-3.352321222222222,0.9141583888888888,5.819813366666667
119,1778415317420,-2.15962605,-0.968355284,0.78628367,-2.8793354,1.09714278,5.3192580199999995
120,1778415317430,-1.9070626,-0.9896918933333334,0.6950303766666667,-2.5752556666666666,1.176389988888889,4.883180933333334
121,1778415317440,-1.6628958400000002,-1.00870518,0.575161652,-2.35046384,1.10703854,4.42778744
122,1778415317450,-1.3776244222222225,-0.9981239666666668,0.4445855777777777,-2.2194710222222223,0.9640188333333334,4.0225309777777785
123,1778415317460,-1.11131485,-0.98630755,0.31431712,-2.13330765,0.7241212499999999,3.55291675
124,1778415317470,-0.982316811111111,-0.9876761622222224,0.23991238,-2.128522666666667,0.5174130766666667,3.2691782000000003
125,1778415317480,-0.8441955800000001,-0.991307865,0.15203631,-2.17820496,0.271689594,3.0045591600000003
126,1778415317490,-0.7034251866666668,-0.9817951,0.0958186033333333,-2.327251677777778,0.0329433344444444,2.8136897888888885
127,1778415317500,-0.5726147222222223,-0.9780279444444444,0.05074822,-2.493945144444444,-0.1622563011111111,2.711067433333333
128,1778415317510,-0.384931004,-0.96794062,0.0069272323799999,-2.73651936,-0.4970005999999999,2.65710916
129,1778415317520,-0.2734204222222222,-0.9641246555555556,0.0069990527888888,-2.8521730888888888,-0.7041456977777778,2.6431275333333333
130,1778415317530,-0.130602127,-0.9972990000000002,0.102002905,-2.9167193,-1.09257665,2.6354241000000003
131,1778415317540,-0.0462628592222222,-1.1251875444444446,0.2810970333333333,-2.696339111111111,-1.526889011111111,2.6617244444444443
132,1778415317550,-0.0149246499999999,-1.20583255,0.39497733,-2.3104533999999997,-1.81799595,2.7352977
133,1778415317560,0.0489493316666666,-1.2689629777777778,0.5127060777777778,-1.8540996444444444,-1.8962565555555555,2.8262461777777776
134,1778415317570,0.345105512,-1.31589992,0.704400842,-0.7013442160000001,-1.80071662,2.94860554
135,1778415317580,0.6647271333333333,-1.3619187888888888,0.8341171,0.3287206444444444,-1.5105997777777778,2.7744597555555557
136,1778415317590,1.1332856,-1.43528488,0.9035954,2.04103914,-0.954403004,2.01901818
137,1778415317600,1.5327724,-1.5322946666666666,0.8018455666666666,3.861038166666666,-0.4513906666666667,0.6895192866666666
138,1778415317610,1.6238853999999998,-1.6382053,0.5721166933333334,4.8893911333333335,-0.147392355,-0.3182005033333333
139,1778415317620,1.63350382,-1.66388369,0.1313033828,5.58454884,0.144999872,-1.6007404599999997
140,1778415317630,1.6030813222222222,-1.5629841444444446,-0.2723770026666667,5.712880999999999,0.4137726722222222,-2.8304201555555557
141,1778415317640,1.27913564,-1.45256644,-0.551416312,5.023302419999999,0.7147981999999999,-4.667147819999999
142,1778415317650,0.7759192666666667,-1.3224044,-0.6170380400000001,3.9298349666666663,0.7261192333333333,-6.0476931
143,1778415317660,0.15617984,-1.087081724,-0.561697428,2.87695316,0.326421506,-7.0078689
144,1778415317670,-0.8000602444444443,-0.8882259222222222,-0.3266484777777778,1.991217866666667,-0.3360084077777777,-7.634004388888889
145,1778415317680,-2.28284665,-0.70822725,0.16032948,1.3022348,-1.3100688379999998,-7.72845476
146,1778415317690,-3.3041225,-0.4982641444444444,0.5678651044444445,1.0664884222222222,-2.4889819777777777,-7.094015122222222
147,1778415317700,-3.9529134999999993,0.0119620866666666,0.9657677,1.259244611111111,-3.344507511111111,-6.179127188888889
148,1778415317710,-3.98620817,0.529128446,1.09837513,1.555408,-3.6875322,-5.36965275
149,1778415317720,-3.7474205,0.737617591111111,1.0852361555555556,1.7492205,-3.4810658666666665,-5.045089333333333
150,1778415317730,-3.36263516,0.8117424960000001,1.01532144,1.80345014,-2.96489996,-5.0814552
151,1778415317740,-3.1817168,0.77614962,0.91988768,1.7464377666666666,-2.2459157333333333,-5.195289888888889
152,1778415317750,-2.8213414200000004,0.615438364,0.53590932,1.33783182,-0.58777254,-5.1492592
153,1778415317760,-2.4824721333333333,0.4918748933333333,0.0550370822222222,0.7842769333333334,0.5781584555555556,-4.677495133333333
154,1778415317770,-2.28716394,0.494473966,-0.151527134,0.326039703,0.7630551289999999,-4.21476226
155,1778415317780,-1.862896644444444,0.6711807888888889,-0.1432061804444444,-0.1678302866666666,0.4756718499999999,-3.794201466666667
156,1778415317790,-1.469415,0.8176574819999999,0.1854254576,-0.19030947,-0.131591764,-3.69512206
157,1778415317800,-1.2444696666666666,0.76153155,0.568735788888889,0.1791309566666666,-0.0117842533333333,-4.268066166666667
158,1778415317810,-1.6489578777777778,0.0796658899999999,-0.0918617233333333,0.4820433355555555,0.1850443022222222,-3.758517666666666
159,1778415317820,-1.39819732,0.247657735,-0.5446354409999999,0.458715758,-0.068491262,-3.50331588
160,1778415317830,-0.5423554777777778,0.9750399422222222,-1.0750898333333332,-0.001001111111111,-0.8229215844444444,-3.5395460222222224
161,1778415317840,-1.08523404,0.24258733,-0.64107404,-1.03846324,-0.955136044,-3.4289759
162,1778415317850,-1.0905345,0.2990418644444444,-0.5285301888888889,-1.4015466,-0.9172635155555556,-3.1256631333333336
163,1778415317860,-0.83358522,0.65326984,-0.4346534099999999,-1.5310123,-0.7529456,-2.8608269
164,1778415317870,-0.6998985577777778,0.7682697622222222,-0.3868755544444444,-1.5966784,-0.6057314,-2.7569828
165,1778415317880,-0.6001569649999999,0.70847124,-0.4351320999999999,-1.6465234600000005,0.0923448347199999,-2.8070722
166,1778415317890,-0.5918231633333333,0.81478335,-0.3294704433333333,-1.7014726222222225,0.6687674577777778,-2.8135201
167,1778415317900,-0.6747954866666667,1.0417580000000002,-0.0492203499999999,-1.6386232666666667,1.6471240666666669,-2.8508495666666667
168,1778415317910,-0.93212754,1.11880314,-0.26382636,-1.54243516,2.27339022,-2.74989692
169,1778415317920,-1.1793167666666668,1.2107007333333333,-0.3430687879999999,-1.4928343333333334,2.3634699,-2.490110422222222
170,1778415317930,-1.44448674,1.4738908,0.0706138736,-1.46162003,2.16588111,-1.65963384
171,1778415317940,-1.6023292222222223,1.6904915333333337,0.6020845666666665,-1.3584479333333332,2.039517233333333,-0.7800010686666667
172,1778415317950,-1.68565316,1.85876092,1.26717752,-0.72959595,1.76296626,0.5675687376
173,1778415317960,-1.4060373222222222,1.8057660111111111,1.519719388888889,-0.0570633111111111,1.4531037555555557,1.2102496444444444
174,1778415317970,-1.11721156,1.70453246,1.40960054,0.4318384779999999,1.1660844410000002,1.51451947
175,1778415317980,-0.8746648433333334,1.5050369333333335,0.5975043666666666,0.9037994333333336,0.4361704133333333,1.7080562
176,1778415317990,-0.991624952,1.39736196,0.200889773,0.950386736,-0.71482872,1.88695296
177,1778415318000,-1.3250875666666666,1.1715114,0.148707865,0.7844127377777778,-1.3908737777777778,2.030583488888889
178,1778415318010,-1.654585,0.8784421555555555,0.1890455755555555,0.6531484444444444,-2.0207676333333335,2.174268366666667
179,1778415318020,-2.14875325,0.751796935,0.23109579,0.6239499540000001,-2.48953854,2.35388466
180,1778415318030,-2.6260271,0.7315772600000001,0.24525821,0.6150723,-2.653775,2.4773165333333336
181,1778415318040,-3.2993391200000004,0.585278076,0.270399934,0.53953083,-2.7202556,2.6971197499999997
182,1778415318050,-4.040520377777778,0.4114942244444444,0.3527746433333333,0.3681542488888889,-2.5466052222222224,3.2037496666666665
183,1778415318060,-4.232899433333333,0.2739082666666667,0.4500872266666667,0.20295401,-2.0990578,3.832625433333334
184,1778415318070,-4.187958,0.0402858879,0.615416997,0.122322167,-1.5448098099999998,4.46639293
185,1778415318080,-3.9788671666666664,-0.1380297268888889,0.6969241177777777,0.1426837399999999,-1.2560801233333332,4.7666446
186,1778415318090,-3.541940911111111,-0.4241981988888889,0.78905008,0.2567085622222222,-0.7655018944444445,5.184599888888888
187,1778415318100,-3.32808424,-0.57965579,0.8832954279999999,0.424080713,-0.283875983,5.4161995
188,1778415318110,-2.9809699555555556,-0.7969808088888889,1.041832468888889,0.5461822966666667,0.0033511822222222,5.464164611111112
189,1778415318120,-2.5970570000000004,-0.8749138500000001,1.05867455,0.7352463140000001,0.333751672,5.4351969
190,1778415318130,-2.242051533333333,-0.8950928766666668,1.0138497866666667,0.99196506,0.67297552,5.311724333333333
191,1778415318140,-1.92466716,-0.8880884420000001,0.937768176,1.24469294,0.873038216,5.0743082
192,1778415318150,-1.5554768666666667,-0.8535152866666667,0.8122526666666667,1.635721711111111,1.2757545555555554,4.629475655555556
193,1778415318160,-1.3366907600000002,-0.81462983,0.65046786,1.8178051,1.53224931,4.38117991
194,1778415318170,-1.2062661444444445,-0.8013407555555556,0.5189733833333333,1.916389055555556,1.7199762444444446,4.184846888888888
195,1778415318180,-1.1098377444444445,-0.8069779333333333,0.41799185,1.9604379333333333,1.8707197333333336,4.024236466666667
196,1778415318190,-1.0470244599999998,-0.818870892,0.353124252,1.9652025600000005,2.02245414,3.88088068
197,1778415318200,-0.8819721555555555,-0.8409670933333334,0.2422736211111111,1.8952130222222223,2.211572611111111,3.7624034444444447
198,1778415318210,-0.75123892,-0.854019324,0.215244272,1.78799574,2.3336198699999997,3.654744930000001
199,1778415318220,-0.6021489333333334,-0.8480677,0.2323306333333333,1.7478630555555557,2.310394155555555,3.5614346777777777
200,1778415318230,-0.458093788,-0.8360060199999999,0.236233292,1.7229405,2.20155468,3.38670518
201,1778415318240,-0.231436265,-0.8117749666666667,0.2104492633333333,1.6725253,2.0044952,3.020970466666667
202,1778415318250,0.034587386,-0.758501562,0.0838951422,1.4166159,1.69174146,2.07582694
203,1778415318260,0.0207938977777777,-0.7665826644444445,0.0088623056666666,1.2202183,1.484867811111111,1.5450957444444446
204,1778415318270,-0.1811447152,-0.8859480399999999,0.01502526784,1.051543024,1.13269406,1.2259705
205,1778415318280,-0.3361849244444444,-0.9885366888888888,0.0220609089777777,0.99461206,0.8294033333333333,1.1645294000000002
206,1778415318290,-0.6012037544444444,-1.1602336666666666,-0.0300457907111111,0.9943405555555554,0.2919425666666667,1.3214916555555556
207,1778415318300,-0.6890219099999999,-1.21061332,-0.091767546,0.9839222,-0.260602715,1.61866885
208,1778415318310,-0.6539609166666667,-1.2406516666666667,-0.0671177353333333,0.8832342,-0.8912007099999999,2.0556283333333334
209,1778415318320,-0.575576244,-1.30378954,-0.0445696736,0.76420044,-1.2098593599999998,2.32774042
210,1778415318330,-0.53780574,-1.3373647,-0.040764574,0.6476508,-1.4884057,2.5667038
211,1778415318340,-0.4498094288888888,-1.3840137555555556,-0.0762849417777777,0.5930139111111111,-1.7049595333333334,2.685479688888889
212,1778415318350,0.084943986,-1.4535177,-0.2251320396,0.38382587,-2.68855266,2.89271294
213,1778415318360,0.6181661599999999,-1.3677118666666666,-0.36801942,0.0508530333333333,-3.459007444444444,2.5403694444444445
214,1778415318370,1.021773042,-1.27819343,-0.431113573,-0.67153493,-3.92838924,1.55892803
215,1778415318380,1.2152131555555554,-1.2643217222222225,-0.41063372,-1.2486566222222222,-3.958205444444444,0.7796023311111111
216,1778415318390,1.35098122,-1.29178272,-0.353392562,-1.9998375,-3.84726885,-0.2567085649999999
217,1778415318400,1.515698233333333,-1.437279,-0.23299123,-2.7171759,-3.720721566666666,-1.382551
218,1778415318410,1.6328391666666666,-1.6182854999999998,-0.0629711493333333,-3.5178438666666665,-3.6103618,-3.0459135333333336
219,1778415318420,1.5552066,-1.88038412,0.2847483064,-4.1562048,-3.29658996,-5.001769919999999
220,1778415318430,1.371228433333333,-2.075862966666667,0.5803387333333334,-4.384933288888889,-2.973248155555556,-6.250714955555555
221,1778415318440,1.02005349,-2.2669584,0.89803718,-4.27153284,-2.27818536,-8.12477238
222,1778415318450,0.1353635866666666,-2.5937285666666665,1.3993600666666668,-3.5622066666666665,-1.4395633666666667,-9.919981333333332
223,1778415318460,-0.8436739088888889,-2.8008511666666664,1.7763842111111112,-2.505619111111111,-0.6657980833333332,-11.153511
224,1778415318470,-2.0812067,-2.8465137,1.92425256,-0.7627039068,-0.184979824,-12.0392036
225,1778415318480,-2.874815388888889,-2.7575015777777776,1.7328652999999998,0.6167690875555556,-0.4424994366666666,-12.218090666666669
226,1778415318490,-3.20326624,-2.67764692,1.57644562,1.1296093,-0.68819577,-12.198544
227,1778415318500,-4.017016255555556,-2.271236911111111,1.4943012111111111,2.283372488888889,-1.741330422222222,-12.106296888888888
228,1778415318510,-4.870097644444445,-1.7529139666666669,1.8714742666666664,2.927476988888889,-1.1644191055555555,-11.619655222222224
229,1778415318520,-4.9905349999999995,-1.26578114,1.87186526,3.59335478,-0.273063986,-11.1490314
230,1778415318530,-4.613785577777778,-0.9916703,1.3760491222222222,4.387639444444444,0.8255855222222223,-11.173397444444443
231,1778415318540,-4.3787981799999995,-0.8262433299999999,0.7004006439999999,4.876332499999999,2.01365804,-11.474979199999998
232,1778415318550,-4.820088222222221,-0.9470945,0.0336706544444444,4.878531633333333,3.7668406,-11.070232333333331
233,1778415318560,-5.19380302,-0.95031762,-0.590918609,4.84224724,4.5924872,-10.129894
234,1778415318570,-5.110366,-0.6988653055555556,-1.1273693666666669,4.7093267333333335,4.665218666666667,-8.452700666666665
235,1778415318580,-4.788592400000001,-0.49451055,-1.626741233333333,4.4273528777777775,4.289887,-6.948939111111112
236,1778415318590,-4.423745800000001,-0.340928424,-2.03461864,3.78821496,3.3871328400000005,-5.08289076
237,1778415318600,-3.804286822222222,-0.0936098044444444,-2.4853007999999996,2.6844954999999997,2.1161446,-3.2726056222222217
238,1778415318610,-2.82539344,0.331458384,-2.48033684,0.8319128939999999,0.9066348000000002,-1.7385323199999998
239,1778415318620,-2.0782310111111113,0.6940344288888889,-2.0425445666666664,-1.0882328355555555,0.0499791845555555,-0.6190767288888889
240,1778415318630,-1.8941145666666668,0.8053214022222223,-1.8429123,-1.5102773444444444,-0.0496567923333333,-0.4284923911111111
241,1778415318640,-1.57836648,1.08327662,-1.3284494,-2.13819435,-0.0003206941999999,-0.1560409338
242,1778415318650,-1.3558040777777778,1.3857515333333337,-0.8004057000000001,-2.466660611111111,0.3657872166666667,0.0527195122222222
243,1778415318660,-1.23787103,1.79159225,-0.23168424,-2.160979,1.18043178,0.234290472
244,1778415318670,-1.293419,1.9658497444444447,0.0313636177777777,-1.6412701555555556,1.7372835444444443,0.4045675333333333
245,1778415318680,-1.4466291666666669,2.050864966666667,0.2470774233333333,-1.135403811111111,2.0255355666666666,0.59447315
246,1778415318690,-1.5317327,2.02061187,0.309545497,-0.606357543,2.1970342599999997,0.8762374900000001
247,1778415318700,-1.6051241,1.9069202444444444,0.3964255666666666,0.2539936833333333,2.424215222222222,1.5621315555555555
248,1778415318710,-1.5428745333333334,1.6631052666666666,0.4001351366666666,0.9182561,2.761131333333333,2.2887682666666667
249,1778415318720,-1.4995844,1.45134995,0.3706923649999999,1.21451705,2.957417,2.67848885
250,1778415318730,-1.6004490666666669,1.1585736333333334,0.3879494666666667,1.3077731333333336,3.031736722222222,2.973324522222222
251,1778415318740,-1.6709725300000002,1.046478683,0.42478393,1.29221684,2.96682398,3.17303086
252,1778415318750,-1.9165041333333337,0.7182329766666666,0.6950405666666666,1.2517787111111112,2.8087775111111113,3.360873088888889
253,1778415318760,-2.53244036,0.493516596,0.98477084,1.25825374,2.69157633,3.63434274
254,1778415318770,-3.171628133333334,0.1920640466666666,1.3911380666666666,1.53567,2.6361114333333333,4.217467733333333
255,1778415318780,-3.6629,-0.1411091844444444,1.7624096666666669,2.0978107444444443,2.721426411111111,4.730129655555555
256,1778415318790,-3.99741008,-0.496778992,1.9716454,2.82124394,2.93554866,5.02580678
257,1778415318800,-4.3526489999999995,-0.9589414666666668,1.9640339111111111,3.976479844444444,3.648327588888889,5.165392111111111
258,1778415318810,-4.50779065,-1.24934729,1.7107796999999998,4.69338378,4.6499067,5.166484939999999
259,1778415318820,-4.673226666666666,-1.5206103888888889,1.3669971,4.853215533333333,5.961903222222222,5.2359788
260,1778415318830,-4.706534666666666,-1.972310233333333,0.5444626600000001,4.672879755555556,6.891222611111112,5.519344111111112
261,1778415318840,-4.664781199999999,-2.24906724,0.21439056,4.40687357,7.087813560000001,5.7904044
262,1778415318850,-4.419407566666667,-2.3873581999999995,0.09714998,3.590857166666667,6.9022855000000005,6.560330066666667
263,1778415318860,-4.2211914,-2.3255322,-0.17644322,3.183965,6.619598999999999,6.950296400000001
264,1778415318870,-3.658909266666667,-2.0280079777777775,-0.521260091111111,1.305507848888889,5.286518222222222,7.536234777777779
265,1778415318880,-3.2898125555555557,-1.5799295444444443,-0.4045290555555556,-1.0667174088888889,3.5406572222222223,7.839893566666667
266,1778415318890,-3.2638094000000004,-1.50054175,-0.333766452,-1.77394616,3.0867332999999997,7.94622181
267,1778415318900,-3.1460881111111108,-1.3258428777777778,-0.0605828066666666,-2.9871023777777777,2.442812177777778,8.277396000000001
268,1778415318910,-2.7302304,-1.2173881,0.2331335199999999,-3.899623533333333,1.9820975666666665,8.834353333333333
269,1778415318920,-2.2254835,-1.15204892,0.2922548619999999,-4.2948672000000006,1.714465,9.104022
270,1778415318930,-1.679779611111111,-1.0959006111111111,0.2749212077777778,-4.5092745,1.5323104,9.225702
271,1778415318940,-1.46946066,-1.11971161,0.383589471,-4.702424580000001,1.02174133,9.25413
272,1778415318950,-1.2919520444444443,-1.211130977777778,0.4099968222222222,-4.696601077777777,0.3166479506666667,9.509687333333334
273,1778415318960,-0.7659695,-1.306051766666667,0.0680120933333333,-4.451583355555556,-0.8107046048888888,9.886715666666667
274,1778415318970,0.058655858,-1.25010338,-0.398822044,-3.98003639,-3.5514735899999996,10.3246932
275,1778415318980,0.8134112766666667,-1.0749509,-0.5358544333333333,-3.7706583,-5.148441333333333,10.233269666666663
276,1778415318990,0.978422924,-1.02714528,-0.4850831699999999,-3.64509358,-6.2936052799999995,9.5890802
277,1778415319000,0.8444666044444444,-1.087746388888889,-0.3792971777777778,-3.613763833333333,-6.675737755555556,8.42325288888889
278,1778415319010,0.3829085222222222,-1.2172085222222222,-0.0220913911111111,-3.6749842666666663,-6.264162333333333,7.387637766666667
279,1778415319020,-0.035056924,-1.38998966,0.298797908,-3.75846684,-5.1196788,5.957715500000001
280,1778415319030,-0.2425175466666666,-1.611049388888889,0.50185177,-3.6387408333333338,-4.324086,5.331882333333334
281,1778415319040,-0.323296317,-1.78414382,0.653321675,-3.3173129,-3.605190059999999,4.707555600000001
282,1778415319050,-0.2283602188888888,-1.941614,0.6969342777777778,-2.396141666666667,-2.969786633333334,3.747980444444445
283,1778415319060,-0.14496578,-2.03608232,0.5300187199999999,-1.56518155,-2.9841416,2.9316851
284,1778415319070,-0.1362579533333333,-2.113842866666667,0.2643040466666667,-0.6668925133333333,-3.3507518333333333,1.9711277333333337
285,1778415319080,-0.1576514766666666,-2.130114166666667,0.0271662193333333,-0.2095715133333333,-3.7125770666666664,1.333148633333333
286,1778415319090,-0.1684000699999999,-2.12161774,-0.0965269772,-0.0500589327,-3.86510557,1.01935134
287,1778415319100,-0.1792889166666667,-2.085141966666667,-0.28131724,0.0036141796666666,-3.931463833333334,0.6072331066666666
288,1778415319110,-0.129611226,-1.94330242,-0.49606554,-0.2863346532,-3.6969392,-0.010781462
289,1778415319120,-0.09290177,-1.8757497,-0.5488735,-0.44515494,-3.559865,-0.22677705
290,1778415319130,0.10843925,-1.6272596200000002,-0.62678046,-0.970132348,-3.1079602599999996,-0.75870283
291,1778415319140,0.2051102033333333,-1.5151020444444443,-0.6390684222222223,-1.3034717,-2.8616667,-1.0923476
292,1778415319150,0.377430574,-1.33933424,-0.5731676,-2.2551717,-2.4001715,-2.0728338
293,1778415319160,0.5239601233333333,-1.2606189555555556,-0.5526067666666666,-2.634779311111111,-2.384051988888889,-2.584316588888889
294,1778415319170,0.8539217666666666,-1.0781320333333335,-0.4044646333333334,-3.2274368333333334,-2.6796341666666668,-3.7746542333333335
295,1778415319180,0.8368018700000001,-1.0419663,-0.211109875,-3.413216,-2.72483692,-4.55902794
296,1778415319190,0.7447826088888889,-1.0373911666666666,-0.0122771388888888,-3.4784274111111113,-2.688932733333333,-5.0671476222222225
297,1778415319200,0.4621367279999999,-1.0833985599999998,0.2529629379999999,-3.38982045,-2.3216778,-6.4771568
298,1778415319210,0.1724084271111111,-1.1121481666666666,0.4546945444444444,-3.2594045555555557,-2.0755062888888887,-7.107453888888888
299,1778415319220,-0.3029750002,-1.18460267,0.72105731,-2.88898675,-1.32655412,-8.299474900000002
300,1778415319230,-0.67058114,-1.2780793,0.7779823888888889,-2.5922914444444447,-0.6037631355555555,-9.19763788888889
301,1778415319240,-0.8283532680000001,-1.40751498,0.6626789,-2.50445848,-0.1184585505,-9.8598764
302,1778415319250,-0.85212296,-1.4352361,0.63500655,-2.4885154,0.031993125,-10.077605
303,1778415319260,-1.0458673155555551,-1.4653361555555555,0.6248433555555555,-2.6307749444444446,0.1395701141111111,-10.524270222222222
304,1778415319270,-2.5894956,-1.45208175,1.38752005,-3.0639335,-0.053525489,-11.478278
305,1778415319280,-3.8972259777777776,-1.3177531111111112,2.131066211111111,-2.9362664222222223,-0.49367488,-11.335950666666667
306,1778415319290,-4.45796128,-1.19813096,2.45744234,-2.69589801,-0.82148267,-10.9500785
307,1778415319300,-4.572452033333334,-0.8958958133333333,2.4488421333333332,-1.8408137,-1.7191278,-9.756478
308,1778415319310,-4.19186068,-0.4488554459999999,2.00093994,-1.06519545,-2.64212822,-8.8562006
309,1778415319320,-4.061924166666667,-0.2112724946666666,1.89632,-1.1368631,-2.6460376,-8.792917000000001
310,1778415319330,-3.96945719,0.0409749509,1.96845945,-1.8010678800000002,-1.46388012,-9.0202744
311,1778415319340,-4.256085133333333,0.0527435917777777,2.106975933333333,-2.2093581333333336,0.2303148999999999,-9.240260666666666
312,1778415319350,-4.48427105,0.06003399,2.2593696000000003,-2.14436398,1.07816071,-9.1927776
313,1778415319360,-4.7829586666666675,0.1158434844444444,2.4744804,-1.4749161666666666,1.542083911111111,-8.680589222222222
314,1778415319370,-4.7807596666666665,0.3566027888888888,2.472762833333334,0.3327165977777778,1.1543994666666668,-7.125779533333334
315,1778415319380,-4.2765512999999995,0.566356224,2.07977996,1.398191188,0.624171344,-6.25094497
316,1778415319390,-3.8923917777777777,0.6422766422222222,1.7937260333333331,1.875937388888889,0.3812620055555555,-5.8746875111111105
317,1778415319400,-3.2062998,0.677844425,1.31744583,2.7485531,0.202786014,-5.27179492
318,1778415319410,-2.630834266666666,0.66585185,0.8710772333333333,2.793837233333333,0.8316176333333334,-5.251148533333333
319,1778415319420,-2.15631485,0.6728441249999999,0.43086355,2.5752557499999997,2.0606932999999996,-5.392254299999999
320,1778415319430,-2.073373088888889,0.6380487455555556,0.3671691155555556,2.359117488888889,3.164697744444444,-5.439968400000001
321,1778415319440,-2.03219176,0.627054852,0.342672438,2.49492922,3.5432118000000004,-5.1862153499999994
322,1778415319450,-1.8713693777777776,0.6571656722222222,0.1867351555555555,2.6881605666666664,3.664039966666667,-4.9043908
323,1778415319460,-1.64226042,0.714767288,-0.106164732,3.13363116,3.4148499200000004,-4.244304359999999
324,1778415319470,-1.4487532333333333,0.7827387533333333,-0.42683386,3.3171296666666668,2.8584598000000003,-3.595472466666666
325,1778415319480,-1.3185119666666667,0.8631194600000001,-0.6589307466666666,3.2629679111111107,2.4507533111111113,-3.066682311111111
326,1778415319490,-1.25437208,0.946805236,-0.752312198,3.0341853,2.13802654,-2.46328736
327,1778415319500,-1.230373377777778,0.999770411111111,-0.74584975,2.8279089222222225,2.0455578333333335,-2.0107988888888886
328,1778415319510,-1.19237444,1.07604454,-0.63955562,2.55442584,2.18445088,-1.3398935399999998
329,1778415319520,-1.1080524333333337,1.0915372333333333,-0.6215098566666666,2.346086266666666,2.3807771,-0.7722637133333333
330,1778415319530,-0.87984402,1.10025318,-0.5785886339999999,2.01950688,2.64930565,0.079074178
331,1778415319540,-0.7345008444444444,1.0957109444444444,-0.5448895111111111,1.8505532777777776,2.6690292,0.4116940666666666
332,1778415319550,-0.697433988,1.09547242,-0.532497518,1.70178992,2.61961842,0.67776554
333,1778415319560,-0.7032321044444445,1.0944642444444446,-0.4846217433333333,1.447182,2.312022988888889,1.1562150777777778
334,1778415319570,-0.7481805277777778,1.0783387,-0.4043155866666666,1.3548761666666669,1.8036623222222223,1.6585096888888888
335,1778415319580,-0.7523457069999999,1.04076497,-0.276336253,1.35647792,1.2491215400000002,2.25126224
336,1778415319590,-0.8418817711111112,0.9954679222222222,-0.1729708011111111,1.4431096666666667,0.8109930444444445,2.730886022222222
337,1778415319600,-1.11220206,0.887161478,0.074467761,1.6570606,0.333873838,3.1872026
338,1778415319610,-1.3632061999999998,0.8098914177777777,0.2614448,1.900507,0.0178078944444444,3.4970242444444444
339,1778415319620,-1.62750342,0.789741208,0.410097108,2.2881575,-0.3507027,3.9044974
340,1778415319630,-1.7092155,0.90313196,0.40739166,2.5720995999999996,-0.6712956999999999,4.276948833333333
341,1778415319640,-1.7990379,1.2264435,0.34067537,2.5088565199999997,-0.69332692,4.3183236
342,1778415319650,-2.011631611111111,1.3538764222222222,0.4033704355555556,2.040382511111111,-0.5157332777777778,4.173987222222221
343,1778415319660,-2.55127696,1.36543334,0.6597031400000001,1.239317496,-0.276606904,4.0960974000000006
344,1778415319670,-3.0895266,1.1583975222222225,1.1508564444444442,0.88486318,0.0246629633333333,4.484637133333333
345,1778415319680,-3.3200074666666666,0.9826826333333334,1.2879511777777777,0.8779402277777778,0.1120141233333333,4.919085255555555
346,1778415319690,-3.4578999799999997,0.8184501880000001,1.3534875300000002,0.8829492,0.0718203655,5.44753566
347,1778415319700,-3.401773833333333,0.8441854200000001,1.4235416333333335,0.7706347555555556,0.0793677244444444,5.628346388888889
348,1778415319710,-3.40815615,0.8686787,1.5244334,0.6097783,0.083915145,5.763649249999999
349,1778415319720,-3.438757388888889,0.9047546777777776,1.6580405,0.5063414888888889,0.0959963438888888,5.880558777777778
350,1778415319730,-3.47421497,0.972322,1.78715,0.5680573879999999,0.1748702965,5.941405850000001
351,1778415319740,-3.423512911111111,1.1036179000000002,2.0110388333333336,0.7504767533333333,0.4341342266666667,5.979176822222223
352,1778415319750,-3.37215422,1.1362675,2.05075998,0.91972218,0.62414844,5.96419068
353,1778415319760,-3.1319070555555553,1.2220800777777778,2.113229722222222,1.290737211111111,0.8525306555555556,5.854971055555556
354,1778415319770,-3.0140070999999997,1.1752514777777778,2.0668855111111113,1.737232588888889,0.8589191,5.739453111111112
355,1778415319780,-2.86649647,0.96632775,1.8819909,2.14754034,0.705757655,5.73652767
356,1778415319790,-2.6842724,0.7624022333333333,1.6844072666666667,2.2247311333333335,0.54490121,5.8352202
357,1778415319800,-2.49195336,0.5546512819999999,1.5123900300000002,2.1362397799999995,0.473635688,5.93963436
358,1778415319810,-2.3856948,0.4402662133333333,1.4386916222222224,1.9463884333333337,0.4960334266666666,6.036188933333333
359,1778415319820,-2.0907744,0.132269912,1.29431944,1.53463915,0.5994702199999999,6.2193413
360,1778415319830,-1.9408347666666663,-0.02685116,1.2590267000000002,1.1807168,0.5825701,6.3874261
361,1778415319840,-1.7105387799999998,-0.26659483,1.255805,0.70751383,0.313593715,6.66438165
362,1778415319850,-1.6320938555555555,-0.33555144,1.2688477777777778,0.6050272533333333,0.0964714555555555,6.770299966666666
363,1778415319860,-1.32724814,-0.57452744,1.2966122800000002,0.539164302,-0.609946248,6.969049410000001
364,1778415319870,-1.0320013,-0.7465374466666668,1.3031146333333334,0.7063599733333334,-1.113481222222222,6.970454622222222
365,1778415319880,-0.7554099400000001,-0.88808029,1.2510486333333333,1.0738186,-1.4387234666666666,6.673531666666666
366,1778415319890,-0.6736063800000001,-0.98923455,1.21302815,1.46286465,-1.6964374,6.26637645
367,1778415319900,-0.683485,-1.0440243,1.1997347,1.7063254,-1.8556013,5.9930224
368,1778415319910,-0.91474242,-1.4161923,1.3874041,2.66126296,-2.6950885999999996,4.76851804
369,1778415319920,-1.3477819333333332,-1.8221388,1.6109477,3.508799977777778,-3.259260366666666,3.5566580444444447
370,1778415319930,-2.000507,-2.397024,1.74716902,4.3888458,-2.9029599599999996,2.57830984
371,1778415319940,-2.461749333333333,-2.870384344444444,1.5958146111111111,4.877378044444445,-1.691156033333333,2.443584111111111
372,1778415319950,-2.5002610888888888,-3.053315122222222,1.221395751111111,4.891359666666667,-1.0576225977777778,2.5764773555555553
373,1778415319960,-2.15113782,-3.2714043600000005,0.241257974,4.6057271,0.507018476,3.02703828
374,1778415319970,-1.4012402666666666,-3.1777463333333333,-0.5175505366666666,3.8819851666666665,0.8780929333333334,3.1632979000000003
375,1778415319980,-0.627335372,-2.8740366,-1.14060312,2.90163132,0.426753172,2.8484265
376,1778415319990,-0.1099860973333333,-2.599663866666667,-1.5440840333333332,1.7860324777777778,-0.4817294244444444,2.333360088888889
377,1778415320000,0.1124692986666666,-2.4635990000000003,-1.6923311555555556,0.9419433955555556,-1.2757121,1.943503822222222
378,1778415320010,0.517332,-2.17835885,-1.7997239,-0.6161005820000001,-2.70028086,1.27778556
379,1778415320020,0.7623547777777778,-1.981975444444444,-1.687984733333333,-1.7941856222222223,-3.557421755555555,0.7499677333333333
380,1778415320030,0.96183048,-1.81527056,-1.4898125800000002,-3.04353114,-4.12086712,0.106745574
381,1778415320040,1.1526282333333333,-1.6498625222222223,-1.2522410666666666,-4.006784888888889,-4.301433555555556,-0.5111603766666667
382,1778415320050,1.3126742100000002,-1.52411331,-1.074010789,-4.60597175,-4.25800248,-1.020290541
383,1778415320060,1.5549010444444444,-1.3892308222222225,-0.8615441722222221,-5.356587388888889,-4.019561644444445,-1.8823852
384,1778415320070,1.71353288,-1.3294252,-0.61718844,-5.84214325,-3.709828,-2.6952871000000003
385,1778415320080,1.7384246,-1.3342140666666669,-0.176118,-6.319418666666667,-3.0783138,-4.5115905000000005
386,1778415320090,1.503573533333333,-1.4242701,0.4127679666666666,-6.3739876,-2.486199266666667,-6.313869933333334
387,1778415320100,1.068818464,-1.55331012,1.01508354,-6.00340672,-1.78481934,-7.820326159999999
388,1778415320110,0.7573409155555555,-1.6353799555555557,1.3321847,-5.5679404888888895,-1.26388538,-8.771690222222222
389,1778415320120,0.0157448119999999,-1.817661,1.5893123,-4.31099352,-0.4940685379999999,-10.3901144
390,1778415320130,-0.976459477777778,-2.0101104666666663,1.8206482888888889,-3.0252634,-0.2667111844444444,-11.438776666666667
391,1778415320140,-1.5129203333333332,-1.9501307222222224,2.041386,-2.644824322222222,-0.1889299633333333,-11.70986577777778
392,1778415320150,-1.8960405,-1.7599503,2.2604824,-1.48672585,0.294352025,-12.5351205
393,1778415320160,-2.0755173555555557,-1.6109307444444445,2.362207555555555,-1.1031052977777778,0.4909515144444445,-12.891244555555554
394,1778415320170,-2.3599425199999997,-1.49039184,2.3759801200000004,-0.1939745439999999,0.969109144,-13.7652442
395,1778415320180,-2.9807022,-1.5914344,2.046969133333333,0.8732570666666667,1.3176314444444444,-14.686973944444444
396,1778415320190,-3.881202,-1.7353485777777775,1.740691088888889,1.6117374222222225,1.774273711111111,-15.12247438888889
397,1778415320200,-4.97821743,-1.83031406,1.41804922,2.10484216,2.30210002,-14.9227392
398,1778415320210,-6.497509677777778,-1.5220840444444446,1.0372285444444445,2.4464688,2.558126533333333,-13.108069666666664
399,1778415320220,-6.421277000000001,-1.28867878,0.393468081,2.57776024,2.4732594,-11.5007574
400,1778415320230,-5.553047333333334,-0.7560603666666668,-0.5649719599999999,2.2247311333333335,1.6933703333333332,-9.331506333333332
401,1778415320240,-5.070590666666667,-0.5534503555555556,-0.6903519111111112,1.7631087333333333,1.253763966666667,-8.359012133333334
402,1778415320250,-4.778212,-0.472972736,-0.70798032,0.6503996125,0.9171872,-7.087088199999999
403,1778415320260,-4.503596222222222,-0.3924957777777778,-0.69218468,-0.0091457361111111,0.7805440555555555,-6.3404929999999995
404,1778415320270,-4.103433888888889,-0.1980637177777778,-0.5361254533333333,-0.5458768555555555,0.3682984777777778,-5.491279333333334
405,1778415320280,-3.70003295,0.0289193699999999,-0.33849536,-0.7824648200000001,0.01818798,-4.59705326
406,1778415320290,-3.2437766,0.3148252666666666,-0.1345606966666666,-0.7678859266666667,-0.1050402733333333,-3.7414903666666666
407,1778415320300,-2.9379885000000003,0.5220243419999999,-0.104310971,-0.5880932050000001,-0.144236305,-3.2117584999999997
408,1778415320310,-2.627246811111111,0.7016364455555555,-0.1123439583333333,-0.2521272088888888,-0.2422094166666667,-2.612958577777778
409,1778415320320,-2.30485394,0.8599160040000001,-0.10962835,0.0416903249999999,-0.258770165,-2.2417332
410,1778415320330,-1.8916854666666667,1.047927,-0.2242813866666667,0.3904841033333333,0.04095222,-1.8836748000000003
411,1778415320340,-1.6744505777777776,1.175234611111111,-0.3813637244444444,0.54014169,0.4086822733333333,-1.6554215333333333
412,1778415320350,-1.5824580999999998,1.26786064,-0.456904716,0.5532138200000001,0.6161005559999999,-1.5446800399999998
413,1778415320360,-1.4986951333333334,1.4542007666666668,-0.4336736799999999,0.52100179,1.1511416666666667,-1.22062555
414,1778415320370,-1.43918455,1.5948492,-0.3561945549999999,0.5640869019999999,1.64837132,-0.78936739
415,1778415320380,-1.3516845,1.7210252333333331,-0.2617835566666666,0.7023555777777778,1.977617977777778,-0.2778846055555555
416,1778415320390,-1.16312885,1.7969005799999995,-0.1360872065,0.92082172,2.13252888,0.2373447059999999
417,1778415320400,-1.0582053666666666,1.8189137777777775,-0.0852149994444444,1.2387473333333334,2.2172738,0.8857794333333333
418,1778415320410,-0.9852200333333332,1.827830266666667,-0.07730126,1.4582705333333332,2.0315761,1.3138052
419,1778415320420,-0.94414045,1.8412049,-0.092871275,1.58317864,1.66132126,1.63833816
420,1778415320430,-0.9821778888888888,1.833602888888889,-0.1085564699999999,1.5498382666666666,1.2791480888888889,1.8749532333333332
421,1778415320440,-1.20428976,1.78311002,-0.092743222,1.35611146,1.1004413,2.1066138000000003
422,1778415320450,-1.4634593333333334,1.6917348333333333,-0.0058641646666666,1.1825494333333333,1.1077715,2.3488351333333335
423,1778415320460,-1.58460154,1.63379655,0.0323006652,1.15251614,1.1190111,2.45766773
424,1778415320470,-2.022180933333334,1.4078971666666666,0.0855842566666666,1.2662354999999998,1.0041310466666669,2.865611866666667
425,1778415320480,-2.67911366,1.2587868800000002,-0.05549104,1.5025163,0.22822781,3.39562348
426,1778415320490,-4.018341111111111,1.0523378333333335,-0.3033442355555555,1.5857849,-0.9229647366666668,3.9609118
427,1778415320500,-4.9774958666666675,0.8543384733333332,-0.556191,1.3705121999999998,-1.6111859666666666,4.668909333333334
428,1778415320510,-5.417191130000001,0.7397169499999999,-0.647763434,1.2646066,-1.7706170999999995,4.935646
429,1778415320520,-6.549721566666666,0.3000988166666667,-0.4398630733333333,0.1872755833333333,-1.0471704333333334,6.62894
430,1778415320530,-6.73354825,-0.034041625,0.2079084799999999,-0.496771535,0.4388555999999999,8.012559999999999
431,1778415320540,-5.951004455555555,-0.4156001511111111,1.070655288888889,-0.80127888,2.1720710333333333,9.439754
432,1778415320550,-5.3504463,-0.647348764,1.28606892,-0.591758265,2.6547421,9.963072
433,1778415320560,-5.022342377777778,-0.7921126133333334,1.3434083,-0.2545027155555555,2.608962488888889,10.115512333333331
434,1778415320570,-4.457465444444445,-1.0995017555555555,1.3197619444444444,0.16229872,2.2977020222222224,10.078793333333332
435,1778415320580,-4.01750276,-1.3368951,1.08410588,0.33734039,1.9305828,9.9261155
436,1778415320590,-3.5199309555555556,-1.5511881111111112,0.9529993333333332,0.2600342744444444,1.5605451555555556,9.747510555555555
437,1778415320600,-3.12940811,-1.61902127,0.98628317,0.187194137,1.50604396,9.523995199999998
438,1778415320610,-2.791900633333333,-1.5711689,0.9024002333333334,0.1831353966666666,1.6075803222222222,9.259316444444444
439,1778415320620,-2.6641798,-1.5482306,0.8600197000000002,0.18218519,1.6245483,9.200658
440,1778415320630,-2.4941630888888886,-1.4942403111111109,0.8530172555555556,0.0888613061111111,1.7175328,8.676686333333334
441,1778415320640,-1.97686529,-1.36544551,0.8075227220000001,-0.1298355823999999,1.93449216,7.828327920000001
442,1778415320650,-1.6455532333333336,-1.3239289333333333,0.75841488,-0.42988379,2.155374533333333,7.068597066666666
443,1778415320660,-1.436425277777778,-1.2895129777777778,0.7185785,-0.6683178388888888,2.259015022222222,6.516145333333333
444,1778415320670,-1.25225602,-1.2600126,0.66507538,-0.86480701,2.2879285,6.05380175
445,1778415320680,-1.0092153333333334,-1.2395235666666666,0.5158329466666667,-1.0922967166666666,2.1865278,5.508009833333333
446,1778415320690,-0.8215723199999999,-1.2469874200000002,0.361624748,-1.33352536,1.90529368,5.0109024
447,1778415320700,-0.6856904,-1.2897094333333332,0.23337744,-1.6680796444444443,1.4586693111111113,4.5068991333333335
448,1778415320710,-0.6517209260000001,-1.3251749199999998,0.199810442,-1.81646124,1.281862966,4.35350856
449,1778415320720,-0.6199548533333332,-1.4437733333333334,0.2171163266666666,-2.2421403333333334,0.8328647866666666,4.013444600000001
450,1778415320730,-0.6104149888888889,-1.5824060444444443,0.3159838755555555,-2.5436953333333334,0.6170490555555556,3.867876333333333
451,1778415320740,-0.53583921,-1.6713628,0.400831295,-2.84860985,0.51608955,3.8006153
452,1778415320750,-0.2169300088888889,-1.6628849444444445,0.4703729844444444,-3.1282760333333335,0.4080714133333333,3.6648036
453,1778415320760,0.001905605,-1.5949711,0.53030533,-3.160875,0.186781821,3.25109712
454,1778415320770,0.16222831,-1.5346763,0.5946010666666667,-3.135606288888889,0.085001094,3.053413377777778
455,1778415320780,0.2576369733333333,-1.4868957333333332,0.7458768499999999,-2.759392111111111,-0.177663224,2.4986282666666666
456,1778415320790,0.346087252,-1.4310042,0.865080938,-1.90295716,-0.54037074,1.84382722
457,1778415320800,0.40218808,-1.3570608,0.8590439766666668,-0.8247201333333334,-0.9414937666666666,1.148062
458,1778415320810,0.406157839,-1.29736523,0.745583152,-0.012552898,-1.1412001200000002,0.62352235
459,1778415320820,0.4021982655555555,-1.2807995666666667,0.6825635755555556,0.3924524033333333,-1.205447688888889,0.33717072
460,1778415320830,0.41764633,-1.26025646,0.489742012,1.058384482,-1.18237124,-0.3241461
461,1778415320840,0.5256471777777778,-1.2234520666666666,0.2100630622222222,1.4161645444444444,-0.88373481,-1.1489527711111112
462,1778415320850,0.55614522,-1.20351535,0.0814986509999999,1.47015665,-0.757832385,-1.6381778
463,1778415320860,0.5707751422222223,-1.1851539000000002,-0.0515104617777777,1.4535619555555557,-0.6848700666666666,-2.0439882444444444
464,1778415320870,0.5446252833333333,-1.170942266666667,-0.18913706,1.2601270222222225,-0.5693520666666667,-2.759629733333333
465,1778415320880,0.5084260279999999,-1.15950668,-0.273619636,1.00536296,-0.5165477380000001,-3.16044736
466,1778415320890,0.4311532,-1.181512,-0.2095549133333333,0.5870411644444444,-0.5661621044444445,-3.7400395
467,1778415320900,0.343501726,-1.18200187,-0.0691015911,0.21657589,-0.6074417679999999,-4.38579924
468,1778415320910,0.3534521855555555,-1.1349544222222223,0.039111362,0.1181141033333333,-0.5529949333333334,-4.798442811111111
469,1778415320920,0.4014136759999999,-1.07387666,0.105948258,0.11181559,-0.51483736,-5.16196488
470,1778415320930,0.43830811,-0.9927814666666666,0.1647250633333333,0.3032008211111111,-0.5618182777777778,-6.067240377777778
471,1778415320940,0.254063607,-1.06045212,0.269101078,0.699939347,-0.774325259,-7.05436188
472,1778415320950,-0.3597838722222222,-1.3738300888888888,0.5168763311111111,1.14141898,-1.03841489,-7.758345666666667
473,1778415320960,-0.605206051,-1.4722901199999998,0.5451842219999999,1.4598561799999998,-1.33593821,-8.1335077
474,1778415320970,-1.0957380555555556,-1.6379004333333331,0.5532944777777778,1.9419767777777777,-2.0630433,-8.734615
475,1778415320980,-1.56803355,-1.72505495,0.5311590500000001,2.07527725,-2.688797,-9.359821
476,1778415320990,-2.1944571666666666,-1.7436281666666666,0.3148964266666667,1.756508222222222,-3.1563666444444447,-10.401422
477,1778415321000,-2.4023046,-1.7402844,0.2230617899999999,1.4912308,-3.2831514,-10.927294
478,1778415321010,-2.72109156,-1.76591394,0.166387758,1.162595,-3.2437517,-11.2846395
479,1778415321020,-4.2643139,-1.8981087,0.51070052,0.6259996444444444,-3.0660290222222226,-11.650401166666668
480,1778415321030,-4.68981026,-1.7011053400000002,0.32354936,-1.14307085,-2.0160708,-11.61730715
481,1778415321040,-4.703607522222223,-1.5188860777777775,0.4209086711111111,-1.7030337111111111,-2.905036966666666,-10.892678777777778
482,1778415321050,-5.12150291,-1.50592937,0.704964889,-2.02622622,-3.66132697,-10.21254135
483,1778415321060,-5.391913388888889,-1.4677686,0.8439584444444445,-2.165173588888889,-3.936147111111111,-9.779435555555557
484,1778415321070,-6.1125517,-1.156043,1.0415852,-2.4887188777777776,-4.279035733333334,-8.023656944444445
485,1778415321080,-5.8563814700000005,-0.807108046,1.15885424,-2.58576228,-4.21035652,-6.7694778499999995
486,1778415321090,-5.25303,-0.3592282666666666,1.4589876,-2.4284487444444443,-3.450048355555555,-5.119341222222222
487,1778415321100,-4.398909000000001,0.08259018,1.7998794,-2.0108328,-2.3433246,-4.2096158
488,1778415321110,-3.902066955555556,0.2871102377777778,1.8895648444444444,-1.7023549,-1.5849196,-3.799699
489,1778415321120,-3.0913541600000003,0.5158014399999999,1.7555688799999998,-0.6488113980000001,0.485623568,-3.56623322
490,1778415321130,-2.6191941777777776,0.54436106,1.490815233333333,0.2200577344444444,1.822327088888889,-3.694158100000001
491,1778415321140,-2.25218017,0.5205730799999999,1.16408315,0.961992812,2.7856467599999997,-3.79530091
492,1778415321150,-1.9228459666666669,0.53715532,0.7772912866666667,1.575985966666667,3.339858333333334,-3.7935906
493,1778415321160,-1.60824626,0.626756096,0.31452445,2.04620097,3.52423749,-3.69469435
494,1778415321170,-1.4878543888888889,0.7157836611111111,0.0969297755555555,2.2575133333333333,3.4863174666666668,-3.535677277777778
495,1778415321180,-1.3213474444444444,0.8943509555555555,-0.1690918411111111,2.4510839777777775,3.3958696666666666,-3.193195577777778
496,1778415321190,-1.26652512,1.03627386,-0.230976886,2.6580255399999997,3.46532118,-2.47782546
497,1778415321200,-1.2643521555555557,1.0843011222222223,-0.1636748622222222,2.8400580333333334,3.746775788888889,-1.8713220555555552
498,1778415321210,-1.1924476,1.06123575,-0.14106006,3.44803425,4.550949409999999,-0.679804289
499,1778415321220,-0.9323613333333332,0.97851916,-0.1731096933333333,3.878523799999999,4.848269133333334,-0.03049147
500,1778415321230,-0.606980536,0.897604207,-0.250288997,4.4888112,4.92008439,0.706231021
501,1778415321240,-0.2826079522222222,0.8794788055555556,-0.5761142222222222,4.952987222222222,4.403097255555555,1.1923228555555554
502,1778415321250,-0.17990379,0.88845122,-1.072715,4.6384688,2.9379081,1.6556251
503,1778415321260,-0.5084442733333333,0.9770895466666668,-1.6534297999999998,3.3696286555555557,1.1227966388888888,2.3194465111111113
504,1778415321270,-0.625079122,1.05711656,-1.80556874,2.27867404,0.172854508,2.80481222
505,1778415321280,-0.4323931033333333,1.3694768444444445,-1.7400235666666666,-0.0876735333333333,-1.259134388888889,3.8666886111111114
506,1778415321290,-0.1731960705,1.6270613,-1.41474725,-2.1845272600000003,-1.81305576,4.667972400000001
507,1778415321300,0.4564731175555556,1.9732926888888889,-0.2555230648666666,-3.7933361,-2.2779004,4.787617133333334
508,1778415321310,0.5946316,2.1923128333333337,0.7951039629333333,-3.8761227777777782,-2.5204746222222223,4.074105311111111
509,1778415321320,0.4768022355999999,2.348082,1.56473152,-2.9816523,-2.44335844,3.05813058
510,1778415321330,-0.2085114922222222,2.5150620444444445,2.1056817777777774,-1.0204203666666667,-1.9040362333333336,1.56509245
511,1778415321340,-0.665276618,2.55487468,1.9880428,0.4392297,-1.2141353,0.626454398
512,1778415321350,-2.027174544444444,2.2766504666666667,1.5645086666666663,1.9809607,-0.3837902533333333,-0.2191075277777777
513,1778415321360,-3.4394994,1.8812226,1.1913195,3.5321479599999996,0.286044507,-0.353222436
514,1778415321370,-4.322640233333334,1.4587538,0.8350487133333333,4.083378222222222,0.4923004622222222,0.2936648311111111
515,1778415321380,-4.4791636,1.34642,0.74214697,4.33878705,0.67357361,0.79920967
516,1778415321390,-4.645104977777778,0.8853904266666667,0.0522760811111111,4.298260811111111,1.4712934777777775,1.9042061
517,1778415321400,-4.65941501,0.672685617,-0.233050171,3.84911674,2.01677334,2.42352127
518,1778415321410,-4.798766133333334,0.08549279,-0.6094664666666666,2.595108333333333,2.8231663888888887,3.2190886666666665
519,1778415321420,-4.863278811111112,-0.0817900022222222,-0.6247891999999999,1.98438834,3.052912888888889,3.5714882111111113
520,1778415321430,-4.941123660000001,-0.4650088500000001,-0.5254514020000001,0.5523586558,3.242133,4.5878295399999995
521,1778415321440,-4.797169944444445,-0.6777326555555556,-0.3408362755555555,-0.0364981197777777,3.142435911111111,5.181478011111111
522,1778415321450,-4.226694650000001,-0.7428787050000001,-0.22623271,-0.8025387499999999,2.9030516,6.1619599
523,1778415321460,-3.7194345,-0.7069281111111112,-0.1717308815555555,-1.2631557666666666,2.5823568000000003,6.700256333333333
524,1778415321470,-3.4255048,-0.686405896,0.0023842871999999,-1.5994271999999998,2.2289817,6.8934877
525,1778415321480,-3.306920566666667,-0.68186904,0.1161551506666666,-1.7391415444444442,2.1101719777777777,6.930885066666666
526,1778415321490,-3.1941986200000003,-0.6819666160000001,0.290303528,-1.82647914,2.05519569,6.896358620000001
527,1778415321500,-2.9931421333333335,-0.6847960533333334,0.4592036233333332,-1.8217417,2.2116403555555557,6.773354355555556
528,1778415321510,-2.7818055900000003,-0.684430208,0.456054038,-1.79520375,2.4133353200000003,6.6119559
529,1778415321520,-2.578188966666667,-0.7026832999999999,0.4398325666666667,-1.8296827,2.472472111111111,6.457945111111111
530,1778415321530,-2.506762,-0.7116269,0.43779993,-1.86691725,2.49005771,6.3551327
531,1778415321540,-2.2316579777777776,-0.7511447955555556,0.5388729177777778,-1.9901319555555557,2.5260909999999996,6.098835055555555
532,1778415321550,-1.99163442,-0.847415268,0.639290398,-2.0245769,2.4809562,5.853749349999999
533,1778415321560,-1.8962657333333333,-0.90635028,0.6783492444444444,-2.0035026,2.404600311111111,5.678843333333333
534,1778415321570,-1.6835129111111111,-1.056826611111111,0.7070195822222222,-1.8900886666666668,2.2463229666666664,5.513032222222223
535,1778415321580,-1.51989658,-1.19121895,0.680176892,-1.78335327,2.04749886,5.33685028
536,1778415321590,-1.3093853333333334,-1.4453994,0.5784585666666666,-1.6788712888888888,1.6512219444444445,4.997816488888889
537,1778415321600,-1.3111191999999998,-1.6206068000000002,0.5528920399999999,-1.67498896,1.32511094,4.7592332
538,1778415321610,-1.4932273666666669,-1.9472375666666664,0.603521,-1.7164044444444444,0.9681589722222222,4.6199057111111115
539,1778415321620,-1.55734385,-2.1152453099999997,0.6573096979999999,-1.70357667,0.849665649,4.6889857
540,1778415321630,-1.5652098,-2.345052111111111,0.7347244466666667,-1.6184652777777775,0.7453948488888889,4.8304443
541,1778415321640,-1.46248776,-2.47599804,0.78225906,-1.32036926,0.5447382980000001,4.98811771
542,1778415321650,-1.297640033333333,-2.632880555555555,0.8576313555555556,-0.6102873,0.3209238866666666,5.1117738
543,1778415321660,-0.95794002,-2.7629477600000003,0.85537916,0.210162008,0.325749584,5.1780911199999995
544,1778415321670,-0.5449606466666667,-2.8173494,0.6378420666666667,0.8080321288888889,0.3179375333333333,5.152428488888889
545,1778415321680,-0.3685855139999999,-2.82287517,0.5086760069999999,1.13046446,0.2340614168,5.0381458
546,1778415321690,0.3794665822222222,-2.6859155333333335,0.0484818211111111,1.3020719,-0.123569312,4.494003466666666
547,1778415321700,1.0509996711111111,-2.4295319777777777,-0.2594290844444444,0.9181204333333332,-0.2464853544444444,3.7079447444444447
548,1778415321710,1.38967256,-2.25649756,-0.389955664,0.0801737,-0.2914504999999999,2.2515066
549,1778415321720,1.5899607,-2.113446533333333,-0.4015579733333333,-0.6291556999999999,-0.2226623111111111,1.0360902444444444
550,1778415321730,1.74248285,-1.96533428,-0.342312644,-1.23904256,-0.236901836,-0.27283496
551,1778415321740,1.7171192666666668,-1.8846392,-0.1670592099999999,-1.670590888888889,-0.3487004577777777,-1.5613765666666666
552,1778415321750,1.46989068,-1.84567472,0.174882166,-1.9535352,-0.467069092,-3.24633237
553,1778415321760,1.2984904,-1.815309133333333,0.29763932,-2.0425968,-0.4428388199999999,-4.578580266666667
554,1778415321770,1.1278097,-1.7954553,0.336528775,-2.0795531,-0.386437255,-5.4927387
555,1778415321780,0.6569658333333334,-1.7943560555555556,0.5319957833333333,-2.1693816111111115,-0.3021403222222222,-6.851271277777778
556,1778415321790,0.36834466,-1.7993429,0.68211293,-2.2234077,-0.2606027,-7.5473995
557,1778415321800,-0.4156136988888889,-1.8025781555555556,0.8674760844444445,-2.129201411111111,-0.2992218277777778,-8.224965000000001
558,1778415321810,-1.6797017,-1.6814852999999998,1.0636748749999998,-1.67706582,-1.095905778,-9.3348918
559,1778415321820,-2.643863722222222,-1.477474422222222,1.2410547555555551,-1.0808687666666668,-2.4245037333333332,-9.834692
560,1778415321830,-2.97435052,-1.3471518,1.27923314,-1.03366046,-2.5876407200000004,-9.9075456
561,1778415321840,-3.557148644444444,-1.0324857111111112,1.1710101,-1.3665925333333333,-2.2909318,-10.061927333333331
562,1778415321850,-3.8058826666666663,-0.80343442,0.9269172177777778,-1.9904712222222225,-1.6295538444444444,-10.290384222222222
563,1778415321860,-4.0547,-0.5978275780000001,0.8993146559999999,-3.17559632,-0.194325772,-10.7632812
564,1778415321870,-4.430909000000001,-0.57254358,1.0416766333333334,-3.676511488888889,0.4737035666666667,-10.832544333333333
565,1778415321880,-5.3234082,-0.5224634239999999,1.30266746,-3.70255912,0.31359371,-10.12461
566,1778415321890,-5.808929555555555,-0.1947776355555555,1.5710977777777777,-3.1968267,-0.7638051166666666,-8.59371331111111
567,1778415321900,-5.1591608,0.434500946,1.84761996,-2.43109575,-1.63443635,-7.1668036
568,1778415321910,-4.032217066666667,1.0708754433333334,2.102704,-1.1928574733333333,-1.5466652333333333,-6.234816266666667
569,1778415321920,-3.3616565800000004,1.3044815600000002,2.13989019,-0.8006680599999999,-1.3308071,-6.1038914
570,1778415321930,-2.4622575333333336,1.3214287666666666,1.8355442,0.9223284777777776,1.2276673,-7.180823388888888
571,1778415321940,-2.36493988,1.1478444419999998,1.55235281,1.71507586,2.1355831,-7.72857718
572,1778415321950,-2.4819978111111114,0.7548374,0.9028981733333332,2.672617877777778,2.889137777777778,-8.127365333333334
573,1778415321960,-2.7722075,0.5481783499999999,-0.139858757,3.15983655,2.6786263,-7.5662745
574,1778415321970,-2.8579412,0.5134751,-0.46368557,3.2578776,2.533489,-7.316498999999999
575,1778415321980,-2.8062644,0.784417761,-0.89064952,2.6072640700000003,1.80132746,-5.9979705
576,1778415321990,-2.4875131111111113,1.1141639555555556,-0.9885028111111112,1.8799842666666668,1.4506604333333333,-5.077260666666667
577,1778415322000,-2.187871666666667,1.403354233333333,-0.97895956,0.9318984,1.2095793666666668,-4.159309866666667
578,1778415322010,-2.0911343,1.67085062,-0.956403367,0.087870376,0.9897558,-3.30259152
579,1778415322020,-2.048419111111111,1.8126227444444445,-0.9771200277777778,-0.63617196,0.7066230133333333,-2.4945220666666668
580,1778415322030,-1.93996085,1.9335884,-0.92202025,-1.74010527,0.0991863232999999,-1.190289292
581,1778415322040,-1.8403512666666664,2.0072919333333332,-0.6813913666666667,-2.0687275222222223,-0.0765340674444444,-0.7707025742222222
582,1778415322050,-1.69564776,2.1250142,-0.110805248,-2.73419818,-0.3087374699999999,0.5613380703999999
583,1778415322060,-1.33583,2.3663574666666665,0.5596769466666667,-2.596160222222222,-0.0862397544444444,1.2677371222222222
584,1778415322070,-1.0667696,2.5061065,0.96251043,-1.82354698,0.4477357489999999,1.69404745
585,1778415322080,-0.9163983666666664,2.520431533333334,1.148901711111111,-1.1860786888888888,0.8779232733333333,1.8320581888888887
586,1778415322090,-0.8838381799999999,2.47158924,1.13068182,-0.720158367,1.2318957,1.89819256
587,1778415322100,-0.9167269444444444,2.3332527555555553,0.8923590277777778,0.0579795938888888,1.9135468555555557,2.024
588,1778415322110,-1.22808686,2.0674774,0.562029745,0.387613126,2.00687757,2.31424076
589,1778415322120,-1.5033295666666666,1.9214739,0.43943621,0.4379944555555555,1.642398611111111,2.653308466666667
590,1778415322130,-2.07410591,1.74818127,0.402886329,0.467817371,0.4660230169999999,3.4713074999999995
591,1778415322140,-2.184152,1.7217468,0.4107252,0.48394373,0.13522631,3.694327799999999
592,1778415322150,-2.55740535,1.6587707000000005,0.572762085,0.927907524,-1.50282176,4.59931338
593,1778415322160,-2.9739167555555555,1.5882735555555554,0.6133894555555555,1.1955808,-1.8445551666666669,4.9183386
594,1778415322170,-3.723066088888889,1.5156033111111111,0.3746255322222222,1.4582451333333333,-1.8376321666666664,5.523077466666667
595,1778415322180,-4.57975474,1.34378575,0.265610013,1.1379168400000002,-1.62193686,6.18104144
596,1778415322190,-4.940924822222222,1.2492938,0.25645805,0.8979624633333333,-1.536526822222222,6.610529811111111
597,1778415322200,-5.51303514,0.962656798,0.459752439,0.559627704,-1.7266590000000002,7.60506361
598,1778415322210,-5.687848733333333,0.6630671266666667,1.0735315,0.7658158222222222,-2.3702060222222223,8.977741222222223
599,1778415322220,-5.412633,0.5211584549999999,1.54188875,1.2953550799999998,-2.71518541,9.5206962
600,1778415322230,-5.032363611111111,0.4141908422222222,1.7786946444444445,2.381583244444444,-2.655200311111111,9.480094777777778
601,1778415322240,-4.8417154,0.345751884,1.81424622,2.74049,-2.49638,9.332677
602,1778415322250,-4.619290333333334,0.1609578933333333,1.712711722222222,3.1567484222222224,-1.3821183,8.575624888888889
603,1778415322260,-4.56383342,-0.15228329,1.50496588,3.1524453,-0.479286042,8.050065700000001
604,1778415322270,-4.5662727,-0.29675514,1.4144728,3.1289887,-0.13598987,7.861680500000001
605,1778415322280,-4.565659533333333,-0.6985468944444445,1.4978854555555554,3.243013488888889,0.3224849377777777,7.901113988888889
606,1778415322290,-4.10633712,-0.935475332,1.27182418,3.52927695,1.014365294,7.981467570000001
607,1778415322300,-3.7718934888888898,-0.9951156888888888,1.142644588888889,3.5303153666666667,1.1717068,7.912788
608,1778415322310,-3.1378904299999997,-1.07368162,0.911443431,3.15012403,1.62766357,7.3468586
609,1778415322320,-2.6986635000000003,-1.1707696333333333,0.74238071,2.5736607888888887,2.0850592,6.652482888888889
610,1778415322330,-2.566796,-1.2092475,0.6913818,2.40501267,2.20228757,6.4632525
611,1778415322340,-2.1847921666666665,-1.4111595,0.50939966,1.8661638999999997,2.487879066666667,5.942729
612,1778415322350,-1.84734875,-1.5234578,0.27856809,1.32053725,2.6498554000000003,5.5235862
613,1778415322360,-1.661723,-1.6494356333333335,0.1059919533333333,0.5711591777777778,2.6828072222222223,5.172043733333333
614,1778415322370,-1.6241123777777775,-1.8063283222222224,0.12424505,-0.36126524,2.7204083333333333,4.970464266666666
615,1778415322380,-1.51301208,-2.01840743,0.1975907949999999,-1.1451248,2.68510136,4.998685279999999
616,1778415322390,-1.4639574,-2.072438,0.21010372,-1.2765944,2.6709297,5.01078
617,1778415322400,-1.199115701,-2.2206509,0.2749764,-1.64737872,2.2763223100000003,4.9880565599999995
618,1778415322410,-0.7893041755555555,-2.399347333333333,0.3840434133333333,-1.9863310333333333,1.4005709777777775,4.796644233333334
619,1778415322420,-0.49508986,-2.36089995,0.3539840749999999,-1.89446645,0.4748803199999999,4.3505763
620,1778415322430,-0.3101366644444445,-2.221775977777778,0.3269635333333333,-1.754277022222222,-0.0340462466666666,3.957441733333333
621,1778415322440,-0.326262946,-2.1484485199999996,0.350935128,-1.5871492,-0.35528404,3.5753347599999996
622,1778415322450,-0.3871906055555555,-2.089068466666667,0.3829288444444444,-1.2655652444444443,-0.4370018222222222,3.186510111111111
623,1778415322460,-0.17826921,-2.0074409666666666,0.3254390444444444,-0.7740622555555555,-0.3621391088888889,2.822512944444445
624,1778415322470,0.070598636,-1.9102791,0.2090061,-0.20301508,-0.1666544099999999,2.26641124
625,1778415322480,0.2415181599999999,-1.831068766666667,0.1034647111111111,0.0126411466666666,0.0340292855555555,1.7060878444444445
626,1778415322490,0.340013744,-1.77979279,0.0402096652,0.100331664,0.14316733,1.393877
627,1778415322500,0.4230192666666666,-1.706861222222222,-0.0348902457777777,0.2391976066666666,0.3830266833333333,0.5218501622222222
628,1778415322510,0.4669235699999999,-1.5826656199999998,-0.182211853,0.276744352,0.57650237,-0.377900644
629,1778415322520,0.5008930333333333,-1.489202811111111,-0.2679424611111111,0.1720044093333333,0.6980202433333333,-1.183618353333333
630,1778415322530,0.576320196,-1.35295092,-0.356807402,0.0131026736,0.73532266,-1.6757831199999995
631,1778415322540,0.64378754,-1.2707550666666667,-0.3876344033333334,-0.05971032,0.7424085,-1.8419336
632,1778415322550,0.7458056666666667,-1.1632182999999998,-0.3925127366666667,-0.4900182577777777,0.5803303355555556,-2.6349490444444448
633,1778415322560,0.765788548,-1.12778839,-0.323058493,-0.799996109,0.351160819,-3.2875035400000003
634,1778415322570,0.5975043866666667,-1.0816993333333336,-0.1018555333333333,-1.1237808133333334,0.1366516233333333,-4.083989
635,1778415322580,0.57224377,-1.04952775,0.06722953,-1.3288219,0.02741177175,-4.783850200000001
636,1778415322590,0.7171455066666668,-1.0267334222222222,0.2429037366666666,-1.3718865999999998,-0.1347681821666666,-5.715799466666667
637,1778415322600,0.8154926939999999,-1.0420852799999998,0.327403248,-1.34452063,-0.2354358099999999,-6.1216133500000005
638,1778415322610,0.7213191722222222,-1.1875354222222223,0.4634653999999999,-1.1952160111111112,-0.7467013555555556,-7.632714555555555
639,1778415322620,0.33003146,-1.32751038,0.57287489,-1.16957396,-1.30755666,-8.6887293
640,1778415322630,-1.2436735666666667,-1.6118183222222224,0.9639823555555554,-1.357497711111111,-2.2842801777777777,-10.037968
641,1778415322640,-1.6787261,-1.6685425,1.0821058,-1.5197116,-2.5147054,-10.244978
642,1778415322650,-3.1366799500000004,-1.56663407,1.29907884,-2.59981171,-2.60046838,-9.9970346
643,1778415322660,-3.6378884888888887,-1.2053751888888888,1.7338647333333332,-3.846123433333333,-2.3000944666666667,-9.613531333333334
644,1778415322670,-3.688379840000001,-0.8260481800000001,2.30964088,-4.8056576799999995,-1.57542086,-9.3286304
645,1778415322680,-3.544346333333334,-0.5386052888888888,2.791155411111111,-4.6886600666666665,-1.1533899,-9.327069222222224
646,1778415322690,-3.51083286,-0.3162318785999999,3.09032056,-4.1306561,-1.076939,-9.4547246
647,1778415322700,-3.9581884666666665,0.1373250846666666,3.3461302333333336,-2.499985722222222,-1.446732311111111,-9.830144333333331
648,1778415322710,-4.83678526,0.516737462,3.1708435899999996,-1.22377138,-1.71857296,-9.920128600000002
649,1778415322720,-5.1139976,0.7742728066666666,2.7389198666666665,-0.4520778555555556,-0.7902751588888889,-9.381264611111112
650,1778415322730,-4.9488407500000005,0.8961620220000001,2.31232379,0.036986804,0.3695091277999999,-8.704588849999999
651,1778415322740,-4.377552333333333,0.9569054133333332,1.6119131333333332,0.3418199466666667,1.4748906666666666,-7.891510333333333
652,1778415322750,-4.1088238,0.9201892311111112,1.2603818222222225,0.4477001288888889,1.686108088888889,-7.391158244444445
653,1778415322760,-3.7315135,0.9178737,0.8277922500000001,0.5175403299999999,1.5167948260000002,-6.80179184
654,1778415322770,-3.1155782666666667,1.0281799,0.5225,0.5400738111111111,0.5718124211111112,-5.589082722222222
655,1778415322780,-2.57221116,1.16894626,0.4264456,0.4232255399999999,-0.0416750519999999,-4.679884199999999
656,1778415322790,-2.302844455555556,1.249015988888889,0.4080386966666667,0.3427701733333333,-0.2787923833333333,-4.242020488888889
657,1778415322800,-1.87254826,1.37286058,0.386949402,0.2418038799999999,-0.163600162,-3.98222008
658,1778415322810,-1.660574488888889,1.4145710111111112,0.4061449611111111,0.2448309777777778,0.1004080188888888,-3.8885434666666665
659,1778415322820,-1.49985577,1.51674695,0.327677639,0.348946508,0.597271168,-3.76145992
660,1778415322830,-1.4460802777777777,1.5994327555555556,0.2362570033333333,0.4415916844444444,1.0461947022222222,-3.586174055555555
661,1778415322840,-1.4826881555555556,1.6873139444444445,0.1821346177777777,0.4764778444444444,1.309418988888889,-3.381472333333333
662,1778415322850,-1.52411338,1.77109418,0.181077649,0.53800373,1.53053892,-3.0938039
663,1778415322860,-1.4735209888888887,1.9044133444444449,0.1943033411111111,0.7623543388888889,1.736197611111111,-2.484544788888889
664,1778415322870,-1.2739402599999998,1.92953946,0.1791750899999999,1.2158608919999998,1.7944859999999998,-1.72460498
665,1778415322880,-1.0676334888888888,1.9082312777777777,0.1075164411111111,1.602175988888889,1.9114428888888888,-1.0396111055555557
666,1778415322890,-0.91705045,1.8737831,-0.03099266,1.73295838,2.0737653600000003,-0.588398634
667,1778415322900,-0.8361801888888888,1.8467980888888889,-0.1398929855555555,1.7267548444444445,2.204921033333333,-0.2364827188888889
668,1778415322910,-0.6871590000000001,1.7509101,-0.34777944,1.4723328,2.2992291,0.2921377049999999
669,1778415322920,-0.6338479755555556,1.7000314,-0.3903513655555555,1.2699005866666666,2.3206426555555555,0.5754690222222222
670,1778415322930,-0.5039826711111111,1.6227539111111111,-0.4090075944444444,0.6270856,2.2729286222222225,1.4010291
671,1778415322940,-0.411524024,1.59631264,-0.3459226199999999,0.27656109,2.11078265,1.84559865
672,1778415322950,-0.3922688333333333,1.5834562333333335,-0.2942549766666666,0.1259872503333333,1.9350622666666668,2.0914647
673,1778415322960,-0.437495035,1.5671341,-0.232101955,0.0200052475,1.5827052499999998,2.41368665
674,1778415322970,-0.62850209,1.5114601666666667,-0.22720838,0.0594727684444444,1.0911683611111112,2.7056376
675,1778415322980,-0.92099279,1.4419255400000002,-0.183474124,0.152253685,0.65078141,2.9787203
676,1778415322990,-1.1587261666666668,1.4347483333333333,-0.1339000966666667,0.3731767844444444,0.3329371988888889,3.2384322222222224
677,1778415323000,-1.3677231,1.4524414799999998,-0.0943744148,0.511492958,0.28586124,3.2932455500000004
678,1778415323010,-1.8413271111111111,1.5053148555555556,0.0078629278888888,0.9121477,0.33741675,3.306032566666667
679,1778415323020,-2.4698562222222225,1.5297471777777778,-0.0226503716666666,1.0844066444444445,0.4385459044444444,3.2911686444444443
680,1778415323030,-3.1020467199999997,1.54018138,-0.133166308,1.39276232,0.724342682,3.3592171199999994
681,1778415323040,-4.870060411111111,1.476336111111111,-0.4304180622222222,1.4663897333333336,1.0397638433333334,3.983716666666666
682,1778415323050,-5.23537546,1.34995678,-0.462182454,1.2857417999999998,1.4122178,4.59039496
683,1778415323060,-5.5735874999999995,0.98440364,-0.4666024333333333,0.9567394666666666,2.0735210666666664,5.487648266666667
684,1778415323070,-5.39457078,0.684600926,-0.4028832519999999,0.416689471,3.0252821,6.410956420000001
685,1778415323080,-4.884675099999999,0.3138394566666667,-0.2847422266666666,-0.0417921199999999,3.5157738333333333,6.784485211111112
686,1778415323090,-4.5590097599999995,0.0174644359999999,-0.1100856953999999,-0.56097158,3.75525992,6.934047959999999
687,1778415323100,-4.460913866666666,-0.1236352633333333,-4.403911111111294e-05,-0.7769807577777779,3.7651691888888887,6.943645133333333
688,1778415323110,-4.227868777777777,-0.4958757911111111,0.2082506266666666,-1.1937482333333334,3.6212807,6.985182555555555
689,1778415323120,-3.90374634,-0.69186354,0.2492584479999999,-1.4881919,3.2522423600000003,7.1301298200000005
690,1778415323130,-3.543726388888889,-0.7606304466666667,0.2738913333333333,-1.6931922666666666,2.8472608,7.214386
691,1778415323140,-3.1349328,-0.766831306,0.35639274,-1.98774271,2.09862684,7.16042776
692,1778415323150,-3.032626066666667,-0.7856860555555555,0.4027199666666666,-2.077347211111111,1.905130822222222,7.0950670888888885
693,1778415323160,-2.72395173,-0.8647120100000001,0.5662860999999999,-2.26189104,1.65057042,6.90240608
694,1778415323170,-2.113626077777778,-0.9597273888888888,0.7912453333333332,-2.2937909,1.605815633333333,6.480088288888889
695,1778415323180,-1.84622964,-0.976867944,0.82301146,-2.23715175,1.6279079,6.2391939
696,1778415323190,-1.6101209888888888,-0.9857790622222224,0.8041966888888888,-2.117934755555555,1.6162000333333333,5.869427755555556
697,1778415323200,-1.3747413888888889,-1.002162111111111,0.7797914444444445,-1.8964008,1.4630809666666666,5.094873266666667
698,1778415323210,-1.2101315,-1.0169495,0.7704413,-1.81414,1.3954805,4.7927074
699,1778415323220,-1.1317564666666666,-1.0395254333333337,0.7649396111111111,-1.724006077777778,1.3489203888888888,4.439561655555555
700,1778415323230,-1.02736175,-1.10536634,0.680926908,-1.52520922,1.2420357599999998,3.66036478
701,1778415323240,-0.9094738333333334,-1.1469368333333332,0.5957969266666666,-1.425437511111111,1.1438794333333333,3.3217789444444445
702,1778415323250,-0.84065276,-1.1676107999999998,0.551398,-1.3584479000000005,1.04949675,3.09862966
703,1778415323260,-0.7394706666666667,-1.2106905555555556,0.4781240977777778,-1.3041503666666667,0.8549316722222222,2.8718560777777777
704,1778415323270,-0.65611756,-1.28749586,0.439672012,-1.23774452,0.456776318,2.61850368
705,1778415323280,-0.6331365333333333,-1.3430763666666667,0.4998055666666666,-1.0541951,0.1283033726666666,2.4819996
706,1778415323290,-0.6216317888888888,-1.360485922222222,0.5300613855555556,-0.9226338666666668,0.0015186335555555,2.438086422222222
707,1778415323300,-0.518518056,-1.37837311,0.542525539,-0.389506725,-0.256082441,2.3649408999999997
708,1778415323310,-0.3899109566666666,-1.3847149333333333,0.4999681733333333,-0.0437604166666666,-0.4082919933333333,2.3071615999999997
709,1778415323320,-0.246020446,-1.3849100399999998,0.362551652,0.563659317,-0.705849258,2.1124167
710,1778415323330,-0.0881521611111111,-1.3623830444444445,0.1702030288888888,0.8409500266666666,-0.8979878844444446,1.8563563666666667
711,1778415323340,0.0515334932,-1.32577256,0.0157631135999999,0.947698962,-1.020252362,1.57871952
712,1778415323350,0.2026439266666666,-1.2851461,-0.1195903153333333,0.8070140677777777,-1.0289807,1.0544072111111111
713,1778415323360,0.26227139,-1.2713952666666666,-0.1775103633333333,0.5963396533333333,-0.9355889566666666,0.6831817433333334
714,1778415323370,0.382629035,-1.2360935000000002,-0.27772962,0.194096722,-0.74744797,0.1406475715
715,1778415323380,0.5525017444444444,-1.1620394,-0.3504167911111111,-0.3937080248888888,-0.54525752,-0.5294857942222222
716,1778415323390,0.63503705,-1.12887078,-0.353484052,-1.021596204,-0.444223398,-1.2503584799999998
717,1778415323400,0.7301848766666666,-1.1113860333333332,-0.3198763999999999,-1.3963204444444444,-0.5100320022222222,-1.7401256555555555
718,1778415323410,0.7669891977777777,-1.1057657777777778,-0.2856874077777778,-1.6697764000000002,-0.6242604333333334,-2.1640536666666668
719,1778415323420,0.803126135,-1.0746511,-0.16973551,-2.0978785,-0.81677915,-2.93657185
720,1778415323430,0.8544061977777777,-1.014330888888889,-0.0329558522222222,-2.5349396666666664,-0.8948658,-3.9469641666666666
721,1778415323440,0.8994487980000001,-0.94631132,0.153008928,-2.86198737,-0.77053799,-5.00858106
722,1778415323450,0.8631499455555556,-0.9118621333333334,0.2855586733333333,-2.9448183,-0.7144622,-5.3195634
723,1778415323460,0.4910591559999999,-0.8592879400000001,0.6134748400000001,-2.99368615,-0.452714175,-7.2706479
724,1778415323470,-0.2543779711111111,-0.8007310333333333,0.9902339666666666,-2.6495754666666667,-0.5483117722222223,-8.576881133333334
725,1778415323480,-1.5480964,-0.8112547000000001,1.21239094,-1.92439792,-1.059346535,-9.5336227
726,1778415323490,-2.618513211111111,-0.8759183433333333,1.249544488888889,-1.0596842444444443,-1.9864412444444448,-9.603045
727,1778415323500,-3.143950411111111,-0.8276024977777777,1.2000835666666667,-0.7921162,-2.326089311111111,-9.368581666666666
728,1778415323510,-3.3934938000000003,-0.659572021,1.067260408,-0.778066739,-2.4373721500000003,-8.9210122
729,1778415323520,-3.5007734666666668,-0.2355930166666666,0.8063275066666667,-1.2734892866666665,-2.1320859666666667,-8.310958666666666
730,1778415323530,-3.3639767999999997,0.264908745,0.72322817,-2.36964444,-1.367335752,-7.924169879999999
731,1778415323540,-3.2653192222222223,0.4661518533333333,0.8827107222222222,-3.4643437444444443,-0.5516374966666667,-7.730993322222222
732,1778415323550,-3.3188369,0.47295441,1.26964725,-3.87228286,-0.040086858,-7.42694054
733,1778415323560,-3.3436909333333333,0.5015942866666667,1.5971967666666669,-3.757100855555555,0.1260636033333333,-7.129834499999999
734,1778415323570,-3.35153685,0.6273231800000001,1.8405951000000005,-3.03241372,0.289159828,-6.414812379999999
735,1778415323580,-3.295436033333333,0.7943756666666667,1.8964013666666668,-2.233792,0.2647259266666666,-5.741862266666667
736,1778415323590,-2.92457308,0.97965172,1.82819204,-0.83147766,0.290992372,-4.57762843
737,1778415323600,-2.496914,1.0284136666666666,1.5369901,-0.33255544,0.3781399133333333,-4.2299902
738,1778415323610,-2.3551984,1.0247549,1.4069114,0.14186928,0.45347774,-3.94447
739,1778415323620,-2.0223809,1.0757504222222225,1.3225839222222224,0.6004119733333333,0.6552778811111112,-3.797866588888889
740,1778415323630,-1.6803419666666666,1.0613288555555558,1.002870188888889,1.0101547222222222,1.0776363,-3.798205933333333
741,1778415323640,-1.5100728,1.08088625,0.87306925,1.2726697,1.51936038,-3.89511336
742,1778415323650,-1.420699333333333,1.1035162777777778,0.6839660566666667,1.6195597,1.9987939999999995,-3.9389722
743,1778415323660,-1.41128956,1.14945122,0.568514878,1.78457497,2.08439409,-3.86854149
744,1778415323670,-1.400589766666667,1.2176320333333337,0.3836301066666666,2.0486034666666666,2.1574107999999996,-3.6571678333333337
745,1778415323680,-1.51128936,1.3095733900000002,0.129977098,2.1901164,2.12898595,-3.14932985
746,1778415323690,-1.5868134333333337,1.3829499333333333,-0.0241443622222222,2.1781031,2.0741318333333334,-2.7044498666666663
747,1778415323700,-1.56469495,1.51889348,-0.216854113,2.0426580000000003,1.99740944,-1.88469292
748,1778415323710,-1.5172057222222222,1.5641461333333333,-0.2572948155555555,1.955958388888889,2.0101965,-1.6049163333333334
749,1778415323720,-1.3022528,1.66181636,-0.28665696,1.49012376,2.1731501599999996,-0.4654350496
750,1778415323730,-0.9824590800000002,1.6875848666666666,-0.2908198311111111,1.0750402666666667,2.3137875333333335,0.255995912
751,1778415323740,-0.771496222,1.6614688999999998,-0.28885222,0.6384881,2.3300768,0.88893545
752,1778415323750,-0.707727611111111,1.5944392555555555,-0.2822556255555555,0.2759841911111111,2.1183164444444444,1.3589569666666668
753,1778415323760,-0.69924812,1.53490668,-0.269527916,0.0437672052,1.9243520999999997,1.65959566
754,1778415323770,-0.7495694977777778,1.4537976,-0.2378594066666666,-0.20353091,1.6210190111111111,2.0128011
755,1778415323780,-0.78172242,1.38351065,-0.2142808,-0.551808872,1.08089423,2.60506508
756,1778415323790,-0.8192550866666666,1.3307890666666666,-0.15050675,-0.7049686466666666,0.7998790533333334,2.925271266666667
757,1778415323800,-0.93998772,1.2357002,0.020056046,-0.8070208640000001,0.484142264,3.27956268
758,1778415323810,-1.116586091111111,1.1872406,0.1020113677777777,-0.6318027222222222,0.24178522,3.430102666666667
759,1778415323820,-1.225915,1.173950533333333,0.1151896433333333,-0.5324382355555556,0.160746152,3.4423196
760,1778415323830,-1.53608964,1.13618824,0.09785327,-0.220240982,-0.019440214,3.3638595
761,1778415323840,-2.015829,1.0786808666666667,-0.05653785,-0.0747100155555555,0.0110207028888888,3.3088153666666664
762,1778415323850,-2.36425375,1.04670745,-0.2441758349999999,-0.0548235448,0.0806165666,3.3045462700000003
763,1778415323860,-2.745617466666667,1.00864625,-0.4298624766666666,-0.2761538666666666,0.107534568,3.408655
764,1778415323870,-3.4462223,0.8463603550000001,-0.5754604,-0.687355875,-0.044973633,3.6940224
765,1778415323880,-3.871902866666667,0.6219367044444444,-0.4757289777777777,-1.01588985,-0.2316892766666666,4.117084999999999
766,1778415323890,-3.97686018,0.362789478,-0.2615701339999999,-1.3173761,-0.253944476,4.9083409
767,1778415323900,-3.843079833333334,0.21907783,-0.13560751,-1.4554369333333332,-0.2639963077777777,5.3129459444444445
768,1778415323910,-3.60582617,0.112283995,0.065442839,-1.56234876,-0.252783866,5.4325092999999995
769,1778415323920,-3.4862908000000004,0.0414861643333333,0.2068616633333333,-1.685658433333333,-0.1769166351111111,5.4366088
770,1778415323930,-3.2895856666666665,-0.0824506131111111,0.4451648633333333,-1.7812899333333334,0.1488685719999999,5.248263933333333
771,1778415323940,-2.9858267,-0.18557181,0.605565822,-1.68659508,0.6719167199999999,4.99648612
772,1778415323950,-2.6754338888888887,-0.2605334977777778,0.6617831777777777,-1.542380877777778,0.8623042333333333,4.892139955555556
773,1778415323960,-2.4805105999999997,-0.309304636,0.65636754,-1.3598453300000002,0.99867419,4.79661713
774,1778415323970,-2.0650087666666668,-0.4246724888888888,0.5573394333333332,-0.9507328333333334,1.1199885,4.600494133333333
775,1778415323980,-1.7665665000000002,-0.501706128,0.456605934,-0.72950435,1.1453386,4.431086
776,1778415323990,-1.488359166666667,-0.6271199333333333,0.3632224166666666,-0.5563291333333332,1.1450332333333335,4.159462333333334
777,1778415324000,-1.30960385,-0.7143252,0.3007797499999999,-0.5077056799999999,1.1384361200000002,3.98269336
778,1778415324010,-1.1765558222222223,-0.7675752644444445,0.2537072311111111,-0.5033890444444444,1.133495,3.807606155555556
779,1778415324020,-0.987463141,-0.8285087499999999,0.2010544159999999,-0.5558405,1.13745866,3.59390448
780,1778415324030,-0.8118495166666667,-0.855954428888889,0.1663613333333333,-0.652843,1.1611867333333334,3.401664055555555
781,1778415324040,-0.681518403,-0.8956773119999999,0.1832241,-0.806043506,1.23769873,3.15739305
782,1778415324050,-0.6272859099999999,-0.9124381266666668,0.1929482444444444,-0.8653500022222222,1.2714107,3.0602004777777783
783,1778415324060,-0.377302484,-0.910053132,0.1893708,-0.99748306,1.3135048299999998,2.76168631
784,1778415324070,-0.22818406,-0.8763824333333333,0.1997779133333333,-1.037201722222222,1.282405866666667,2.5504823777777776
785,1778415324080,-0.14163428,-0.8467668666666667,0.1825411333333333,-1.030821711111111,1.1463906333333334,2.2242221444444445
786,1778415324090,-0.165814551,-0.856214625,0.164125424,-0.90915449,0.795094076,1.99226312
787,1778415324100,-0.2301828055555555,-0.8901468333333332,0.18416725,-0.7638814666666667,0.4796762877777777,1.8755641444444444
788,1778415324110,-0.313219492,-0.960220656,0.240757964,-0.56396475,0.2653367749999999,1.89477185
789,1778415324120,-0.33612733,-1.00530254,0.2802297766666666,-0.3590254866666666,0.1309503833333333,1.9511734000000005
790,1778415324130,-0.30045959,-1.04940575,0.325308615,-0.114442236,0.090878802,2.0256154000000004
791,1778415324140,-0.1847905877777777,-1.0945083333333334,0.3280984111111111,0.3151462866666666,0.0751596666666666,2.1014418
792,1778415324150,0.0006219844,-1.11491874,0.26917425,0.604158472,0.0365133963999999,2.0843788
793,1778415324160,0.2861921633333333,-1.0984550666666668,0.2102731111111111,0.8214707722222222,-0.050539126,1.9372596666666668
794,1778415324170,0.376845148,-1.08976486,0.194883322,0.920699523,-0.109173675,1.7967308599999998
795,1778415324180,0.5867381666666667,-1.0491635444444445,0.1177135135555555,1.0200640444444444,-0.1803781088888889,1.3404449555555555
796,1778415324190,0.7328442722222221,-1.007613,0.03386715352,0.9449298466666668,-0.2502183099999999,0.5897221333333333
797,1778415324200,0.8193405,-0.992185924,-0.010403045598,0.748074106,-0.29371063,-0.04963135
798,1778415324210,0.8815758,-0.99203956,-0.026373489,0.51021016,-0.33329353,-0.6836908
799,1778415324220,0.839750205,-0.994478727,0.0232726982,0.2348402269999999,-0.444956396,-1.43020724
800,1778415324230,0.6808561222222222,-1.0268824444444444,0.1353026033333333,0.0023246149999999,-0.574646061111111,-2.231450466666667
801,1778415324240,0.59267482,-1.09440536,0.298358874,-0.127208935,-0.620697175,-3.25207445
802,1778415324250,0.6395461,-1.1004944444444444,0.3469613144444444,-0.1592105477777777,-0.5719311788888889,-4.107057
803,1778415324260,0.61723724,-1.0587691,0.293858628,-0.211811295,-0.72454119,-5.2459562
804,1778415324270,0.5740884,-1.0435365,0.2711134,-0.25151637,-0.87511504,-5.8632174
805,1778415324280,0.359441715,-1.0841791500000002,0.348846585,-0.2854794779999999,-1.008279744,-6.2559005999999995
806,1778415324290,-0.7593295466666666,-1.289197877777778,0.5744237511111111,-0.4450191866666666,-1.9769732,-8.200124266666668
807,1778415324300,-2.572761822222222,-1.4171592555555557,0.8121984411111112,-0.52395426,-2.940466,-8.916512
808,1778415324310,-3.44204826,-1.32235161,0.892655732,-0.5576730400000001,-3.07925048,-8.7858312
809,1778415324320,-3.9897009222222226,-0.9169607166666668,0.8597554911111112,-0.6702861177777778,-2.7164887333333336,-8.068452288888889
810,1778415324330,-3.97980238,-0.537348423,0.6619868019999999,-0.893333571,-2.0692527499999995,-7.406538090000001
811,1778415324340,-3.9196255333333334,-0.1004259133333333,0.5249120622222221,-1.4036761111111111,-1.419787191111111,-7.076164733333333
812,1778415324350,-3.90016042,0.1563322939999999,0.551105356,-1.97540375,-0.700718165,-6.8870737
813,1778415324360,-3.897249777777778,0.2104628255555555,0.5988324111111111,-2.1385,-0.4438569,-6.8266
814,1778415324370,-3.8692808,0.30309695,0.7448301,-2.25480521,0.042744026,-6.6059084100000005
815,1778415324380,-3.800265911111111,0.3792463844444445,0.7556979155555555,-2.1581827222222225,0.44465438,-6.291760755555555
816,1778415324390,-3.692203399999999,0.565307364,0.715011238,-1.7426707999999995,0.721028825,-5.7505162
817,1778415324400,-3.6560468222222218,0.6415719866666667,0.6597674977777778,-1.577063322222222,0.739150611111111,-5.474718611111111
818,1778415324410,-3.43585922,0.739067506,0.579021608,-1.05547538,0.78021995,-4.23775264
819,1778415324420,-3.1938755333333333,0.7961338288888888,0.5550662666666667,-0.8701010566666667,0.7922943666666666,-3.815224533333333
820,1778415324430,-2.76209408,0.903119744,0.5395253799999999,-0.483638338,0.85861453,-3.03320783
821,1778415324440,-2.3534197444444445,1.0083413666666667,0.5501709777777779,-0.0931033027777777,1.0813693,-2.482373033333334
822,1778415324450,-1.82408,1.1021171333333333,0.5020719533333334,0.2786990596666666,1.5135777,-2.1860442333333334
823,1778415324460,-1.4375961,1.1546284,0.399986752,0.568240665,1.86125165,-2.06611455
824,1778415324470,-1.2936121,1.1723856,0.3492277,0.7479655044444444,2.0636796777777775,-2.0266809555555554
825,1778415324480,-0.9889418,1.19310012,0.200450718,0.927418824,2.2527435799999997,-1.96239264
826,1778415324490,-0.9058557,1.2272599666666666,0.1020283033333333,0.9599295,2.2935617777777777,-1.779287722222222
827,1778415324500,-0.80699222,1.33751706,-0.0001036661999999,0.8506964399999999,2.1738221199999996,-1.38924988
828,1778415324510,-0.6888715,1.4684190333333331,-0.0532043236666666,0.6195518388888889,1.882054322222222,-0.8599541666666667
829,1778415324520,-0.6199921444444444,1.5317899444444445,-0.0629948676666666,0.5210018166666667,1.7562198111111111,-0.6638043311111111
830,1778415324530,-0.473411796,1.6622372,-0.0792363315,0.2641609012,1.42272436,-0.202404244
831,1778415324540,-0.3944539144444444,1.7504374777777778,-0.0416182844444444,0.0120981688888888,1.0428180333333334,0.1896171755555555
832,1778415324550,-0.413777201,1.7160726699999995,0.0444538148,-0.2662988699999999,0.492220704,0.712217384
833,1778415324560,-0.4409369944444444,1.6568310888888886,0.0644786933333333,-0.3854955333333333,0.0959284666666666,1.0382876
834,1778415324570,-0.4690754944444444,1.6047074666666663,0.0540106013333333,-0.4325986444444444,-0.1101306688888888,1.1912793666666668
835,1778415324580,-0.539940045,1.50818558,0.034294685,-0.5525419,-0.660890908,1.57859732
836,1778415324590,-0.6240642111111111,1.4242057555555556,0.0379324293333333,-0.7450809333333334,-1.00665082,1.990471366666667
837,1778415324600,-0.7672033300000001,1.37804386,0.115683582,-0.84617615,-1.0400438,2.20935825
838,1778415324610,-0.8647625444444444,1.3512408,0.18219898,-0.8971819000000001,-1.0204967,2.3351927
839,1778415324620,-1.0480625444444442,1.2873311777777778,0.3403111688888889,-0.7914374477777778,-0.8466767000000001,2.473923011111111
840,1778415324630,-1.24680446,1.2206322,0.3693752199999999,-0.258663264,-0.53450661,2.56707039
841,1778415324640,-1.5899606666666666,1.1345682,0.1575701673333333,0.4582202733333333,-0.5657548444444445,2.4933343
842,1778415324650,-2.13024018,1.0463598,-0.2629482816,1.06046136,-0.96075586,2.3094149
843,1778415324660,-2.4120615,1.002528,-0.47713152,1.227209077777778,-1.1945203333333334,2.2301269
844,1778415324670,-3.5559729555555557,0.61521205,-0.8195261577777777,0.7495265222222222,-1.2081625333333337,2.513424266666666
845,1778415324680,-4.094092600000001,0.338983212,-0.907187084,0.2187138599999999,-0.88183436,2.96705308
846,1778415324690,-4.3780504,0.0734968348888888,-0.927984377777778,-0.4993167333333333,-0.4623859233333333,3.5884731999999997
847,1778415324700,-4.21078522,-0.1911422532,-0.651739249,-1.47783045,-0.263962375,4.3214391
848,1778415324710,-4.071751666666667,-0.3341048533333333,-0.39894603,-2.1097900999999997,-0.3375694666666666,4.7749931666666665
849,1778415324720,-3.8914974,-0.5360068633333334,0.0317193233333333,-2.3052611333333335,-0.49252106,4.9908258
850,1778415324730,-3.69537428,-0.6891987540000001,0.380302656,-2.2494297199999997,-0.484172804,5.10033044
851,1778415324740,-3.355934333333334,-0.79961985,0.6491503333333334,-1.9045454,-0.1670752033333333,5.1324065999999995
852,1778415324750,-2.7800463399999997,-0.8810636200000002,0.72998772,-1.280213656,0.427089132,4.96179006
853,1778415324760,-2.2785780333333334,-0.94584788,0.6745414000000001,-0.6241331866666666,1.0289467333333333,4.6448825
854,1778415324770,-2.1611931,-0.96252567,0.645495,-0.4561502,1.1792406,4.5410385
855,1778415324780,-1.94895515,-1.038222211,0.538165538,-0.14241904,1.42907714,4.290469
856,1778415324790,-1.7049978666666668,-1.1793980666666666,0.3996574666666667,0.3481320433333333,1.7646359,3.890460766666666
857,1778415324800,-1.5785372,-1.2814924,0.35617931,0.579235915,1.87255225,3.7282299
858,1778415324810,-1.4044856666666667,-1.4126500888888889,0.3090457944444444,0.7470831488888889,1.9465326444444448,3.637722744444444
859,1778415324820,-1.24403594,-1.49530368,0.2873887109999999,0.8446490219999999,2.0033957100000004,3.59891363
860,1778415324830,-1.0408534466666668,-1.5173244,0.2832584133333333,0.8772614955555555,2.070874022222222,3.5762307777777775
861,1778415324840,-0.85628472,-1.4986850500000002,0.266860085,0.88160532,2.0710775999999997,3.54894625
862,1778415324850,-0.6692565666666667,-1.4896601,0.2188948766666666,0.9114010833333334,1.8832760666666668,3.5148744444444446
863,1778415324860,-0.5307749019999999,-1.47809846,0.193078332,0.989847412,1.3598071800000002,3.4727124
864,1778415324870,-0.4349847233333333,-1.4739681,0.2345970266666666,1.0533212222222224,0.9760152222222224,3.4464596
865,1778415324880,-0.4011412766666666,-1.4804725333333333,0.2842239066666667,1.159880177777778,0.4933185366666666,3.421007688888889
866,1778415324890,-0.354883505,-1.49551405,0.36717081,1.39441155,-0.07276718,3.4310526500000003
867,1778415324900,-0.3114510911111111,-1.5350827666666669,0.4400087355555555,1.639836388888889,-0.3225697722222222,3.4560295666666665
868,1778415324910,-0.170375793,-1.61608515,0.5067521150000001,2.0074731,-0.49516805,3.3907367
869,1778415324920,0.1562692813333333,-1.6129904666666668,0.4348119466666666,2.2518119666666667,-0.4405990333333333,3.1327556
870,1778415324930,0.4280635833333333,-1.5557208333333332,0.2936655166666667,2.369909166666667,-0.0846787082,2.486479266666666
871,1778415324940,0.629122075,-1.5343273,0.171671605,2.2939605199999997,0.05215108616,2.19469784
872,1778415324950,0.9165981788888888,-1.5882837888888888,0.05393946,1.5966529,0.0837793997777777,0.8491455444444446
873,1778415324960,1.013132278,-1.6354491,0.0492833616,1.21305102,-0.2041604196,0.315655316
874,1778415324970,1.1271796333333333,-1.682527,0.0839479826666666,0.8370135,-0.5721348,-0.15714046
875,1778415324980,1.2263419333333332,-1.6676482,0.1472341933333333,-0.0153220844444444,-1.4553011777777778,-1.083337562222222
876,1778415324990,1.22740395,-1.6047431,0.22952558,-0.99555889,-2.1554051000000003,-2.11864736
877,1778415325000,1.1205938555555557,-1.5815692444444442,0.3395760466666667,-1.9432324444444444,-2.6012421,-3.264664711111111
878,1778415325010,0.8818746279999999,-1.64616617,0.534723249,-2.80175792,-2.94009944,-4.671668219999999
879,1778415325020,0.4769417911111111,-1.7475104555555554,0.8742379666666666,-3.2570292,-3.0244913888888885,-5.8106846333333335
880,1778415325030,0.155798729,-1.7933027499999998,1.11200082,-3.4552423400000003,-2.93154762,-6.57193776
881,1778415325040,-0.5531217055555556,-1.8690927555555557,1.5177612777777778,-3.456029544444444,-2.4404536111111113,-7.640248222222222
882,1778415325050,-1.4805377,-1.96468168,1.60352654,-2.86846245,-2.15766525,-8.555297999999999
883,1778415325060,-1.8780127777777775,-1.9510013555555552,1.5629740444444444,-2.1662595555555555,-2.6009028333333335,-9.105196333333332
884,1778415325070,-2.215861,-1.8543917,1.612899,-1.5424046,-2.8355224999999997,-9.5102046
885,1778415325080,-2.442747511111111,-1.7813742222222224,1.602352977777778,-1.0246453666666668,-2.7510355555555552,-9.810054111111112
886,1778415325090,-2.718464811111111,-1.7801547111111111,1.3551196888888888,-0.6990637999999999,-2.0720194000000003,-10.049099333333332
887,1778415325100,-3.0631483200000003,-1.7786098199999998,1.04744522,-0.8904626,-1.21657864,-10.2193214
888,1778415325110,-3.525937444444444,-1.7464230888888888,0.8543215222222222,-1.388549088888889,-0.3335650111111111,-10.112762333333333
889,1778415325120,-3.91764928,-1.68445812,0.75531848,-1.72220741,0.141518042,-9.9069264
890,1778415325130,-4.335825555555555,-1.4582321111111112,0.7122671622222223,-2.1108081333333337,0.300969545,-8.755451833333332
891,1778415325140,-4.3344298000000006,-0.90589128,0.6003551149999999,-2.15847456,-0.0600004735,-7.51823935
892,1778415325150,-3.9990272666666673,-0.3133821044444445,0.5844040222222222,-1.9017626444444444,-0.8635768644444445,-5.8006397777777785
893,1778415325160,-3.67417777,0.135449968,0.6022668400000001,-1.5569733200000002,-1.27802994,-4.62075432
894,1778415325170,-3.3716906555555557,0.4257701166666666,0.5726689055555556,-1.2875896333333334,-1.1233226666666667,-3.9290206666666663
895,1778415325180,-3.2469035666666666,0.5197525722222223,0.5509806500000001,-1.1412492722222225,-0.9376929622222224,-3.5536634777777776
896,1778415325190,-2.65577694,0.85173261,0.41073127,-0.7924826859999999,0.0707208439999999,-2.59058802
897,1778415325200,-2.1930751333333336,1.0351722,0.2685319333333333,-0.6337031288888889,0.8712718333333334,-2.0990323777777777
898,1778415325210,-1.75050458,1.19153292,0.169753812,-0.5146693520000001,1.5810559999999998,-1.73686784
899,1778415325220,-1.3706491,1.3528228666666666,0.1112869833333333,-0.3533242399999999,2.0981585333333332,-1.4008509333333334
900,1778415325230,-1.2865385,1.3961791,0.1022620649999999,-0.29305398,2.2323413,-1.2914838
901,1778415325240,-1.2261149444444444,1.4076838111111112,0.1904379361111111,-0.0593030866666666,2.2036993666666667,-0.94907
902,1778415325250,-1.2691492555555557,1.3715028111111112,0.2781327577777778,0.3451456733333333,1.9279357444444445,-0.4301891833333333
903,1778415325260,-1.35930182,1.30278332,0.387208581,0.7740962180000001,1.54727611,-0.023609245
904,1778415325270,-1.5495687111111112,1.1334096555555555,0.6007667777777779,1.7091506666666667,0.7845824,0.6656707933333333
905,1778415325280,-1.72997294,0.96058048,0.75088528,2.1388052600000003,0.574547652,0.906711116
906,1778415325290,-1.9380569000000003,0.8121883155555555,0.8477120577777778,2.712187166666667,0.4013520866666666,1.1942827666666669
907,1778415325300,-2.2563329600000004,0.6359761239999999,0.952805592,3.2297784999999997,0.3493282649999999,1.44213405
908,1778415325310,-2.5483499666666667,0.5078548266666666,1.0476018,3.5423965444444447,0.4433648055555556,1.6158182444444444
909,1778415325320,-3.136846177777778,0.2686572688888888,1.3161370888888888,3.831530877777778,0.7355958444444445,1.9022377444444445
910,1778415325330,-3.37391012,0.087852688,1.55471868,4.026078979999999,1.0433882,2.24906322
911,1778415325340,-3.4936895000000003,-0.1747358033333333,1.807646,4.297285044444444,1.3643951777777776,2.6904342777777774
912,1778415325350,-3.43584668,-0.618231192,2.0574066,5.0680162,1.79705146,3.47014688
913,1778415325360,-3.2420691777777777,-1.1774298111111112,2.3066149555555553,6.243775222222222,2.0178659999999997,3.942187488888889
914,1778415325370,-3.19650658,-1.3201593500000002,2.35404591,6.5872012799999995,2.06942831,3.987297700000001
915,1778415325380,-3.134505377777778,-1.6407326666666666,2.3264399222222223,7.609298777777777,2.363130455555556,3.7095312
916,1778415325390,-3.13703668,-1.7076485,2.3201963599999997,7.94023555,2.62456627,3.4819362400000005
917,1778415325400,-3.1301317999999996,-1.6999467666666668,2.343581966666667,8.283674666666666,3.1266216333333334,3.1804016666666666
918,1778415325410,-2.83081764,-1.63602834,2.21950146,8.7342758,4.390632699999999,2.7489806000000003
919,1778415325420,-2.5163934111111113,-1.6090776111111111,1.9586068111111112,9.044450444444443,5.756123866666666,2.3684498555555553
920,1778415325430,-2.20917766,-1.56023738,1.59616018,8.9808136,6.62944892,2.12652722
921,1778415325440,-1.743279177777778,-1.4496848222222225,0.9499063555555556,8.655069000000001,7.875908266666666,1.7595709666666668
922,1778415325450,-1.5632212333333333,-1.3410911555555556,0.4672393222222222,7.660949444444445,8.767516,1.4713189333333334
923,1778415325460,-1.52896724,-1.22917544,-0.038618108,5.8687992,8.8743204,1.45380122
924,1778415325470,-1.6062047555555556,-1.1837716444444444,-0.3104144555555555,4.414652666666667,8.363024666666668,1.7780320888888888
925,1778415325480,-1.7040931999999998,-1.1848557,-0.38389435,3.69219,8.016606,2.0120544
926,1778415325490,-1.8075682222222225,-1.203068188888889,-0.4251027277777777,1.4195326533333334,6.507101422222222,3.3193016
927,1778415325500,-1.75852646,-1.19585639,-0.327458133,-0.551747789,4.95655202,4.6726149
928,1778415325510,-1.5413297444444445,-1.2786518444444444,-0.1747188677777777,-2.0303544333333337,3.4835855,5.909539933333333
929,1778415325520,-1.1803737,-1.4971148,0.007302255,-3.08607668,2.21645928,6.85911216
930,1778415325530,-0.9697517,-1.649517,0.09149924,-3.911255044444444,1.0393481266666666,7.624671655555555
931,1778415325540,-0.5775184149999999,-1.98144788,0.308508867,-4.65221292,-0.329628448,8.214383600000001
932,1778415325550,-0.3574497033333333,-2.177068033333333,0.5197356133333333,-5.063788333333333,-1.2894900666666669,8.491871111111111
933,1778415325560,-0.1239977488888888,-2.4154254444444443,0.9118621888888888,-5.346270777777779,-2.3841199,8.786774888888889
934,1778415325570,0.145642634,-2.59618194,1.1901548199999998,-5.14247878,-3.2441792,8.941659
935,1778415325580,0.4095021933333333,-2.7677122333333335,1.343808011111111,-4.4475789,-3.774068933333333,8.809716333333334
936,1778415325590,0.5078345,-2.84156515,1.39507828,-4.0255902599999995,-3.980128160000001,8.6945104
937,1778415325600,0.7473268044444444,-2.982613111111111,1.5095392777777776,-2.8436891666666666,-4.2388558666666665,8.310788888888888
938,1778415325610,1.037383704,-3.03730532,1.51201504,-1.55220868,-4.04047968,7.759791099999999
939,1778415325620,1.7343931333333331,-2.9679814444444443,1.2078685822222224,-0.7147082333333333,-3.7078937777777776,6.798424499999999
940,1778415325630,3.15043992,-2.6966146,0.535134896,-0.313517355,-3.67500985,5.192507
941,1778415325640,3.7431148,-2.5322310666666663,0.2482563566666666,-0.3046600733333333,-3.991326933333333,3.294884566666666
942,1778415325650,3.9330376444444446,-2.5179213333333332,0.0951037922222222,-0.5601299777777778,-4.7587207777777785,0.2226452777777776
943,1778415325660,3.1772493099999997,-2.9792072999999997,0.3574446225,-1.06271389,-5.6812305,-3.51916755
944,1778415325670,2.2518895,-3.2882100000000003,0.5957054733333333,-1.475527,-5.950390266666667,-5.620507666666667
945,1778415325680,1.84474483,-3.3757577500000004,0.66516075,-1.66808641,-5.9759645,-6.3539189
946,1778415325690,0.953344851111111,-3.4763985333333336,0.7514225755555556,-2.242751111111111,-5.919373,-7.747825555555555
947,1778415325700,0.2225282199999999,-3.5408620999999996,0.90698892,-3.15995864,-5.527846820000001,-9.3176806
948,1778415325710,-0.4822334299999999,-3.6006571333333333,1.2385377,-3.628398677777778,-5.102670111111111,-10.108758111111111
949,1778415325720,-1.2469996,-3.61442414,1.6734817400000002,-3.92530444,-4.18454816,-11.333385
950,1778415325730,-2.1763262,-3.566173566666667,2.077814233333333,-3.5632247999999995,-3.624818533333334,-12.310710333333333
951,1778415325740,-2.81484722,-3.4541895599999997,2.2299959,-3.0448750799999997,-3.69614511,-12.586920199999998
952,1778415325750,-3.620129944444445,-3.1594866666666666,2.3001341111111113,-2.0725283666666665,-4.1654438,-12.802467666666663
953,1778415325760,-5.16302385,-2.5207659,2.1483081000000004,-1.099700702,-5.15364192,-13.1270926
954,1778415325770,-6.709961255555555,-2.0176684666666667,2.0444959111111114,-1.0734792222222225,-5.276422355555556,-12.987826333333333
955,1778415325780,-7.991634822222222,-1.4596379933333334,1.9648572444444443,-1.3505747888888888,-4.9188647111111115,-12.56409322222222
956,1778415325790,-7.95230538,-0.6095629971000001,1.63713522,-2.13349095,-2.419023885,-11.0735916
957,1778415325800,-7.803568333333333,0.0465101654444444,1.1041904111111112,-2.907895922222222,0.8410688,-9.431761444444444
958,1778415325810,-7.748653039999999,0.0117140976,1.3314191,-2.9284475,1.63957516,-8.6790554
959,1778415325820,-7.339998088888889,0.1897773355555555,1.5388431111111112,-2.189200177777778,2.0222777555555553,-6.733649355555555
960,1778415325830,-6.12621118,0.787972866,1.30335052,-0.97894383,1.7636992800000002,-4.34729308
961,1778415325840,-5.647988788888889,0.9512649055555557,1.2228898555555554,-0.5798128333333333,1.5782596444444446,-3.7076647222222223
962,1778415325850,-4.0676916,1.3145584,1.041463185,0.3929275,1.70493576,-2.3759362200000003
963,1778415325860,-3.000449377777778,1.401108177777778,0.8970543577777776,0.9217854888888888,2.6910876222222218,-2.0593951111111113
964,1778415325870,-2.4693412666666665,1.3681388,0.7954224133333333,1.240376266666667,3.3370076666666666,-2.0406624666666664
965,1778415325880,-2.08528935,1.292484,0.67758525,1.6719729600000002,3.85238466,-1.9854827
966,1778415325890,-1.7649199555555557,1.2004697999999998,0.5455399533333334,1.9963421666666668,4.025390111111111,-1.8793989444444443
967,1778415325900,-1.4222323,1.10161915,0.383635185,2.3797846,4.08267405,-1.664177
968,1778415325910,-1.0424084,1.0302023333333332,0.15520214,2.5423717333333333,4.0527424666666665,-1.407163
969,1778415325920,-0.8231821979999999,1.03509698,0.03713631402,2.40623428,3.99141336,-1.1680927
970,1778415325930,-0.6846334433333333,1.1127682333333333,0.0402665749,2.1703658,3.8022952,-0.8496376333333333
971,1778415325940,-0.61878001,1.1631258299999998,0.1036157958,2.07637672,3.5820618699999995,-0.634028899
972,1778415325950,-0.51527398,1.2052634333333332,0.2609501733333333,2.0367258888888893,3.145422233333333,-0.3048976144444444
973,1778415325960,-0.456971796,1.19958828,0.4815341699999999,2.33415412,2.32787788,0.244552696
974,1778415325970,-0.4152783,1.1680864666666666,0.6307583166666667,2.772593222222222,1.6940491222222225,0.6333637666666667
975,1778415325980,-0.3850224666666666,1.1133373,0.7044618266666667,3.306473822222222,1.1894213944444445,0.8937883111111111
976,1778415325990,-0.3699971999999999,1.0655072799999998,0.706407056,3.6825385499999994,0.968864845,1.03107961
977,1778415326000,-0.3802051088888888,1.0171054555555556,0.6609057455555555,4.031888855555556,0.9263498444444443,1.157402811111111
978,1778415326010,-0.520316938,0.950848184,0.52239636,4.21419695,1.08852975,1.30404435
979,1778415326020,-0.6466332611111112,0.8893879866666666,0.4340903866666667,4.1475256,1.1859599333333335,1.5030151333333333
980,1778415326030,-0.8272281250000001,0.811952885,0.3864402349999999,3.8192461,1.2488772,1.90454545
981,1778415326040,-1.005739561111111,0.7528826555555556,0.4368107277777777,3.525021333333333,1.196547933333333,2.1635446666666667
982,1778415326050,-1.16949201,0.6947142900000001,0.51841441,3.2047338400000003,1.073808354,2.48472814
983,1778415326060,-1.323061511111111,0.6403727333333333,0.6432760277777778,2.8149453,0.754252158888889,3.0388209666666666
984,1778415326070,-1.415804133333333,0.6245994666666667,0.7862247766666667,2.5810587666666667,0.2903815233333333,3.5644210333333337
985,1778415326080,-1.48702275,0.6158591,0.912111175,2.48882085,-0.0984227549999999,3.92099035
986,1778415326090,-1.5732828333333333,0.587829,1.0523988,2.490992711111111,-0.4063915844444444,4.147652900000001
987,1778415326100,-1.77912815,0.49467825,1.2800137,2.62650584,-0.8214826819999999,4.35754
988,1778415326110,-1.9624790222222224,0.4194417977777778,1.4345823444444443,2.7700142000000003,-1.0321028,4.379774666666666
989,1778415326120,-2.18257252,0.37534506,1.55583472,3.03748368,-1.32873024,4.2461214400000005
990,1778415326130,-2.6858986333333332,0.3812824066666667,1.7267065,3.4348195333333336,-1.5182014888888888,3.9637453777777782
991,1778415326140,-2.9431189555555557,0.3621417333333333,1.8023138444444444,3.977387688888888,-1.1232548444444443,3.8856586666666666
992,1778415326150,-3.03761636,0.284711744,1.83161908,4.20642401,-0.88678229,3.90607035
993,1778415326160,-2.939301,0.1221649888888888,1.7344949,4.680752788888889,-0.2875478644444444,3.9313112111111113
994,1778415326170,-2.6671556599999997,-0.0401242919999999,1.44851746,5.09953636,0.578747232,3.74356224
995,1778415326180,-2.448201911111111,-0.2079288022222222,1.1882366666666668,5.151241111111111,1.2257328777777776,3.438790111111111
996,1778415326190,-2.30070144,-0.371539976,1.03720076,4.91603774,1.77029648,3.0804263599999997
997,1778415326200,-2.1430112444444447,-0.5289366944444445,0.9389063888888888,4.720186655555556,2.0387706666666667,2.8986654
998,1778415326210,-1.83554618,-0.7014373,0.7997844599999999,4.2676462,2.5060008999999996,2.6598581
999,1778415326220,-1.5035091777777778,-0.8126591555555556,0.6139111466666667,3.6825521111111112,2.9803577555555556,2.5327000222222225
1000,1778415326230,-1.3412774666666667,-0.8344897000000001,0.4904452733333333,3.5144334166666664,3.0637044833333333,2.5218065833333334
