id,timestamp,acc_x,acc_y,acc_z,gyro_x,gyro_y,gyro_z
0,1778415369160,-0.58905876,0.9854538,-1.3283397,3.0266719,1.0008605766666667,-1.90637795
1,1778415369170,-0.570362552,1.0449999399999998,-1.32321746,2.8075609800000003,1.1684898,-1.88237166
2,1778415369180,-0.49015732,1.3443331111111112,-1.2619232222222223,1.9258911333333333,1.7169898888888888,-1.8371825222222224
3,1778415369190,-0.4846502,1.40907,-1.2223944599999998,1.58236164,1.90761494,-1.80259495
4,1778415369200,-0.5238855555555556,1.4901208444444445,-1.1562497222222223,0.9777119666666666,2.1240177666666664,-1.7191532
5,1778415369210,-0.667142575,1.51356395,-1.0943169,0.474903209,1.92697875,-1.50993811
6,1778415369220,-0.9520372666666664,1.540496366666667,-1.1615007000000002,0.00110292,1.559662688888889,-1.2212024555555556
7,1778415369230,-1.23018161,1.5533528,-1.2359288300000002,-0.786191006,0.95494515,-0.7083079379999999
8,1778415369240,-1.3693380999999998,1.5477427,-1.2300819333333337,-1.2791905333333335,0.6522067133333334,-0.3625887613333333
9,1778415369250,-1.58670845,1.5011394,-1.12116295,-2.01009978,0.2850060598,0.1983726482
10,1778415369260,-1.7900942666666668,1.4035981,-0.9766119,-2.687583777777778,-0.0852895477777777,0.8936186055555555
11,1778415369270,-2.03185632,1.27236082,-0.8007357799999999,-3.0990573,-0.8115869200000001,1.86209155
12,1778415369280,-2.2671140000000003,1.1242424333333334,-0.6364090666666666,-2.942782155555556,-1.7893922111111111,2.7202302555555553
13,1778415369290,-2.3225136,1.0835693,-0.60012645,-2.5990787333333336,-2.3410890999999996,3.028097233333334
14,1778415369300,-2.5810806000000004,0.89162217,-0.54472691,-1.91004312,-2.98383602,3.28334982
15,1778415369310,-2.7233195666666665,0.8433419066666666,-0.60768789,-1.4720401,-3.078517333333333,3.3524570333333332
16,1778415369320,-3.20678766,0.593769384,-1.0089704149999998,-0.811235712,-2.71035981,3.49543604
17,1778415369330,-3.5475444333333335,0.2031317693333333,-1.1352288333333334,-0.83365382,-2.2589641,3.706341233333333
18,1778415369340,-3.66398824,-0.0550580928,-1.09519196,-0.92955684,-2.0337091,3.86367002
19,1778415369350,-3.692779711111112,-0.7913673377777778,-0.7161054666666666,-1.0061163333333334,-1.625710611111111,4.335250766666666
20,1778415369360,-3.5571403599999996,-1.12690724,-0.45364844,-0.80738734,-1.38578336,4.65966496
21,1778415369370,-3.0234182,-1.2758671333333331,-0.2916430333333333,-0.198372632,-1.0082797533333334,4.822435666666666
22,1778415369380,-2.52460461,-1.18279464,-0.382385131,0.2093068208,-0.68611891,4.621792579999999
23,1778415369390,-2.245872933333333,-1.1351475666666666,-0.5020211833333333,0.34487419,-0.3947854833333333,4.271018533333333
24,1778415369400,-2.15851012,-1.17782484,-0.566496496,0.28883913,0.0627798299999999,3.72535884
25,1778415369410,-2.0908028777777776,-1.3154697555555557,-0.6294405444444444,0.0534321716666666,0.4273470266666666,3.4329530444444445
26,1778415369420,-1.9280698333333337,-1.4234232,-0.6268895666666666,-0.2766968372222222,0.6705999777777778,3.2896075333333332
27,1778415369430,-1.6732500600000002,-1.51538716,-0.5209938000000001,-0.8031114500000001,0.881108985,3.2080934
28,1778415369440,-1.4134699666666668,-1.573072822222222,-0.3838367555555555,-1.0906253888888888,0.9363949,3.2025279777777778
29,1778415369450,-1.2381637,-1.59582486,-0.29286466,-1.41263005,0.859149056,3.22990081
30,1778415369460,-0.9588737444444444,-1.6100261666666666,-0.1392730311111111,-1.7061557777777778,0.6315058,3.310783711111111
31,1778415369470,-0.687686438,-1.62462835,-0.0639701925,-1.8746139,0.2705289865,3.4157816500000004
32,1778415369480,-0.4446600799999999,-1.61047,-0.0252148846666666,-2.0351987777777776,-0.3174115038888889,3.493630611111111
33,1778415369490,-0.33934907,-1.59660536,-0.009610316934,-2.15096109,-0.7670561699999999,3.50539267
34,1778415369500,-0.1729572459999999,-1.5628045666666666,0.01073233322,-2.3840605888888886,-1.191330322222222,3.4358715444444443
35,1778415369510,0.0642567959999999,-1.5122376,0.0878404914999999,-2.8195945,-1.5589585,3.2212266499999997
36,1778415369520,0.1798817744444444,-1.471295211111111,0.3593874944444444,-3.3193355,-1.3712587888888887,2.9674874666666664
37,1778415369530,0.206780365,-1.4473101,0.6296251350000001,-3.66317465,-0.9279534,2.8089048
38,1778415369540,0.20092636,-1.4403585,0.7267497,-3.7401414000000006,-0.6814765,2.7792788
39,1778415369550,0.421609956,-1.37457107,1.09519196,-3.50716435,0.4079390679999999,2.65399382
40,1778415369560,0.5423080666666666,-1.3379303111111112,1.2539790333333332,-3.130108711111111,0.9642902766666666,2.506162
41,1778415369570,1.0151629,-1.19392328,1.58287896,-1.67445452,1.83455762,1.79263816
42,1778415369580,1.3586869666666666,-1.0634766666666668,1.7234441333333332,-0.2547742055555556,2.3977452444444447,0.8767863888888889
43,1778415369590,1.6748639333333333,-0.9298205444444444,1.6190444,1.291797757777778,2.917169022222222,-0.4615459777777777
44,1778415369600,1.86269709,-0.855556082,1.40891759,2.36500208,3.29658231,-1.6927111699999997
45,1778415369610,1.7770413333333333,-0.9469590555555556,1.0320114333333334,3.515519277777778,3.851298499999999,-3.5251231666666665
46,1778415369620,1.39041034,-1.21164386,0.7771917,4.175522920000001,4.33348782,-4.91225032
47,1778415369630,0.57185925,-1.6959323333333334,0.4829617888888888,4.700096411111111,4.700444355555556,-5.999911466666667
48,1778415369640,0.251014642,-1.77856724,0.3460933599999999,4.83723834,4.4469223,-5.80194932
49,1778415369650,-0.0005962477777777,-1.8081475555555555,0.2280078733333333,4.869911922222222,4.278212999999999,-5.648199022222221
50,1778415369660,-0.349203296,-1.7564012999999998,0.092054152,4.77603158,3.3986167199999997,-4.94792396
51,1778415369670,-0.6120682066666667,-1.7141040666666667,0.0619040213333333,4.602632333333333,2.277136766666666,-4.0636103666666665
52,1778415369680,-0.631216693,-1.58399177,0.1524723080999999,4.47134089,0.809502425,-3.13870124
53,1778415369690,-0.5648093833333333,-1.4568024666666666,0.2411827633333333,4.572497133333333,-0.4375448166666666,-2.7231825333333335
54,1778415369700,-0.5416271444444445,-1.404739822222222,0.2716350844444444,4.767017988888889,-1.0589291888888888,-2.7374356
55,1778415369710,-0.6283842350000001,-1.3767724,0.197377375,5.43794542,-2.24116803,-3.14517619
56,1778415369720,-1.4312454,-1.835669544444444,-0.3155129955555555,7.011440444444444,-4.261151644444444,-4.269881777777778
57,1778415369730,-2.5722172,-2.61072566,-0.72273732,8.9237608,-6.458900219999999,-5.8248564
58,1778415369740,-2.998518511111111,-2.8033479888888895,-1.0041304444444443,8.978682833333332,-6.343232977777777,-6.1295470000000005
59,1778415369750,-4.31325792,-2.9986812,-2.11712668,7.802184200000001,-4.55593571,-6.5960508
60,1778415369760,-4.543043088888889,-2.813484088888889,-2.4671732333333334,6.7811683333333335,-3.5040744666666668,-6.452074
61,1778415369770,-4.53870386,-2.39980466,-2.6798759199999997,4.54850628,-1.6099948599999998,-6.01715088
62,1778415369780,-4.047221077777778,-1.7514978,-2.3446117111111113,2.502870333333333,0.1321720666666666,-5.475940266666666
63,1778415369790,-3.54176754,-1.172995224,-2.0123674,1.5532166,0.99178685,-5.12641352
64,1778415369800,-3.274374688888889,-0.8628483933333333,-1.819520088888889,1.2511679,1.1568428466666667,-4.797289066666667
65,1778415369810,-2.998122166666666,-0.4950186866666666,-1.4361407,1.4307824666666666,0.8006934766666666,-4.4588794
66,1778415369820,-2.8208964199999995,-0.3129267919999999,-1.18402026,1.90240744,0.388850082,-4.00437848
67,1778415369830,-2.5729754333333332,-0.16645281,-1.1719281,2.4904496666666667,0.0983718573333333,-3.362536033333333
68,1778415369840,-2.5083232,-0.174833378,-1.26998262,2.6006058,0.125452753,-2.99918365
69,1778415369850,-2.4915783111111107,-0.1999473033333333,-1.3121395666666666,2.5323266888888885,0.2738207588888889,-2.614248022222222
70,1778415369860,-2.3387708,-0.164497394,-1.34217586,2.1482124,0.73743007,-1.8640462
71,1778415369870,-1.9379315555555552,0.0428717433333333,-1.3531412777777778,1.595719722222222,1.18724958,-1.292875111111111
72,1778415369880,-1.57724448,0.281089576,-1.32293694,1.03156832,1.4751962,-0.93169473
73,1778415369890,-1.346047488888889,0.5142915222222222,-1.228259277777778,0.40555166,1.5724227,-0.6843016533333333
74,1778415369900,-1.28398966,0.585912228,-1.19109384,0.133073066,1.5611423800000002,-0.5721501
75,1778415369910,-1.1334400999999998,0.7782567733333333,-1.0943118333333333,-0.3647267333333333,1.4512712666666667,-0.3039474
76,1778415369920,-0.99524096,1.024449984,-0.99337502,-0.737506444,1.25034324,-0.0035734519999999
77,1778415369930,-0.7917230222222222,1.3678541666666666,-0.8159419444444445,-1.3014864133333337,0.7984198222222223,0.6220970377777779
78,1778415369940,-0.72804555,1.49319685,-0.70956885,-1.54964308,0.493060658,0.97170524
79,1778415369950,-0.691392,1.5720632666666663,-0.56708592,-1.6826720444444443,0.2707665335555556,1.2178257555555556
80,1778415369960,-0.6924150666666667,1.5746718444444443,-0.3194766311111111,-1.7809506333333336,-0.0922124888888888,1.7008617555555556
81,1778415369970,-0.69945544,1.52070458,-0.092700536,-1.62160092,-0.348931228,2.1669654
82,1778415369980,-0.6576298333333334,1.4454095,0.1124963933333333,-1.3503033333333334,-0.4684943866666666,2.4258017333333335
83,1778415369990,-0.65226365,1.4015604,0.184736385,-1.057262075,-0.48539449,2.50928425
84,1778415370000,-0.7022597777777778,1.3493605777777775,0.2168486988888888,-0.7381579944444445,-0.4471147288888889,2.5540118888888887
85,1778415370010,-0.8868261199999999,1.2580551400000002,0.173747942,-0.253593248,-0.25986969,2.60139998
86,1778415370020,-1.0758724222222222,1.1526316555555556,0.080685606,-0.0017476988888888,-0.0683215675555555,2.687040688888889
87,1778415370030,-1.37654376,0.970611562,-0.0005427132,0.3397837949999999,0.0921615865,2.8541074
88,1778415370040,-1.6344991555555557,0.8170090388888889,-0.1652840322222222,0.67127025,0.01488941,2.9906318666666665
89,1778415370050,-2.05410764,0.6445253999999999,-0.540031516,1.07133449,-0.4662139019999999,3.09325424
90,1778415370060,-2.233423,0.5869245,-0.6852839,1.2780452,-0.84518355,3.1372352
91,1778415370070,-3.2185047600000005,0.425957792,-1.58406196,1.34975864,-1.92190868,3.34577842
92,1778415370080,-4.482493777777778,0.0207600177777777,-2.0687657444444443,0.8665377333333333,-2.2829908,3.824489166666666
93,1778415370090,-5.078207600000001,-0.488497998,-1.99070155,0.1123653488,-1.7159082099999998,4.689596549999999
94,1778415370100,-5.128361333333334,-0.7521102688888889,-1.821739088888889,-0.2886423057777778,-1.0292522222222222,5.1537862
95,1778415370110,-4.6231358333333334,-1.0695848,-1.4018907,-0.99799718,0.7829534666666667,5.807935733333333
96,1778415370120,-3.97567425,-1.07064175,-1.2387766,-1.3572263,1.8753011,5.708673
97,1778415370130,-3.6944872777777777,-1.2385953333333335,-1.0472291666666669,-1.6186689333333333,2.3636734666666666,5.427377866666667
98,1778415370140,-3.58599578,-1.48951376,-0.8298532999999999,-1.73094258,2.44577132,5.4393504
99,1778415370150,-3.3581973111111107,-1.7768279666666666,-0.6289323888888889,-1.8397277,2.4733544,5.664522111111111
100,1778415370160,-3.2028912,-1.88092688,-0.56374938,-1.91670129,2.47613032,5.8159986
101,1778415370170,-2.7731088,-2.0251892333333332,-0.4531260233333333,-2.145219333333334,2.3986954,5.953113666666667
102,1778415370180,-2.17721248,-2.12160554,-0.3517217419999999,-2.43329484,2.26398324,5.68515556
103,1778415370190,-1.6617263777777778,-2.1747542666666666,-0.2387978077777778,-2.9097964,2.138678033333333,5.1180857
104,1778415370200,-1.4488863799999998,-2.2023936799999997,-0.184391862,-3.5606364,2.06472475,4.44373063
105,1778415370210,-1.2512417333333332,-2.1977198,-0.1122728133333333,-4.462442733333333,1.9334333333333331,3.793107
106,1778415370220,-1.16464115,-2.17774905,-0.0521066964999999,-5.013345559999999,1.7795813199999997,3.5141279600000006
107,1778415370230,-1.0819432000000002,-2.1748626333333334,0.1058395123333333,-6.057365,1.284102766666667,3.165334133333334
108,1778415370240,-1.0240807611111111,-2.1928482,0.2615396433333333,-6.717190444444444,0.6679190666666668,3.159429211111111
109,1778415370250,-0.977919895,-2.20526904,0.362310763,-7.06483051,0.219095648,3.23081686
110,1778415370260,-0.81714115,-2.2058604666666666,0.5879713133333333,-7.371441633333333,-0.8450477777777777,3.6072482333333338
111,1778415370270,-0.637854302,-2.15522336,0.742085956,-7.38558616,-1.46546078,3.87375658
112,1778415370280,-0.2355828533333333,-1.9871993,1.0566368333333331,-7.013010166666667,-2.4825341666666665,4.358395
113,1778415370290,0.075998345,-1.82127399,1.27738252,-6.563950800000001,-2.8170748800000003,4.4690804
114,1778415370300,0.4313158033333333,-1.5403440000000002,1.4776980333333334,-5.7194307222222225,-2.835400322222222,4.299550111111111
115,1778415370310,0.6080110599999999,-1.3630064000000002,1.57385402,-4.83986501,-2.69264526,3.97769235
116,1778415370320,0.8083398066666666,-1.0415106044444444,1.695441077777778,-3.4003405555555557,-2.296225777777778,3.1856957222222224
117,1778415370330,0.9017565288888888,-0.8624012711111111,1.7544214666666669,-1.9948149777777775,-1.9441996222222224,2.298677588888889
118,1778415370340,0.8854785,-0.8413448000000001,1.7409094499999995,0.07000308,-1.37222252,0.943881172
119,1778415370350,0.734467,-0.9902576222222224,1.5956553666666666,1.6274837111111111,-0.7975374133333334,-0.0640201666666666
120,1778415370360,0.6433820800000001,-1.1329655200000002,1.40369773,2.70444988,-0.2800276439999999,-0.7475854
121,1778415370370,0.5780045822222222,-1.3403289555555555,0.9778348444444444,3.9780323333333336,0.3853343444444445,-1.6325062888888888
122,1778415370380,0.4599841679999999,-1.52940634,0.389470905,4.7112814,0.50478892,-2.2893180600000003
123,1778415370390,0.3693305,-1.5708538666666665,0.0161798066666666,4.890137800000001,0.22705702,-2.6796088333333334
124,1778415370400,0.26046642,-1.55550852,-0.2587224085,4.65337348,-0.186201508,-2.88587152
125,1778415370410,0.2031927533333333,-1.5487998,-0.3439225022222222,4.3555616666666666,-0.5033805555555556,-2.9884937777777782
126,1778415370420,0.131721104,-1.53441272,-0.350063104,3.66708418,-1.05934661,-3.10467696
127,1778415370430,0.1927924088888889,-1.4552678666666663,-0.1952451222222222,2.844333988888889,-1.6976972555555556,-3.3277855555555553
128,1778415370440,0.2434525388888888,-1.3421785666666666,-0.00899104,2.246518122222222,-2.288488366666667,-3.8037373333333337
129,1778415370450,0.1859071783999999,-1.26407984,0.154856606,1.90900458,-2.84908322,-4.4294368
130,1778415370460,0.0631100468888889,-1.215965277777778,0.2837022044444444,1.9465241777777775,-3.128878311111111,-4.823691333333333
131,1778415370470,-0.21594553,-1.1643545,0.395242562,2.3104533600000003,-3.72503824,-5.847335599999999
132,1778415370480,-0.6503360666666667,-1.1663824222222223,0.35294403,2.542778955555556,-3.9945848888888897,-6.549097111111111
133,1778415370490,-1.99527808,-1.28351392,0.0302731118,2.73047204,-4.2839634,-7.7780556
134,1778415370500,-3.1574743333333335,-1.325358577777778,-0.371363138,2.5246572,-4.411997,-8.676652666666667
135,1778415370510,-3.40510122,-1.30354564,-0.436068134,2.31289678,-4.453534660000001,-8.9626106
136,1778415370520,-3.6181379222222225,-1.1835412666666667,-0.2610416522222222,1.7838775333333332,-4.503038533333334,-9.262251333333332
137,1778415370530,-4.14375702,-1.15396975,0.108116072,1.28525314,-4.57565816,-9.1660225
138,1778415370540,-4.717077422222221,-1.2401604444444445,0.4248147444444444,1.0806736222222222,-4.362552433333333,-8.503036444444446
139,1778415370550,-4.710681533333333,-1.1048002,0.5883880066666667,1.0366926333333335,-3.6851567777777774,-7.396588666666667
140,1778415370560,-4.588396,-0.945292912,0.63666522,1.01464785,-3.0362468399999996,-6.655059
141,1778415370570,-4.161320166666666,-0.5059136733333334,0.5437309,0.8970800999999999,-1.5285688333333334,-5.588743333333333
142,1778415370580,-3.464019120000001,-0.1227022798,0.323061542,0.70507044,0.16686821,-4.7489096
143,1778415370590,-3.0174727333333333,0.025225049,0.2644564966666666,0.6366555666666667,1.08962425,-4.367252266666666
144,1778415370600,-2.7298178,0.088303932,0.2110854959999999,0.657302214,1.54929194,-4.15965596
145,1778415370610,-2.2502736666666667,0.1765516255555555,0.0852895288888889,0.6998443244444444,1.9599035,-3.941415644444444
146,1778415370620,-2.00501036,0.215064379,0.0186992605,0.744958786,2.10253625,-3.73812564
147,1778415370630,-1.7578430444444446,0.2569459022222222,-0.0346937576666666,0.74864422,1.9381165333333332,-3.5537311999999996
148,1778415370640,-1.48024791,0.328436854,-0.0081315705,0.754060378,1.63371098,-3.31590798
149,1778415370650,-1.425276188888889,0.3476320777777777,0.0181345275555555,0.7658836600000001,1.435660733333333,-3.153354711111111
150,1778415370660,-1.28717567,0.40388027,0.05725334,0.8377464399999999,1.034332394,-2.75234032
151,1778415370670,-1.1531160333333332,0.4642649000000001,0.0872815149999999,0.9485949,0.5677061466666666,-2.359932066666667
152,1778415370680,-1.0500714111111111,0.5462581666666666,0.1753625288888889,1.0803343111111112,0.157216805,-2.0561372
153,1778415370690,-0.99543002,0.64325702,0.271040196,1.2902621,0.008170082,-1.77351864
154,1778415370700,-0.9218525333333332,0.81528126,0.38786816,1.4823735444444444,0.0996614266666666,-1.6073682222222223
155,1778415370710,-0.85594626,0.99664348,0.4701311,1.6145762,0.2689407769999999,-1.5333946
156,1778415370720,-0.779639,1.2044504333333332,0.4869593233333333,1.8091514333333332,0.8790601,-1.4648372
157,1778415370730,-0.7057254888888889,1.395078011111111,0.3635171522222222,1.8440376,1.6436202555555557,-1.4246146
158,1778415370740,-0.663916799,1.51354866,0.254499606,1.81395679,2.07510919,-1.38915833
159,1778415370750,-0.5824628466666666,1.7059634333333331,0.23394658,1.5815089666666666,3.3119629333333336,-1.1383647666666663
160,1778415370760,-0.62916273,1.7583547000000002,0.3719119333333333,1.516581011111111,4.038964333333333,-0.8243892555555555
161,1778415370770,-0.65080017,1.7693411,0.4317019999999999,1.4942851,4.461399,-0.6183301
162,1778415370780,-0.59937439,1.7639748333333332,0.6451697666666667,1.6069948777777778,4.9164805000000005,-0.3824752111111111
163,1778415370790,-0.4544655299999999,1.7157830399999998,0.979203508,2.05530252,6.02328221,0.068078927
164,1778415370800,-0.3961613166666666,1.4526999111111112,1.047825331111111,3.074351922222222,7.569194888888889,0.31735213
165,1778415370810,-0.384409624,1.218528423,0.903839343,3.80985444,8.2624112,0.33483593
166,1778415370820,-0.39377296,0.7953851811111111,0.443948689111111,4.876427444444444,8.200403733333333,0.0966326442222222
167,1778415370830,-0.759001618,0.2921756056,-0.2555271094,5.353465099999999,7.52023226,-0.1418081900999999
168,1778415370840,-1.9877582666666664,-0.3986919686666666,-1.4302867666666668,5.880592722222222,5.148297044444444,-0.60869232
169,1778415370850,-2.9384235666666663,-0.8216841777777778,-2.146561611111111,5.926949366666666,3.4709869,-0.6926498766666667
170,1778415370860,-4.8114211,-1.59731583,-3.12780455,4.9058976,1.39873328,0.2280598279999999
171,1778415370870,-5.523076422222222,-2.0156393333333336,-3.334195333333333,3.8296220222222224,0.7637202733333334,1.1107917777777778
172,1778415370880,-6.0486153,-2.8319184,-3.14661655,1.14797295,0.983731315,2.9570352
173,1778415370890,-5.834649577777778,-2.9605861777777776,-2.990039022222222,-1.0151093666666666,1.4124485666666666,4.115778555555555
174,1778415370900,-5.0535876,-3.0184688,-2.1756269799999997,-3.80249368,1.4651172,5.33868284
175,1778415370910,-4.705050977777778,-3.0697387333333332,-1.5362481288888887,-4.783205555555556,1.3077222,5.759203655555556
176,1778415370920,-4.0183351,-3.01398991,-0.3667195909999999,-5.679902,1.19793256,6.47256806
177,1778415370930,-3.3412349,-2.7784514444444444,0.07376785,-5.918499066666667,1.3944625000000002,6.7534002
178,1778415370940,-2.5124272000000003,-2.47727555,0.47939077,-5.98703622,1.61917282,6.76203338
179,1778415370950,-2.0847253,-2.317960433333333,0.6622540833333334,-5.942797355555555,1.725745311111111,6.678673133333333
180,1778415370960,-1.8159833666666667,-2.240168011111111,0.7391521888888889,-5.776918244444444,1.5549795777777775,6.5659719333333335
181,1778415370970,-1.6723843000000005,-2.2054641,0.7738561,-5.565429239999999,1.22968136,6.46203108
182,1778415370980,-1.4393557222222222,-2.2388433444444447,0.9320564,-5.215210333333333,0.6265511333333333,6.3868152
183,1778415370990,-1.28765444,-2.28720656,1.026986764,-4.8058408,0.117511755,6.433748800000001
184,1778415371000,-1.069096933333333,-2.2940362666666667,1.0385768333333334,-4.2010002,-0.5238778966666666,6.548689733333333
185,1778415371010,-0.893478938,-2.2672359999999996,1.0196630800000002,-3.685126990000001,-1.00168268,6.59873108
186,1778415371020,-0.7812752333333334,-2.2515644,0.99943832,-3.499535488888889,-1.1592948555555556,6.600951444444444
187,1778415371030,-0.638287236,-2.2444420000000003,0.975111776,-2.97230645,-1.58858465,6.5192675
188,1778415371040,-0.4127950844444444,-2.1679041777777774,0.9858332466666666,-2.5605953666666665,-1.7643050666666666,6.3027222
189,1778415371050,-0.27803452,-2.1117512599999997,1.032255404,-2.2484523199999997,-1.70354608,6.07072252
190,1778415371060,-0.1016014586666666,-2.0551301666666664,1.141875566666667,-2.0038418888888887,-1.5913673555555556,5.872753733333334
191,1778415371070,0.0278064988,-2.00041558,1.21021082,-1.32725655,-1.3653199500000002,5.340332399999999
192,1778415371080,0.1338153877777778,-1.9204881444444448,1.2396150111111113,-0.8244911199999999,-1.3014864000000002,4.948677533333334
193,1778415371090,0.29749702,-1.7448578666666663,1.1817559666666666,0.3186756288888888,-1.2346326,4.015463933333333
194,1778415371100,0.41258808,-1.59243129,1.0261178000000002,1.300570196,-1.15805948,3.111213
195,1778415371110,0.4425258,-1.5501819,0.9747215,1.6263045,-1.123119,2.7847762
196,1778415371120,0.412475294,-1.4452551,0.69007076,2.27044287,-0.8633867800000001,1.92390932
197,1778415371130,0.3785518833333333,-1.374091011111111,0.4520216355555556,2.6236822555555555,-0.5915461666666667,1.0467462
198,1778415371140,0.346245802,-1.3044785600000002,0.28904125,2.62931564,-0.368111824,0.358170296
199,1778415371150,0.34208297,-1.191594,0.1142139813333333,2.4736853222222224,-0.22198359,-0.1713256955555555
200,1778415371160,0.347611756,-1.1160286,0.0193730822,2.22554565,-0.195852905,-0.58503897
201,1778415371170,0.3510265911111111,-1.0456674,-0.0559212836666666,2.038626455555556,-0.2305354555555555,-0.8370813333333333
202,1778415371180,0.346587308,-0.959440156,-0.1338370784,1.65572439,-0.443307142,-1.25363421
203,1778415371190,0.3510265988888889,-0.8997408711111111,-0.1998321333333333,1.2664391,-0.8290979,-1.619992433333333
204,1778415371200,0.410853262,-0.8337559820000001,-0.29209022,0.74648589,-1.41711982,-2.08382909
205,1778415371210,0.4728426577777778,-0.7708342522222222,-0.2916735166666667,0.4796677999999999,-1.7211385,-2.3147292
206,1778415371220,0.4932879559999999,-0.74195485,-0.257621736,-0.177542766,-2.3256941,-2.91103845
207,1778415371230,0.3788093777777778,-0.8088073722222222,-0.0484784353333333,-1.026172477777778,-2.920647444444444,-3.789857611111111
208,1778415371240,0.1304588358,-0.8834082600000001,0.2642257873999999,-1.31684924,-3.03594152,-4.20343095
209,1778415371250,-0.0404190248888888,-0.8973694333333333,0.4765928444444444,-1.5310462666666664,-3.011120666666667,-4.764710466666667
210,1778415371260,-0.370771636,-0.799796676,0.701784844,-1.2534586,-2.7920301800000003,-5.5168671
211,1778415371270,-0.5831166866666666,-0.7235212311111111,0.7744997933333333,-1.0584456,-2.6955163,-5.8723803
212,1778415371280,-0.977386324,-0.6268628300000001,0.643924746,-0.369104461,-3.0987364,-6.5781605
213,1778415371290,-2.2073238333333336,-0.78811514,0.4740926933333333,0.8626690100000001,-4.558040366666666,-7.5901589
214,1778415371300,-3.0772630333333333,-0.9078476866666668,0.5326530466666667,1.3305780333333337,-5.014572433333333,-7.719862266666667
215,1778415371310,-3.71494232,-0.914931396,0.515554488,1.4592225,-4.33822948,-7.218091820000001
216,1778415371320,-4.0065953,-0.83212169,0.42275841,1.4382907666666669,-3.715427366666667,-6.8898989
217,1778415371330,-3.9701857,-0.610721595,0.2253729069999999,1.21805994,-2.47961218,-6.49849882
218,1778415371340,-3.5087379999999997,-0.2865309388888888,0.0060403266666666,0.863347788888889,-1.0217862444444443,-6.270245555555555
219,1778415371350,-3.17767629,-0.098761856,-0.011741538662,0.6520488799999999,0.235649596,-6.21738678
220,1778415371360,-3.124287933333333,-0.0400226599999999,0.0167591082266666,0.7738925333333334,0.58542074,-6.147261433333334
221,1778415371370,-3.15764146,0.032215294,0.0601315572,1.42017404,0.410229758,-5.76083924
222,1778415371380,-3.1393396333333334,0.0647598733333333,0.055226799,1.8618879,0.2751103433333333,-5.410986733333334
223,1778415371390,-2.98041174,0.123592576,-0.0231964738,2.35993202,0.2780424019999999,-4.91237272
224,1778415371400,-2.7421619444444447,0.1767955555555555,-0.1654093766666666,2.6753328333333335,0.6676815166666666,-4.391482766666667
225,1778415371410,-2.4395325,0.1891269,-0.284193405,2.7641907800000003,1.03271363,-4.130091040000001
226,1778415371420,-2.2315664666666666,0.1901025666666666,-0.3320755999999999,2.7887468,1.3490561,-3.9695146
227,1778415371430,-1.94214389,0.1982737739999999,-0.378113524,2.7765298,1.9733421,-3.7654915
228,1778415371440,-1.5386196333333333,0.2043987777777777,-0.4432744933333333,2.7449694,2.67602,-3.5865133999999994
229,1778415371450,-1.1593934555555556,0.23032509,-0.5381614466666667,2.6767581444444444,3.167276888888889,-3.4830765666666665
230,1778415371460,-1.00588792,0.2784491919999999,-0.555751918,2.5813642000000003,3.4164686000000004,-3.4017320999999994
231,1778415371470,-0.959507208888889,0.3484654777777777,-0.5136410855555557,2.477011055555556,3.508774444444444,-3.285908611111111
232,1778415371480,-0.978581504,0.4332814,-0.4406049939999999,2.4020193599999997,3.5752431099999997,-3.1586759
233,1778415371490,-0.9586128533333332,0.6304229777777777,-0.3329699833333333,2.2989151555555556,3.6606463777777782,-2.6770295
234,1778415371500,-0.8255359849999999,0.88148435,-0.21696389,2.3333602,3.64194775,-2.2221859000000004
235,1778415371510,-0.5607949222222222,1.2128180555555557,-0.1465227688888889,2.4522378666666667,3.5607729444444445,-1.7168456333333333
236,1778415371520,-0.34878558,1.44743205,-0.13776718,2.62784956,3.3923403,-1.31680344
237,1778415371530,-0.2412030866666666,1.5649897666666666,-0.0873628201666666,2.7361459999999997,3.2666415,-1.1323241644444444
238,1778415371540,-0.212384348,1.56673166,0.0781874817999999,3.0211742,2.953752,-0.7493569000000001
239,1778415371550,-0.2877573044444445,1.4835112777777777,0.2099241677777777,3.4032590333333332,2.692105733333334,-0.48088952
240,1778415371560,-0.528811334,1.26108574,0.3517705359999999,3.94634045,2.37955545,-0.221279425
241,1778415371570,-0.6752087633333334,1.1401478333333332,0.3738531244444444,4.462273144444445,2.0963259222222224,-0.0030712033333333
242,1778415371580,-0.94363738,1.02829175,0.245014295,4.97345731,1.81433856,0.183223636
243,1778415371590,-1.2529050666666668,0.9651308955555556,0.0851777388888889,5.333069666666667,1.4674248444444444,0.28151575
244,1778415371600,-1.9636342333333336,0.7968622288888889,-0.2108083666666666,5.442004166666667,1.183380788888889,0.4576434
245,1778415371610,-3.02529232,0.552334059,-0.5558677879999999,5.25591325,0.797163289,0.778188868
246,1778415371620,-3.417543488888889,0.4683369533333333,-0.6527142222222222,5.055270355555556,0.5658057655555555,0.9752515866666668
247,1778415371630,-4.762854,0.1932734825,-0.686625425,4.44132542,0.0213033019999999,1.55538511
248,1778415371640,-5.633082555555556,-0.0242798705555555,-0.4389619388888889,3.7713964222222223,-0.2854438277777777,2.317478044444444
249,1778415371650,-6.6329085899999995,-0.5010231270000001,0.160774618,3.2131634599999996,0.2252652,3.51075286
250,1778415371660,-6.484636566666667,-1.091618566666667,0.8535051133333333,2.839650766666667,1.6528254999999998,5.220097033333333
251,1778415371670,-5.7137236,-1.3810623400000002,1.20528984,2.6714641,2.83708015,6.196778350000001
252,1778415371680,-5.040283866666667,-1.3896034666666666,1.2852274,2.519566711111111,3.6518993777777777,6.633402733333334
253,1778415371690,-4.219862000000001,-1.3050700000000002,1.37392768,2.15212182,4.47624268,6.751893409999999
254,1778415371700,-3.633281166666667,-1.3275469666666666,1.4659797666666663,1.750484666666667,5.109711866666667,6.597404899999999
255,1778415371710,-2.92145103,-1.42016214,1.37471123,1.32049901,5.63819665,6.406443609999999
256,1778415371720,-2.596513311111111,-1.420763811111111,1.2450963333333334,1.0964877444444443,5.6515333000000005,6.369711333333333
257,1778415371730,-2.1188309199999997,-1.4169424,0.98057552,0.6660983899999999,5.32696969,6.29563612
258,1778415371740,-1.8646616888888887,-1.4323904444444446,0.8158165777777777,0.4254381444444444,5.008514822222222,6.224940666666667
259,1778415371750,-1.6252778200000002,-1.47828744,0.6966565,-0.1174354,4.2818103,6.0189833
260,1778415371760,-1.3647679888888888,-1.5688991,0.5791157722222222,-0.7825462533333334,3.494987933333334,5.7865562
261,1778415371770,-1.2248207555555557,-1.658464011111111,0.5016146444444444,-1.2643435577777775,2.9716700666666664,5.679657777777778
262,1778415371780,-1.16368372,-1.70965165,0.464536258,-1.59056995,2.60831783,5.62761341
263,1778415371790,-1.0655228444444445,-1.8286399111111111,0.4256041222222222,-2.239289766666667,1.8080060666666664,5.640359999999999
264,1778415371800,-1.0220291600000002,-1.94013146,0.473253204,-2.78392104,1.04810698,5.74758404
265,1778415371810,-0.9745080888888888,-2.0574269555555555,0.6955114400000001,-3.2449478222222226,0.3300187,5.943951122222222
266,1778415371820,-0.88154533,-2.1356580999999997,0.95653448,-3.50343815,-0.14118207,6.152759049999999
267,1778415371830,-0.7710070555555555,-2.1433363777777776,1.1025304444444446,-3.494241566666666,-0.2751951688888889,6.303061333333334
268,1778415371840,-0.4625392,-2.1186663,1.29299616,-3.2198827699999995,-0.358521528,6.548244370000001
269,1778415371850,-0.0693401055555555,-2.0799044444444443,1.3813272333333333,-2.559305811111111,-0.4434496577777778,6.5637319
270,1778415371860,0.364685895,-1.98311875,1.34689265,-1.65895436,-0.588627694,6.36099684
271,1778415371870,0.8898283333333333,-1.8021716111111112,1.2073062666666667,-0.4380284266666667,-0.9093225466666666,5.704702533333333
272,1778415371880,1.22136701,-1.6853361800000002,1.085694469,0.1190235879999999,-1.11090216,5.22567612
273,1778415371890,1.5737707,-1.6079393333333334,0.9424228633333332,1.0416473,-1.5067312,4.2014074
274,1778415371900,1.71694465,-1.60631325,0.8047420649999999,1.78646856,-1.86177844,2.99619058
275,1778415371910,1.7287627333333333,-1.5866237666666667,0.5849020133333334,2.3562669333333335,-2.1868841333333333,1.2848917266666666
276,1778415371920,1.6334824400000003,-1.5660853300000002,0.3256348619999999,2.42834693,-2.3542359,0.359514138
277,1778415371930,1.4213328666666667,-1.5413908333333337,0.125352841,2.1656825333333334,-2.633820633333334,-0.8535063333333333
278,1778415371940,1.24591418,-1.4828457,0.0023080609,1.73745576,-2.87858721,-1.53529586
279,1778415371950,1.0906767444444443,-1.3609432666666668,-0.0092010801111111,0.9701781777777776,-3.2312293333333333,-2.210478088888889
280,1778415371960,1.0260388333333337,-1.253674111111111,0.0511005416666666,0.2928842966666666,-3.5238251666666667,-2.7620731666666667
281,1778415371970,1.03933506,-1.1558053,0.123769415,-0.0818229955999999,-3.75032734,-3.1585537
282,1778415371980,1.0607292222222222,-1.0713328666666666,0.22793674,-0.4300873899999999,-4.238312933333334,-3.937394233333334
283,1778415371990,1.01189436,-1.0422254,0.3368245319999999,-0.5364155239999999,-4.5649763100000005,-4.5575316
284,1778415372000,0.638004688888889,-1.100009977777778,0.5718727777777777,-0.58212046,-5.0830552777777775,-5.748921200000001
285,1778415372010,0.1479812,-1.1139522000000002,0.8071811999999999,-0.50318544,-5.3827095,-6.818620699999999
286,1778415372020,-0.8883241777777778,-1.1210139,1.1079677555555554,-0.3996128928888889,-5.536167833333334,-7.576924177777777
287,1778415372030,-1.70164803,-1.13323684,1.24106329,0.0608098458,-5.69161536,-8.6205976
288,1778415372040,-2.5930712333333332,-1.1405137222222224,1.3174549222222225,0.46263196,-5.746435444444445,-8.877757222222222
289,1778415372050,-3.6042406,-1.09182592,1.3821782,1.5465354299999998,-5.470793779999999,-8.7987816
290,1778415372060,-4.135942533333333,-0.661126,1.1003284666666666,2.7044498333333333,-3.6667888,-8.276547666666666
291,1778415372070,-3.94676995,-0.304819635,0.68394237,2.8791521999999996,-2.08218735,-8.2178045
292,1778415372080,-3.5160451555555556,0.0162949855555555,0.1474035811111111,2.5802442333333335,-0.3427955722222222,-8.660974333333334
293,1778415372090,-3.368590733333334,0.096072679,-0.1834456706666666,2.2630108333333334,0.4329973766666666,-9.112882555555556
294,1778415372100,-3.5437800000000004,-0.0451550658,-0.500260896,1.70104164,0.7436759800000001,-9.7311328
295,1778415372110,-3.9259811666666664,-0.45352241,-0.6491740666666668,1.2230689444444445,-0.0373040888888888,-9.491013333333331
296,1778415372120,-4.1990926,-0.586387884,-0.58577806,0.757603316,-1.15353924,-8.5913374
297,1778415372130,-4.3172809999999995,-0.5511026133333333,-0.4387857213333333,0.4455282277777777,-1.7531910666666666,-7.773464044444444
298,1778415372140,-4.2986652,-0.368704426,-0.0704797208,-0.124215794,-2.40230964,-6.16925196
299,1778415372150,-3.8133388,-0.1042879206666666,0.22256718,-0.4794302611111111,-2.411268555555556,-4.912535666666667
300,1778415372160,-3.05054984,0.2518622684,0.455825392,-0.575387556,-2.1602918,-4.01645832
301,1778415372170,-2.328116977777778,0.5839263866666667,0.6011563666666667,-0.3429398173333333,-1.7002763555555556,-3.710379644444444
302,1778415372180,-1.88248804,0.75079384,0.6082489000000001,0.152253693,-0.9609391,-3.7731272
303,1778415372190,-1.6636641333333335,0.7805536666666667,0.4474041433333333,0.4111850666666667,-0.5563885288888889,-3.903203766666666
304,1778415372200,-1.5782527,0.8078825000000001,0.1053313499999999,0.5727880833333334,-0.2424130422222222,-3.999038888888888
305,1778415372210,-1.67154872,0.95525088,-0.364624936,0.377289814,-0.284059254,-3.85540828
306,1778415372220,-1.8323834,1.1524656,-0.4170060266666666,0.0326633622222222,-0.6009125244444444,-3.4128291333333336
307,1778415372230,-1.84707739,1.28889833,-0.298599724,-0.205886068,-0.852635902,-2.9386487700000004
308,1778415372240,-1.7533544111111112,1.494643377777778,0.0012399144444444,-0.37287135,-1.0463559333333334,-2.2080346333333334
309,1778415372250,-1.66670694,1.6793357,0.4847234,-0.273506858,-0.8977164200000001,-1.5855915
310,1778415372260,-1.7031989444444444,1.804278611111111,0.9503942,0.2496498799999999,-0.0185714555555555,-0.8776008333333334
311,1778415372270,-1.66611857,1.87032554,1.15731141,0.95368528,1.24261602,-0.1841398896
312,1778415372280,-1.5387076666666666,1.8206651000000005,1.1500265,1.602456,2.4548933,0.365541168
313,1778415372290,-1.47097606,1.76059044,1.11592492,1.7955092,2.8193655,0.52578676
314,1778415372300,-1.4136800555555555,1.6066045111111111,1.0029886666666668,2.2425814666666666,3.705772777777778,1.0741494511111112
315,1778415372310,-1.4614572,1.41605208,0.929462756,2.40757812,4.03062978,1.7418157
316,1778415372320,-1.5238524666666668,1.2967456444444443,0.9206600755555556,2.4100215333333335,3.7682913,2.5813641666666665
317,1778415372330,-1.7504985555555554,1.0658142000000002,1.077352857777778,2.4250890333333333,3.3050145333333334,3.2512600333333332
318,1778415372340,-1.86028845,0.942835489,1.21542462,2.47098396,3.00237532,3.5926981600000003
319,1778415372350,-2.047639833333333,0.7285045722222222,1.466603222222222,2.709404422222222,2.1817767333333333,4.409502666666667
320,1778415372360,-2.22829169,0.5941718779999999,1.6484040999999998,2.96283826,1.6380938,4.801381600000001
321,1778415372370,-2.7859315222222225,0.4386536377777777,2.0432289444444445,3.9982922333333337,-0.0688645533333333,5.424052111111111
322,1778415372380,-3.3182273,0.38741589,2.366632,4.626465619999999,-0.713362696,5.520959759999999
323,1778415372390,-3.664448433333333,0.3525544399999999,2.635539966666667,5.046989933333332,-0.9809952377777778,5.571537911111111
324,1778415372400,-4.03959852,0.2188267832,3.11374555,6.2815562,-0.4582729,5.77751544
325,1778415372410,-3.963205444444444,-0.1823683666666666,3.1455695666666665,7.1515705333333335,0.5252353133333334,5.9248111111111115
326,1778415372420,-3.58085525,-0.559721681,2.78602538,8.262946,2.31004104,5.8615682
327,1778415372430,-3.0658157777777775,-0.9665570444444443,2.181045277777778,8.68024988888889,3.3530424555555554,5.521312533333333
328,1778415372440,-2.80366974,-1.1527074599999998,1.78173497,8.597507400000001,3.74549411,5.25010988
329,1778415372450,-2.411136511111111,-1.3505496444444445,1.1053286933333333,8.159672566666666,4.513525133333334,4.633276333333333
330,1778415372460,-2.0574065666666663,-1.389864311111111,0.5838890600000001,7.085751699999999,4.860486,4.211384333333333
331,1778415372470,-1.73976005,-1.3640460600000002,0.166872534,6.31402256,4.94604524,3.9813648
332,1778415372480,-1.2446966666666668,-1.3002622,-0.3328683688888889,3.9723313333333334,4.9730855555555555,3.350556666666667
333,1778415372490,-1.0360787500000002,-1.29909419,-0.498407149,3.10565438,4.9878275599999995,3.15837052
334,1778415372500,-0.8237371111111111,-1.2807896,-0.7749910111111111,1.012504793333333,4.946072822222223,2.834051311111111
335,1778415372510,-0.71790778,-1.2588417799999998,-0.98082552,-0.353527845,4.72100945,2.713918
336,1778415372520,-0.72815226,-1.3569897666666666,-0.9663572,-2.5870398666666663,3.5475209666666667,2.785387033333333
337,1778415372530,-0.7282985959999999,-1.50274014,-0.72718272,-4.154944850000001,2.4165118,2.9790257
338,1778415372540,-0.7052952333333333,-1.5994734333333334,-0.4891647733333333,-5.1897583,1.429255333333333,3.2549251666666668
339,1778415372550,-0.66924028,-1.70744722,-0.160149598,-6.06621714,0.501734656,3.5787556799999996
340,1778415372560,-0.6065089555555555,-1.8421704555555556,0.31182376,-6.895727644444444,-0.6023378088888889,4.121556177777778
341,1778415372570,-0.4999133299999999,-1.98015212,0.8129072,-7.263478000000001,-1.45102183,4.8160419
342,1778415372580,-0.2271982273333333,-2.0120076,1.2707346666666668,-7.1292748,-1.7545314333333333,5.328624333333334
343,1778415372590,0.1040846595555555,-1.8751737222222224,1.4397215333333333,-6.6482833333333335,-1.8207066,5.5861982
344,1778415372600,0.36701836,-1.7166031700000002,1.46679903,-6.26142861,-1.84620186,5.58088379
345,1778415372610,0.7481127388888889,-1.448675333333333,1.437983611111111,-5.185142922222222,-2.012113888888889,5.081231155555556
346,1778415372620,1.096548801,-1.18162081,1.39403258,-3.38392586,-2.37702046,3.7880624
347,1778415372630,1.1976343333333332,-1.1107254,1.3846336777777777,-2.5172253,-2.5544105,3.121964
348,1778415372640,1.31241804,-1.14530773,1.39872495,-0.636838828,-2.4679146,1.4569012339999998
349,1778415372650,1.4101872666666668,-1.4653632111111112,1.4804150444444444,0.8897753333333333,-1.8940591333333332,-0.1031822733333333
350,1778415372660,1.5578348,-1.9505406,1.5180917,2.1568252,-0.93406187,-1.64336998
351,1778415372670,2.1396371,-2.6106400333333335,1.1598644333333334,3.3488936,0.1590493533333333,-3.5989846666666665
352,1778415372680,2.63212005,-2.949669,0.403529635,3.80122615,0.27144525,-5.4539497
353,1778415372690,2.8360394,-3.082944133333333,-0.2448279711111111,3.952411,0.1040731,-6.7232904
354,1778415372700,1.89767165,-3.265846,-0.63122585,2.78801375,-2.0797898800000003,-9.1765519
355,1778415372710,0.6025555,-3.3864881333333336,-0.1153624399999999,0.9718410555555556,-4.085914977777779,-10.522845111111112
356,1778415372720,-0.81425488,-3.3241633800000003,0.685277816,-1.2028422500000002,-5.55838942,-10.6274898
357,1778415372730,-1.9393814888888887,-3.143127144444444,1.347297488888889,-2.5002572222222224,-6.258121711111111,-10.265610222222222
358,1778415372740,-2.8695271,-2.80177935,1.9157521,-3.85087282,-6.80732744,-9.4698884
359,1778415372750,-3.7003309777777775,-2.392802222222222,2.398530922222222,-4.461289166666667,-6.979667777777778,-8.88787
360,1778415372760,-4.415938644444444,-1.8515613888888889,2.9602507,-4.810422133333334,-6.826141666666667,-7.984766466666667
361,1778415372770,-4.61865373,-1.378354888,3.39292071,-4.50664791,-5.6392655,-7.47935141
362,1778415372780,-5.089900666666667,-0.3952195322222222,4.106073122222222,-4.050290688888889,-4.637170644444444,-7.374258444444444
363,1778415372790,-5.4647397,0.077001455,4.301562049999999,-3.38536128,-3.62681402,-7.327250359999999
364,1778415372800,-5.568471888888889,0.3380448111111111,4.271875355555555,-2.6702763888888885,-2.7143676666666665,-7.172678955555556
365,1778415372810,-5.42390784,0.65844088,3.78125128,-1.08608644,-0.5094619092799999,-6.694488959999999
366,1778415372820,-5.0791884666666665,0.6662380666666666,3.098727666666667,0.1530002833333333,1.3233666227555556,-6.115904777777778
367,1778415372830,-4.748728099999999,0.59654092,2.4932614,1.183669315,2.77446815,-5.443871
368,1778415372840,-4.287191155555556,0.4877961066666667,1.753002,1.5995714444444444,3.276431877777778,-4.937308844444445
369,1778415372850,-3.5595795800000003,0.4071152299999999,0.8117485799999999,1.95622299,3.638099420000001,-4.15931255
370,1778415372860,-2.657488966666667,0.4649017944444444,-0.0052340333333333,1.7975452777777778,3.3792156111111114,-3.2303214444444444
371,1778415372870,-1.98035029,0.6066207400000001,-0.43261974,1.2081261,2.87990044,-2.6722582299999997
372,1778415372880,-1.6460276111111112,0.7696621111111112,-0.5499710833333333,0.8269684444444445,2.5295524222222223,-2.466423
373,1778415372890,-1.39707845,0.96373007,-0.5442238149999999,0.34467058,2.04560531,-2.23635761
374,1778415372900,-1.2837639333333335,1.0985295666666668,-0.5029866666666667,0.19806723,1.911442833333333,-2.1420632
375,1778415372910,-1.2170984500000002,1.26281755,-0.5058069150000001,0.07040015,1.71098315,-1.93600405
376,1778415372920,-1.1785851,1.433610066666667,-0.4941345233333333,-0.0263173366666666,1.465728,-1.5413458333333334
377,1778415372930,-1.1247882,1.52463474,-0.466524189,-0.130996197,1.31264971,-1.12667721
378,1778415372940,-1.046778522222222,1.6011401666666665,-0.4529261566666666,-0.21174342,1.2023849555555557,-0.8084393722222223
379,1778415372950,-0.985223462222222,1.673434322222222,-0.4250586722222222,-0.2561316577777777,1.1247394666666666,-0.5731953277777778
380,1778415372960,-0.923736878,1.78564692,-0.3346963619999999,-0.259457382,1.04790854,-0.2457133179999999
381,1778415372970,-0.906899122222222,1.8584452111111112,-0.2458951,-0.1187588884444444,1.0013483444444444,0.0810899644444444
382,1778415372980,-0.932203728,1.8739447,-0.172598481,0.1708234424,0.97448463,0.548510268
383,1778415372990,-0.9809108666666666,1.8339383,-0.1684854333333333,0.3155535266666667,1.0248999333333333,0.7894691666666667
384,1778415373000,-1.06226322,1.75870026,-0.205896152,0.43849672,1.12169889,1.06162966
385,1778415373010,-1.1416621333333332,1.6578102,-0.3114917433333333,0.4882196766666666,1.1877924999999998,1.4907981666666668
386,1778415373020,-1.2720255,1.50075835,-0.378040365,0.43055569,1.1638473,1.95707826
387,1778415373030,-1.4968014,1.3245115777777778,-0.3229897166666667,0.1815743466666667,0.8786529066666666,2.8483044
388,1778415373040,-1.80445282,1.12630964,-0.18074225,0.0047340675,0.52067095,3.5529549000000005
389,1778415373050,-1.9551445666666665,1.0367000977777778,-0.0908657343777777,-0.0945964827777777,0.2066275711111111,4.103604066666667
390,1778415373060,-2.06687365,0.95911087,0.0513597026499999,-0.155246828,-0.132202616,4.9059588
391,1778415373070,-1.9797802,0.93599976,0.214250305,-0.1321975277777777,0.0045049977777777,5.611582222222222
392,1778415373080,-1.88049694,0.906199182,0.365646341,-0.1077839992,0.529711458,5.7211343
393,1778415373090,-1.9827986333333336,0.8425287933333334,0.43121418,-0.0764068115555555,1.2829319088888889,5.523959577777777
394,1778415373100,-2.0766726666666666,0.8006022422222222,0.4354657766666666,-0.069483876,1.4419049,5.4683046
395,1778415373110,-2.39289568,0.654879676,0.311493786,0.03167242962,2.03552638,5.346013000000001
396,1778415373120,-2.7046802,0.5823815666666667,0.0221964233333333,0.1087477844444444,2.0773897111111115,5.481811222222222
397,1778415373130,-3.03087808,0.417719504,-0.206859634,0.05561764658,1.88709036,5.730236
398,1778415373140,-3.2661933,0.25577374,-0.3875158377777777,-0.3256324852333333,1.8735703333333331,6.148381333333334
399,1778415373150,-3.33551176,0.153222369,-0.425762642,-0.5339721159999999,1.8362679399999997,6.36211172
400,1778415373160,-3.3214811777777777,-0.0810514761111111,-0.2426191544444444,-0.6968918555555556,1.5047543444444444,6.621931955555556
401,1778415373170,-3.1471501500000003,-0.26868945,-0.175116925,-0.7505785599999999,1.45228936,6.70155922
402,1778415373180,-2.8614575999999996,-0.43610268,-0.2214356833333333,-1.2252577666666666,1.5995035333333334,6.411071
403,1778415373190,-2.7254455799999997,-0.488138238,-0.209591494,-1.486115,1.61575208,6.15624088
404,1778415373200,-2.5762477666666665,-0.5611506133333334,-0.099589139,-1.8972152666666664,1.5797528,5.498032599999999
405,1778415373210,-2.5261259600000003,-0.615968843,-0.0011342131,-2.0848675,1.53799123,4.93460752
406,1778415373220,-2.4612919666666664,-0.7923429833333333,0.107374152,-2.0820982555555556,1.4927410222222222,4.364571733333333
407,1778415373230,-2.35614978,-0.99327138,0.169942846,-1.94669386,1.51007552,3.97632558
408,1778415373240,-2.154861433333333,-1.1842866333333333,0.21150625,-1.8173300222222224,1.6721265111111112,3.706544744444445
409,1778415373250,-1.94488166,-1.27833076,0.223842338,-1.74939021,1.9399287,3.5584753300000003
410,1778415373260,-1.6244579,-1.361217688888889,0.2347156,-1.6882375666666667,2.463173688888889,3.3647417777777777
411,1778415373270,-1.1901845666666666,-1.3472432444444444,0.1934869,-1.6319039000000002,2.935901688888889,3.141782555555556
412,1778415373280,-0.71819432,-1.25800634,0.0796387928,-1.5933187,3.2274115,2.8412796
413,1778415373290,-0.5587826,-1.2148575,0.027318668,-1.5856831,3.3001022,2.665661
414,1778415373300,-0.357203766,-1.16590948,-0.008799293,-1.61952407,3.2727973999999995,2.30013008
415,1778415373310,-0.1569129437777777,-1.1236529666666666,-0.0381594062888888,-1.6988934999999998,3.1278434666666666,1.7707698
416,1778415373320,-0.0029727339999999,-1.1017411,0.0248947467,-1.77290785,2.8740364,1.3495525
417,1778415373330,0.0710915486666666,-1.0649299666666667,0.0876169033333333,-1.7861768222222223,2.6000713,1.0524728722222223
418,1778415373340,0.114683518,-1.02212058,0.14916114,-1.7481685499999997,2.28090355,0.787840245
419,1778415373350,0.1421187188888888,-1.0022535888888888,0.2020680177777777,-1.6805681,2.0640867333333333,0.63125972
420,1778415373360,0.210987918,-0.989161356,0.307243534,-1.49527775,1.8551431,0.456761
421,1778415373370,0.2658793366666667,-0.9669703511111112,0.3359308444444444,-1.3061865555555556,1.7507221555555557,0.3375100666666666
422,1778415373380,0.360972272,-0.934170324,0.331263222,-1.03185842,1.59669362,0.15170391636
423,1778415373390,0.4905367333333333,-0.9139557666666666,0.3059426433333333,-0.66119125,1.3462055333333334,-0.1579549197
424,1778415373400,0.517054543,-0.918885965,0.300901702,-0.5538857500000001,1.26023895,-0.26238944
425,1778415373410,0.5457906455555556,-0.95943608,0.2543542833333333,-0.2828731777777777,0.9611342,-0.6048915155555555
426,1778415373420,0.5467391844444445,-1.008236357777778,0.2037754444444444,-0.1691877222222222,0.7259156444444445,-0.8533027377777778
427,1778415373430,0.5601241100000001,-1.07731282,0.188931762,-0.180291564,0.50295638,-1.2209920200000002
428,1778415373440,0.5560249833333333,-1.1705526333333334,0.2004148166666666,-0.2548420777777778,0.3209238777777778,-1.6331171
429,1778415373450,0.5462514,-1.2487923,0.2157442999999999,-0.3193204,0.2140255999999999,-1.9158461
430,1778415373460,0.5083426755555556,-1.2928328666666669,0.2883772644444444,-0.4319877722222222,0.0555446777777777,-2.3824655444444445
431,1778415373470,0.365573165,-1.55831653,0.508172963,-0.917095538,0.0241742768,-3.81875744
432,1778415373480,0.1276395673333333,-1.5890765,0.54664775,-1.5798292511111112,0.589085811111111,-4.939802977777777
433,1778415373490,-0.1124760704,-1.55477366,0.5385984699999999,-2.05823464,0.941208724,-5.55571692
434,1778415373500,-0.58880466,-1.4237619,0.4641632466666666,-3.0190702444444444,1.2139232222222225,-6.4406038
435,1778415373510,-0.94926265,-1.31309495,0.345431735,-3.5798780700000004,0.884178539,-6.767660699999999
436,1778415373520,-1.282656088888889,-1.2064051333333332,0.2598932044444444,-4.174869466666666,-0.5244208755555556,-6.800223111111111
437,1778415373530,-2.298758688888889,-0.9275913888888888,0.8323486688888889,-4.469976666666667,-2.4546133333333335,-6.541868666666667
438,1778415373540,-2.96381314,-0.58087839,1.7150512499999997,-3.94614972,-3.7838018,-6.4039394000000005
439,1778415373550,-3.3579974333333333,-0.2106897888888889,2.4095138555555553,-2.2958949222222222,-4.327903777777778,-6.580691555555556
440,1778415373560,-3.72077503,0.068674739,2.6907270700000003,-0.9353599,-4.05929378,-6.8095574
441,1778415373570,-4.193967577777778,0.2662147211111111,2.538901466666667,0.9114689888888888,-1.4916380755555556,-7.246659266666667
442,1778415373580,-4.6598848,0.311204131,1.06624206,1.7857738399999998,0.9474011665,-7.66926388
443,1778415373590,-5.016614000000001,0.16644264,0.3372656,2.0257986333333333,1.4276518,-7.4938489
444,1778415373600,-5.03446781,0.143602887,-0.229095695,2.28956241,1.20367457,-5.9565167599999995
445,1778415373610,-4.803156533333333,0.2471383866666666,-0.5322769866666666,2.229414333333333,0.8640180599999999,-5.0578916666666665
446,1778415373620,-4.1088801,0.54924548,-0.910937254,1.7310648400000002,0.178718633,-3.506797740000001
447,1778415373630,-3.454889944444444,0.7334913444444444,-0.9847931888888888,1.1663025822222222,-0.0768734344444444,-2.839039888888889
448,1778415373640,-2.8055702333333334,0.8185233866666667,-0.9798539,0.1956917155555555,-0.3388590288888888,-2.050028833333333
449,1778415373650,-2.4498167900000003,0.800985747,-0.898064589,-0.5692790839999999,-0.4885709099999999,-1.57653566
450,1778415373660,-2.160393677777778,0.7809195222222223,-0.7492002166666667,-1.0342407666666666,-0.582112,-1.2806921333333332
451,1778415373670,-1.7880463,0.777895975,-0.4967667999999999,-1.51995598,-0.65435486,-0.936581532
452,1778415373680,-1.5329823555555555,0.8199462166666667,-0.2628439355555556,-1.8141399333333332,-0.5438322133333333,-0.6395061766666666
453,1778415373690,-1.23249266,0.901363596,0.031184742,-1.82269185,-0.26732203,-0.4674508699999999
454,1778415373700,-0.8834492166666666,1.0218041844444443,0.3400299777777777,-1.5081055333333333,0.3331408366666666,-0.33163916
455,1778415373710,-0.73553073,1.0738614,0.435074134,-1.290017772,0.6063270000000001,-0.31217349
456,1778415373720,-0.5591044466666667,1.1135067111111112,0.4483290088888888,-0.7600127655555556,1.0900569111111111,-0.3357114811111111
457,1778415373730,-0.469506057,1.1062626999999998,0.339214908,-0.335935453,1.35070543,-0.350107107
458,1778415373740,-0.4626625,1.0889625777777776,0.2567358388888889,-0.1326047611111111,1.4081047666666668,-0.2998072244444444
459,1778415373750,-0.496870472,1.07544688,0.2187688609999999,-0.0440115442,1.33732796,-0.109311117
460,1778415373760,-0.5382834333333333,1.0785283666666663,0.2338754399999999,-0.04172426,1.2788766333333337,0.0276747699999999
461,1778415373770,-0.6117226444444444,1.1005418555555555,0.2930794488888888,-0.06819431,1.1590147444444443,0.3304513888888889
462,1778415373780,-0.677752975,1.16544905,0.41095386,-0.064902523,0.97857727,0.8758022500000001
463,1778415373790,-0.7243207133333333,1.2408142666666668,0.47326948,0.0366678028888888,0.7660618622222222,1.325496088888889
464,1778415373800,-0.768172868,1.2732328,0.48261351,0.1912257384,0.477300792,1.75684252
465,1778415373810,-0.7959949555555556,1.2776286888888888,0.4704576477777777,0.2583374933333333,0.3444754433333333,1.9298616333333336
466,1778415373820,-0.883237515,1.2860049,0.3422760649999999,0.310707464,0.113602322,2.3234645
467,1778415373830,-0.91940322,1.2963866,0.2467318699999999,0.21998985,0.0292103761111111,2.5930382
468,1778415373840,-0.98806984,1.28378828,0.157990926,0.097094168,0.0556329150999999,2.73151046
469,1778415373850,-1.045183,1.2634274,0.11567748,-0.0935105311111111,0.1786643433333333,2.8917424222222223
470,1778415373860,-1.2567837,1.15360392,0.0952037269999999,-0.255975546,0.5688667890000001,3.2936732400000004
471,1778415373870,-1.3627217555555555,1.107761077777778,0.0153159337777777,-0.2692309333333333,0.8267308666666666,3.5908910333333335
472,1778415373880,-1.46576844,1.08547186,-0.0929017596,-0.17332791,1.0589037,3.83934304
473,1778415373890,-1.570748822222222,1.0770378444444444,-0.3454435777777778,0.0577080888888889,1.1263005,3.9518764111111113
474,1778415373900,-1.627473,1.0755202,-0.5142068,0.2005106,1.1157125,3.9815025
475,1778415373910,-2.09498204,1.015184302,-1.0824869,0.373319299,0.5830384399999999,3.97936446
476,1778415373920,-2.4762353333333333,0.9222794377777777,-1.3806327222222223,0.1967097788888888,0.2886847088888888,4.051817844444445
477,1778415373930,-2.9254938,0.7592272440000001,-1.6133014,-0.272529498,0.289282008,4.241845639999999
478,1778415373940,-3.4034811333333335,0.5555405533333333,-1.7043473333333334,-0.9336800466666668,0.6848361333333333,4.520066133333334
479,1778415373950,-3.6241079,0.3627589539999999,-1.55746894,-1.58898172,1.28479506,4.91560992
480,1778415373960,-3.5326757000000004,0.1686040033333333,-1.279004177777778,-1.9572140333333337,1.6816285888888889,5.207337055555556
481,1778415373970,-3.3848439,0.0588022106,-1.105533992,-2.0174910899999996,1.7717013899999998,5.26825223
482,1778415373980,-3.164425944444444,-0.0640077975555555,-0.9236446822222224,-1.9308118,1.8354942000000003,5.040915200000001
483,1778415373990,-3.09447938,-0.195980948,-0.810400956,-1.850913,1.98543696,4.392358160000001
484,1778415374000,-3.084471966666667,-0.33171652,-0.6909685222222222,-1.814207888888889,2.1244929333333333,3.981128977777778
485,1778415374010,-3.04632404,-0.496849133,-0.534208032,-1.74633596,2.35408318,3.79743883
486,1778415374020,-2.9443486,-0.68699133,-0.37755254,-1.6273565,2.728417122222222,3.7107527888888887
487,1778415374030,-2.67163769,-0.8022053330000001,-0.347767252,-1.51965056,3.0035359,3.70746111
488,1778415374040,-2.0064584555555554,-1.0236064777777778,-0.31294848,-1.415053111111111,3.2134978333333333,3.5087660777777776
489,1778415374050,-1.7134433333333332,-1.1456258,-0.2628405366666666,-1.4356861777777778,3.203452722222222,3.3054218111111116
490,1778415374060,-1.5068378299999998,-1.27383962,-0.171284393,-1.48416032,3.12112404,3.11817672
491,1778415374070,-1.2755046333333333,-1.4072230888888888,-0.0613247186666666,-1.5363402777777777,2.976964177777778,2.928461088888889
492,1778415374080,-1.04209124,-1.4922029799999998,0.0316664807999999,-1.59105854,2.74691902,2.7155063000000004
493,1778415374090,-0.6671188666666666,-1.4683953111111112,0.1040982111111111,-1.6321075444444444,2.4994173111111113,2.5915450222222223
494,1778415374100,-0.501919525,-1.4207079,0.114945725,-1.6935588,2.1893377000000003,2.4226661199999997
495,1778415374110,-0.3178302,-1.3509833111111111,0.1308274122222222,-1.7679192666666663,1.8914885666666668,2.210172733333333
496,1778415374120,-0.216829728,-1.30252116,0.163350994,-1.7927604,1.7949747000000005,2.1385
497,1778415374130,-0.1254680293333333,-1.2513535333333334,0.22961706,-1.8320581777777776,1.4539182444444445,1.885676977777778
498,1778415374140,-0.043850122,-1.20103956,0.318817376,-1.76563872,1.16360292,1.6743780999999998
499,1778415374150,0.098522014,-1.1257804333333334,0.4279382222222222,-1.5455029444444444,0.8418153777777778,1.434260833333333
500,1778415374160,0.213067316,-1.0709496900000002,0.4706859899999999,-1.31139744,0.642473868,1.2508013999999998
501,1778415374170,0.35329296,-1.0005970333333334,0.489866,-0.9658004833333332,0.4408535533333333,0.9568413566666668
502,1778415374180,0.4844049622222222,-0.9444317833333334,0.4623576166666667,-0.65155345,0.2987297622222222,0.5796091944444445
503,1778415374190,0.53652219,-0.926346695,0.43521444,-0.391339293,0.210177275,0.1377155089999999
504,1778415374200,0.5818937333333333,-0.9162323822222224,0.3408227488888889,-0.1754319411111111,0.1547055511111111,-0.4179043566666667
505,1778415374210,0.57050279,-0.932615382,0.251731144,-0.103691325,0.10798252,-1.019045944
506,1778415374220,0.57148658,-0.9371278533333334,0.2186611266666666,-0.13016137,0.0719018126666666,-1.323680566666667
507,1778415374230,0.54870579,-0.92651753,0.118970358,-0.3138227719999999,-0.0171189956,-1.9309951
508,1778415374240,0.4984233799999999,-0.8937717000000001,0.0363537473333333,-0.6442911288888888,-0.1286597059999999,-2.5262181888888886
509,1778415374250,0.4280432819999999,-0.84777506,0.0509541922,-1.005790592,-0.2759349889999999,-2.91610837
510,1778415374260,0.3828882133333333,-0.8270502622222222,0.125349455,-1.2256396,-0.35324789,-3.1418164666666666
511,1778415374270,0.3263774444444444,-0.8099591444444445,0.2739150311111111,-1.5524258222222225,-0.4203053322222222,-3.564115666666667
512,1778415374280,0.27658625,-0.804376175,0.387537865,-1.7365623500000005,-0.43011282,-3.98940535
513,1778415374290,0.157786986111111,-0.8097694444444444,0.5102398155555555,-1.7827831666666667,-0.4640148533333333,-4.6077229
514,1778415374300,-0.0158362895999999,-0.8427869360000001,0.63789086,-1.60926178,-0.595591368,-5.2137644
515,1778415374310,-0.1596874982222222,-0.904808861111111,0.7171183777777776,-1.3047188555555556,-0.9073542,-5.7018857222222215
516,1778415374320,-0.260600564,-0.961220691,0.7546598849999999,-0.99229088,-1.25774972,-6.1782924
517,1778415374330,-0.5205961,-1.0623451666666666,0.7374177055555555,-0.5216465833333334,-1.8758609111111113,-6.995159755555556
518,1778415374340,-1.17538873,-1.21277197,0.62767689,-0.198494813,-2.4830635,-7.6726845
519,1778415374350,-2.0559837222222224,-1.3118922666666666,0.5297057277777778,-0.1326047577777777,-3.1498508000000003,-7.948997777777777
520,1778415374360,-3.2752643,-1.35373756,0.43888538,-0.217308915,-4.245884800000001,-7.889168700000001
521,1778415374370,-4.091410833333333,-1.2749389555555557,0.4359705733333333,-0.3745002777777777,-4.829350033333333,-7.469211311111112
522,1778415374380,-4.68786492,-1.0989971200000002,0.505663664,-0.732864,-5.29877912,-6.481196199999999
523,1778415374390,-4.762334244444444,-0.7157091166666666,0.7266650388888889,-1.3300435222222222,-4.592705955555555,-5.319291722222222
524,1778415374400,-4.3485906000000005,-0.2656015388888889,0.9737898866666668,-1.888934777777778,-3.133900966666667,-4.436210144444445
525,1778415374410,-3.81222848,0.151063696,1.1577444,-2.12933718,-1.47976224,-4.03368388
526,1778415374420,-3.4084712444444443,0.4390703511111111,1.2826188888888888,-2.0525740999999997,-0.4727703333333333,-3.9249226
527,1778415374430,-3.1682337499999997,0.58889415,1.31530541,-1.63412334,0.51079811,-3.89047086
528,1778415374440,-2.961643122222222,0.6850128999999999,1.1594647,-0.7783805977777777,1.0667768333333332,-3.821214444444444
529,1778415374450,-2.86043518,0.6794786700000001,0.8744534400000001,0.03228327,1.23574397,-3.4780879399999995
530,1778415374460,-2.792276766666667,0.6862866777777777,0.7412085222222222,0.3106667333333333,1.3569972,-3.1342827333333334
531,1778415374470,-2.6293365399999997,0.7495559399999999,0.576179972,0.439229732,1.46041367,-2.8081717900000003
532,1778415374480,-2.4709673333333333,0.7966419933333334,0.4926405333333334,0.6139184777777777,1.6594344555555556,-2.1297105
533,1778415374490,-2.25868355,0.84061304,0.4286683049999999,0.70164968,1.82857128,-1.51012892
534,1778415374500,-2.0163642555555557,0.8832527311111112,0.3743409566666666,0.7223777666666666,1.9085922666666664,-1.1693143533333332
535,1778415374510,-1.5621202777777776,0.9626713533333334,0.3056445166666666,0.7121969888888889,2.0081604222222222,-0.6386238266666666
536,1778415374520,-1.3527741,1.011516336,0.277382022,0.697007248,2.0347934000000003,-0.464885292
537,1778415374530,-1.0811268555555555,1.1338974888888889,0.2197147144444444,0.6802293111111111,2.028114688888889,-0.2311887177777777
538,1778415374540,-0.8701880000000001,1.2673301,0.20597238,0.70018366,1.8844638,-0.016034742
539,1778415374550,-0.7788360722222222,1.338817988888889,0.2569018344444445,0.8263575588888888,1.5633278555555554,0.2846378582222222
540,1778415374560,-0.733503173,1.38537349,0.307414271,1.002491951,1.2810689,0.57709792
541,1778415374570,-0.7228673866666666,1.4032627666666668,0.33749936,1.1318490333333333,1.1571144333333332,0.7438592111111111
542,1778415374580,-0.7198590699999999,1.4050973,0.3691068899999999,1.2842758,1.048519394,0.93175586
543,1778415374590,-0.7043127777777777,1.3888615444444443,0.3481436,1.539055088888889,1.00711742,1.2591853444444443
544,1778415374600,-0.720968916,1.3462554,0.294504976,1.65867935,1.0552386500000002,1.43999605
545,1778415374610,-0.8537692866666666,1.1929116888888889,0.1283137155555555,1.699809788888889,1.1058032666666666,1.601497222222222
546,1778415374620,-0.8999474844444444,1.1349002333333331,0.0683237683333333,1.5391654666666668,1.1419111333333334,2.087528144444444
547,1778415374630,-0.94358556,1.06506826,0.0226354678,1.38543216,1.09812012,2.23757934
548,1778415374640,-1.0550819,0.9491000333333334,-0.0440879376666666,1.091329522222222,0.9712810444444444,2.4728369555555556
549,1778415374650,-1.2357581,0.84636035,-0.0806601925,0.95838879,0.908696393,2.59003825
550,1778415374660,-1.4601766777777778,0.7531029,-0.0615584688888888,0.631904538888889,0.7790084266666667,3.069159688888889
551,1778415374670,-1.62905242,0.642467385,-0.0047167381999999,0.69957284,0.648338024,3.3165800400000003
552,1778415374680,-1.7786471777777777,0.5770594333333333,-0.0599289737777777,0.8541850777777777,0.5453084444444445,3.5364578888888887
553,1778415374690,-1.94917472,0.57482622,-0.251953732,1.00939458,0.485241784,3.63409828
554,1778415374700,-2.3497712333333336,0.6127999666666667,-0.7394740666666667,0.9290478,0.3640904199999999,3.563199366666667
555,1778415374710,-2.7891415,0.537028275,-1.031112,0.505323408,0.245056654,3.53416376
556,1778415374720,-3.103474,0.45295325,-1.1775382,0.26342788,0.19692189,3.5385618
557,1778415374730,-3.5476216000000003,0.1509234364,-1.15586624,-0.5734557889999999,0.318785908,3.93453576
558,1778415374740,-3.646869266666666,-0.1666052513333333,-0.7063725266666667,-1.1750580555555556,0.3612397888888889,4.598118755555555
559,1778415374750,-3.39924708,-0.269088868,-0.522573196,-1.2085460600000002,0.5326435399999999,5.0082146199999995
560,1778415374760,-2.931986811111111,-0.42569555,-0.3910797611111111,-1.2274551666666669,0.92915805,5.092429888888889
561,1778415374770,-2.6555920888888886,-0.5735869888888889,-0.2888989777777777,-1.321321966666667,1.2782657333333334,4.725717922222222
562,1778415374780,-2.57833047,-0.70147692,-0.164299212,-1.37591813,1.49779748,4.35161477
563,1778415374790,-2.495518288888889,-0.8659244888888888,-0.0140285959999999,-1.422654788888889,1.8704483333333333,3.990758488888889
564,1778415374800,-2.29713095,-0.97520935,0.019635292,-1.44347786,2.20253208,3.80122608
565,1778415374810,-2.0233666444444443,-1.0621148333333332,0.0047563746666666,-1.4606629999999998,2.5261588666666666,3.6155286
566,1778415374820,-1.75032158,-1.1339380799999998,-0.0268125402,-1.5109153599999998,2.62413872,3.41370456
567,1778415374830,-1.5428914111111112,-1.1914447666666663,-0.0411677133888888,-1.5869726222222225,2.6148675333333333,3.247459077777778
568,1778415374840,-1.20093897,-1.28512074,0.00087809965,-1.73900586,2.53874242,3.01262244
569,1778415374850,-0.95217275,-1.3360265444444446,0.0632184555555555,-1.888323966666667,2.4498030333333336,2.7813148222222224
570,1778415374860,-0.6657400520000001,-1.32610792,0.1542224099999999,-2.08492849,2.34418741,2.4227270400000003
571,1778415374870,-0.5058662177777777,-1.3056520777777778,0.2025998955555555,-2.141554,2.317249,2.3144238
572,1778415374880,-0.264850808,-1.22668122,0.2389651639999999,-2.25101801,2.25091103,2.0108939500000003
573,1778415374890,-0.1272296444444444,-1.1579028444444444,0.2660588844444444,-2.318224811111111,2.1449222,1.7237346111111111
574,1778415374900,0.02828214,-1.09055746,0.350160678,-2.33403226,1.93974545,1.39332736
575,1778415374910,0.1712837111111111,-1.048350433333333,0.4436268277777777,-2.274718911111111,1.7626676777777777,1.1557485
576,1778415374920,0.3388155,-0.99583558,0.5315249,-2.08975412,1.46389554,0.75583186
577,1778415374930,0.4912142955555555,-0.9214121888888888,0.5930190111111111,-1.9455398666666663,1.3137628555555554,0.5318273755555556
578,1778415374940,0.6146462888888888,-0.8579328333333334,0.6311038999999999,-1.578692288888889,1.0534739777777775,0.0855695182222222
579,1778415374950,0.67409418,-0.834292596,0.60723054,-1.19287015,0.787038505,-0.292443117
580,1778415374960,0.7005794666666667,-0.8379655733333333,0.5941606666666668,-0.9692619,0.62207156,-0.5004366
581,1778415374970,0.69976642,-0.8754016800000001,0.581558315,-0.180169402,0.0626576558,-1.28109944
582,1778415374980,0.6665835766666667,-0.9117706733333332,0.5505707533333334,-0.0083991466666666,-0.0352000713333333,-1.5150794
583,1778415374990,0.5998368249999999,-0.97386775,0.47918956,0.21853061,-0.16897562,-1.9393636
584,1778415375000,0.5276561333333333,-1.0035206222222222,0.4034856033333333,0.2326818955555555,-0.2673220377777778,-2.242649277777778
585,1778415375010,0.4555906099999999,-1.0051044,0.33701663,0.166608585,-0.415147065,-2.49065335
586,1778415375020,0.38445332,-0.9821203333333334,0.2775466766666666,0.0512602666666666,-0.6093964666666667,-2.6584327
587,1778415375030,0.362173557,-0.970645076,0.2596005,-0.100759254,-0.86521928,-2.8144023
588,1778415375040,0.3312252777777777,-0.9085184822222224,0.2494861055555555,-0.2801583055555555,-1.1867150222222225,-2.988154477777778
589,1778415375050,0.299090618,-0.8417564399999999,0.313054852,-0.458715736,-1.63757464,-3.2498142999999997
590,1778415375060,0.1489890422222222,-0.8516926666666667,0.5404990222222223,-0.48526724,-2.0677434,-3.4676017
591,1778415375070,0.1135005188,-0.91394658,0.8708221220000001,-0.264710657,-2.47683289,-3.60807636
592,1778415375080,0.114305444,-0.9359082,0.98935646,-0.17638214,-2.5996132,-3.6445439999999993
593,1778415375090,0.2656587871999999,-0.943234876,1.134465578,0.58027435,-3.44917966,-4.2867199
594,1778415375100,0.31684774,-0.9720384,1.1333588,1.2035218,-4.188427,-4.892581
595,1778415375110,-1.1399953644444445,-1.349706111111111,0.8601585777777778,1.9854487444444449,-5.549640888888889,-6.173705999999999
596,1778415375120,-2.70726772,-1.6542855199999995,0.8129681559999999,2.592054,-6.3383805,-7.3281055
597,1778415375130,-4.9694903777777775,-1.7184200444444444,0.5688949866666666,2.218486977777778,-4.7254635,-7.287246666666667
598,1778415375140,-5.42814584,-1.5670791999999998,0.306810588,1.459023984,-2.54448416,-6.76511824
599,1778415375150,-5.200395,-1.0982957333333332,-0.0881047433333333,-0.1130576533333333,0.70255075,-5.527047866666667
600,1778415375160,-4.5390881,-0.76279452,-0.27494288,-1.211516298,2.22837076,-4.6594818
601,1778415375170,-3.734604655555556,-0.3597330622222222,-0.2616616222222221,-1.7724666999999998,2.352813888888889,-4.004621377777777
602,1778415375180,-3.54963393,-0.206130935,-0.1803215071,-1.73607378,1.903583262,-3.71699038
603,1778415375190,-3.184806511111111,0.1859627577777777,0.0472690191111111,-1.2817527222222225,0.6094134677777778,-3.1492145777777782
604,1778415375200,-3.02346302,0.3932058719999999,0.180632492,-0.99128294,0.1597823758,-2.7728648
605,1778415375210,-2.791101255555555,0.6022743155555556,0.3363949844444445,-0.8401695133333333,0.4580251562222222,-2.3545022888888893
606,1778415375220,-2.6227048099999997,0.73958889,0.4224941789999999,-0.711728704,1.022955344,-2.12829868
607,1778415375230,-2.3809317555555554,0.8518315222222221,0.5301664077777777,-0.4545212755555556,1.689841122222222,-1.9031539666666664
608,1778415375240,-2.2700512666666666,0.8881615466666667,0.5846377500000001,-0.1526269788888888,2.1540850111111114,-1.7328633222222225
609,1778415375250,-1.9808473,0.967388745,0.68661019,0.127941956,2.52603666,-1.5911196
610,1778415375260,-1.7794534666666668,1.008341372222222,0.6631484566666667,0.74905142,3.019316233333333,-1.3493616
611,1778415375270,-1.3087898,1.10244847,0.479793231,1.4777921900000002,3.3461602,-1.08153563
612,1778415375280,-1.152801,1.1505379777777778,0.3910390744444444,1.6798893333333331,3.337431911111111,-0.9635266888888888
613,1778415375290,-1.047866,1.1921732,0.30846313,1.7961199999999995,3.3257579999999995,-0.8883246
614,1778415375300,-1.0149203333333334,1.210195922222222,0.2775500744444444,1.8829960888888888,3.1970727555555554,-0.6966542888888889
615,1778415375310,-0.8807739830000001,1.31747327,0.2771106769999999,1.84859178,2.74667467,-0.276133498
616,1778415375320,-0.7427059233333333,1.3895221333333334,0.3371843,1.790758111111111,2.368899533333334,-0.0076864911111111
617,1778415375330,-0.62767991,1.43730943,0.418375034,1.7229405,1.87438474,0.212544304
618,1778415375340,-0.6282344877777777,1.4314419333333332,0.4975459777777777,1.695194477777778,1.5268805666666667,0.3536635866666666
619,1778415375350,-0.72955478,1.34848118,0.60348336,1.72214646,1.26970712,0.556206961
620,1778415375360,-0.8970983911111112,1.1943854222222223,0.6361990355555556,1.7744688888888889,1.0817765555555556,0.8844898444444445
621,1778415375370,-0.98781984,1.11860788,0.6310551200000001,1.80925325,0.86125645,1.245403
622,1778415375380,-1.1091636777777778,1.012772461111111,0.6544826266666667,1.8137667666666664,0.6657132155555555,1.4894407333333333
623,1778415375390,-1.2198273,0.91591728,0.6944714,1.8358251,0.2580066066666667,1.9389565
624,1778415375400,-1.3823215,0.797058735,0.7197981,1.91737315,0.0289388865,2.2747189000000003
625,1778415375410,-1.5797974333333336,0.6747853233333333,0.6179222200000001,1.9671572,-0.049860407,2.4402585
626,1778415375420,-1.69648918,0.58864412,0.5330005919999999,2.0182851800000003,-0.1376391617,2.87475411
627,1778415375430,-1.865501711111111,0.4917089111111111,0.4320373888888889,2.062110088888889,-0.4624538055555555,2.956220766666666
628,1778415375440,-2.11151332,0.423625318,0.2709487259,2.14454728,-1.2679203600000002,2.8024907999999997
629,1778415375450,-2.9929388222222224,0.3063424022222222,-0.0764814238888889,2.1471536,-2.4851811,2.4296703666666666
630,1778415375460,-4.21285862,0.075516605,-0.1856998528,2.00551852,-3.0248850000000003,2.5712851
631,1778415375470,-5.673437311111112,-0.4896627244444444,0.11172061,1.5048986666666666,-3.389642233333334,4.085524333333333
632,1778415375480,-5.496238249999999,-1.106369399,0.5870403740000001,1.24005051,-2.40127106,5.6762372
633,1778415375490,-4.936985133333334,-1.2878393333333331,0.6966565333333333,1.1220755,-1.6037030999999995,6.421659233333333
634,1778415375500,-3.73383384,-1.39556316,0.72100548,0.963825324,-0.245698046,6.96397932
635,1778415375510,-2.7226691333333335,-1.4275121999999998,0.8103928,0.9856529622222224,0.5564818677777779,6.582388177777777
636,1778415375520,-2.1301365700000003,-1.49545314,0.8671176280000001,1.1097568,1.181684025,6.0721271
637,1778415375530,-1.8673651333333336,-1.5614224333333333,0.81315718,1.249335411111111,1.5777166444444444,5.714340333333333
638,1778415375540,-1.446182022222222,-1.6693420555555556,0.6543606955555555,1.495125,2.1466190666666667,5.116660266666667
639,1778415375550,-1.19305745,-1.7234694999999998,0.51333787,1.5557516,2.3975755,4.7572785
640,1778415375560,-0.8256986066666667,-1.7233018,0.3788330666666666,1.4212125333333332,2.4636487999999996,4.383643666666667
641,1778415375570,-0.548763749,-1.65603863,0.34813007,1.1983906999999998,2.37393572,4.13897882
642,1778415375580,-0.33898321,-1.5601214666666667,0.3615861266666667,0.8838450600000001,2.2606439333333332,3.9046883666666665
643,1778415375590,-0.220927538,-1.50333772,0.363423628,0.77898294,2.2292871,3.8329902
644,1778415375600,0.0136694953333333,-1.3964433333333333,0.3283220033333333,0.3782671766666666,2.1134296666666668,3.5277702333333334
645,1778415375610,0.2299280564,-1.27901364,0.291681648,0.00772722,1.82270718,3.11683282
646,1778415375620,0.3727453233333333,-1.1899678,0.3167766133333333,-0.2747285466666667,1.3916118333333334,2.685004566666666
647,1778415375630,0.419777542,-1.15270142,0.347593457,-0.37197543,1.11068824,2.4721446800000004
648,1778415375640,0.4535596777777778,-1.1100173333333334,0.3942506577777778,-0.4810591788888889,0.4645408555555556,2.085220377777778
649,1778415375650,0.4656064299999999,-1.0730809,0.49112622,-0.440634668,-0.088588118,1.8661842
650,1778415375660,0.51258072,-1.0479372000000002,0.5736615133333334,-0.20529559,-0.7246430233333334,1.6883054666666668
651,1778415375670,0.62745535,-0.9944076,0.61027949,0.0450839233333333,-1.0716042444444445,1.5848008222222223
652,1778415375680,0.7321281199999999,-0.901558664,0.6053767800000001,0.538309155,-1.5874011,1.32786745
653,1778415375690,0.7769660833333334,-0.8325282266666667,0.5960307,0.98992888,-2.0223625999999997,1.0199622333333334
654,1778415375700,0.7817682,-0.7759446750000001,0.5910710299999999,1.50623475,-2.4954639,0.5764871
655,1778415375710,0.7270139833333333,-0.74962705,0.5480400933333334,1.9353932,-2.852979133333333,0.0744385333333333
656,1778415375720,0.65229415,-0.72652105,0.47307638,2.3102091600000003,-3.11529044,-0.415406672
657,1778415375730,0.5547986,-0.7165255666666668,0.3772882866666667,2.6518492444444446,-3.3211594666666664,-0.9478483333333334
658,1778415375740,0.48768087,-0.73458555,0.30456047,2.74415504,-3.41704896,-1.27624324
659,1778415375750,0.4014461733333333,-0.7609387133333334,0.2315074166666667,2.7901722,-3.543168633333333,-1.6810771333333332
660,1778415375760,0.2795102,-0.792863323,0.191761186,2.76547364,-3.67354372,-2.05817345
661,1778415375770,0.18897444,-0.81608415,0.19278565,2.732549,-3.7449517,-2.2890737
662,1778415375780,0.0341971184,-0.8688494500000001,0.264192246,2.60427101,-3.70830088,-2.58722828
663,1778415375790,-0.1505270766666666,-0.9539208222222224,0.4330605022222222,2.4653371444444447,-3.561494022222222,-3.009669833333333
664,1778415375800,-0.219860398,-1.00122304,0.5044318760000001,2.53891025,-3.32194005,-3.4371611
665,1778415375810,-0.3420931388888888,-1.0886407222222223,0.5853559555555555,2.7964842777777776,-3.085983388888889,-4.1099755
666,1778415375820,-0.654553425,-1.27313836,0.45630404,3.6097255,-3.250532,-5.59200144
667,1778415375830,-1.0712650555555556,-1.4416390555555556,0.2270796306666666,3.9606231666666663,-3.7185494444444447,-6.458216777777778
668,1778415375840,-1.8888967,-1.7099412399999998,-0.1009936965999999,4.1748812200000005,-4.3728033,-7.373369340000001
669,1778415375850,-3.110730155555556,-2.0111233555555557,-0.3160380833333333,3.8475487666666672,-4.732971766666667,-7.778096199999999
670,1778415375860,-4.191477511111111,-2.1393557,-0.29331657,3.1067945666666668,-4.575551533333333,-7.684229333333333
671,1778415375870,-4.6548752,-1.8779296,-0.15400289,1.7127012,-3.1203607,-6.6081838500000005
672,1778415375880,-4.2095648,-1.3298946333333332,-0.0971398166666666,0.2392654898888888,-1.3263445555555555,-5.3057175999999995
673,1778415375890,-3.93324483,-1.15249405,-0.105311028,0.0322221943,-1.10534342,-5.1320333
674,1778415375900,-3.4289942555555553,-0.7985526333333334,-0.0589397555555555,-0.2479870222222222,-1.1043185777777778,-4.924548511111111
675,1778415375910,-3.25867792,-0.476777824,0.20088368,-0.2451024599999999,-1.7495810500000002,-4.8033974
676,1778415375920,-3.1833463,-0.2637450686666667,0.3721558666666666,-0.06303604,-2.1270209222222225,-4.552542722222222
677,1778415375930,-2.89183632,0.2007921982,0.5580752499999999,0.207107754,-2.1679884,-4.141193240000001
678,1778415375940,-2.6419326888888888,0.4702544022222222,0.6582904444444444,0.3923166611111111,-1.972917777777778,-3.962252422222223
679,1778415375950,-2.39249948,0.6996444800000001,0.74819,0.69370872,-1.57490168,-3.910384599999999
680,1778415375960,-2.136510133333333,0.9311688222222224,0.7796423833333334,1.0483666333333332,-1.0522608,-3.9768448
681,1778415375970,-1.96239502,1.1371578100000002,0.638418345,1.62651832,0.061924636,-4.1794477
682,1778415375980,-1.865308777777778,1.2327040333333334,0.4302757799999999,2.0437167777777776,1.0995844555555554,-4.301213233333333
683,1778415375990,-1.7852688799999998,1.29128876,0.201091002,2.3435002,2.01188653,-4.322782869999999
684,1778415376000,-1.705909111111111,1.3824892222222225,-0.0485902388888888,2.5380278888888888,2.6913590333333333,-4.191328566666666
685,1778415376010,-1.6975075555555557,1.4817328333333333,-0.2321714,2.6547676666666664,3.0117145333333335,-3.897740066666666
686,1778415376020,-1.7060447,1.5600606,-0.3228846749999999,2.7476368399999997,3.1004775,-3.5179152100000004
687,1778415376030,-1.698158,1.6737561666666665,-0.34216427,2.961005644444444,3.0318726000000003,-2.4323512666666667
688,1778415376040,-1.59195255,1.7429827,-0.3092101049999999,3.0630172,2.9934570000000003,-1.90607245
689,1778415376050,-1.488105,1.777878,-0.28626668,3.1344864,2.969023,-1.5444509
690,1778415376060,-1.3618233,1.8108342,-0.278583308,3.1864084000000004,2.97421525,-1.20050575
691,1778415376070,-1.1969702333333334,1.812697233333333,-0.3234436599999999,3.284890544444444,2.9857874666666664,-0.1012139888888888
692,1778415376080,-1.0905362200000002,1.72090523,-0.36894225,3.18433148,2.83549188,0.63268502
693,1778415376090,-1.1090789888888888,1.6160122666666663,-0.3127452188888889,3.0062084,2.631563988888889,1.171426877777778
694,1778415376100,-1.15125317,1.51933253,-0.231635473,2.8464718400000004,2.4841936799999997,1.53626561
695,1778415376110,-1.2321010444444445,1.3743586333333333,-0.1069642294444444,2.630401644444445,2.284399033333333,2.044497288888889
696,1778415376120,-1.3101950444444443,1.2750032555555555,-0.0770302383333333,2.4677126666666664,1.955016611111111,2.4873615555555557
697,1778415376130,-1.52408894,1.12623036,-0.0525823359999999,2.1807095,1.16164824,2.99637378
698,1778415376140,-1.7336038777777778,1.044034482222222,0.0042448288888888,1.9871116555555557,0.6604107344444444,3.172324944444444
699,1778415376150,-2.40089628,0.87758781,0.309383882,1.59854144,-0.257059797,3.34663368
700,1778415376160,-3.0457875999999997,0.7372686466666667,0.6762386,1.2720045333333332,-1.0255192222222222,3.5527472
701,1778415376170,-3.8000754,0.43537298,1.29954536,1.2355912999999998,-1.0556204,3.8876993
702,1778415376180,-3.977860777777778,0.1093864688888888,1.6514073333333332,1.3698080222222222,-0.8088041777777778,4.3293460222222215
703,1778415376190,-3.8327999,-0.20121601,1.80740725,1.62199035,-0.42003385,4.57219165
704,1778415376200,-3.501122333333333,-0.4581330888888889,1.7093002444444445,1.8558473555555557,0.0478751555555555,4.6887956
705,1778415376210,-3.01794432,-0.8181453000000001,1.43722408,1.9879261500000005,0.6447111,4.6601536
706,1778415376220,-2.674048255555556,-1.1888126444444442,1.2401265444444445,1.6260500333333334,0.9615754333333332,4.197131466666667
707,1778415376230,-2.37734907,-1.59157459,1.12455645,1.1781717,1.14167355,3.84860505
708,1778415376240,-2.282728,-1.7017896555555554,1.0832305333333334,0.7873990933333334,1.2854601555555556,3.651568611111111
709,1778415376250,-2.0430764999999997,-1.84109825,0.90515955,0.303010774,1.4023219999999998,3.55578766
710,1778415376260,-1.799939077777778,-1.846760877777778,0.6752325222222223,-0.0576741666666666,1.4486242666666669,3.6169538666666665
711,1778415376270,-1.4345044333333332,-1.791222366666667,0.3693203333333333,-0.7939487533333334,1.2254614666666666,3.7354582
712,1778415376280,-1.12405339,-1.74234252,0.213634413,-1.35230892,0.8809792099999999,3.75370224
713,1778415376290,-0.8518993,-1.6835129333333334,0.1505677266666666,-1.928164777777778,0.5239966444444444,3.719169044444444
714,1778415376300,-0.684841789,-1.62225326,0.1207905837999999,-2.40006462,0.2655811158,3.667450619999999
715,1778415376310,-0.4431220588888889,-1.4883625777777776,0.0849947955555555,-3.073842711111111,-0.0641813855555555,3.568493422222222
716,1778415376320,-0.259085235,-1.37776325,0.073571365,-3.736277719999999,-0.356017058,3.42360044
717,1778415376330,-0.0282401297777777,-1.2642708,0.0900628422222222,-4.570902177777778,-0.7843702955555556,3.1837953999999997
718,1778415376340,0.0428988445,-1.2378008,0.1220040699999999,-4.9832920000000005,-1.0464577,3.0675985999999997
719,1778415376350,0.1192752533333333,-1.2126893,0.1733095722222222,-5.274394666666667,-1.251532688888889,2.990971111111111
720,1778415376360,0.2668296049999999,-1.15703395,0.317991125,-5.7646879,-1.65870994,2.8503812
721,1778415376370,0.4557413566666666,-1.0185925944444445,0.5575528555555556,-5.8971195,-1.7995306333333332,2.7039408666666667
722,1778415376380,0.53199444,-0.937774216,0.705035056,-5.783257600000001,-1.70818856,2.5249219199999997
723,1778415376390,0.7227793111111112,-0.7433089355555555,1.0140937133333334,-5.333511333333334,-1.374584466666667,2.222185933333334
724,1778415376400,0.7862891222222222,-0.677902,1.1058301,-4.930012777777778,-1.1358110555555556,1.986398888888889
725,1778415376410,0.99179565,-0.45377647,1.37294297,-3.77470778,-0.691677609,1.35170575
726,1778415376420,1.2347975999999998,-0.2349425733333333,1.6159784666666666,-1.8873399333333332,-0.58889915,0.4203138177777777
727,1778415376430,1.28288582,-0.208573146,1.5216619999999998,1.05830812,-0.72875602,-1.066127004
728,1778415376440,1.2321146,-0.35117905,1.2704094666666663,3.1253236,-0.5614789222222222,-2.316358288888889
729,1778415376450,1.1848405,-0.4548466899999999,1.21257988,4.1573042,-0.242765984,-3.06411676
730,1778415376460,0.9771403466666668,-0.8782016444444445,1.0278512888888889,5.682406533333333,0.4826202466666667,-4.2417742333333335
731,1778415376470,0.5845767900000001,-1.5446938,0.772758455,7.2080358,1.1877925,-5.1167621500000005
732,1778415376480,0.2972734477777778,-2.0644395666666666,0.4194282544444444,8.1498984,1.6911306000000002,-5.454153333333334
733,1778415376490,0.2021459499999999,-2.2357097,0.23135497,8.6512,2.0564172,-5.543744
734,1778415376500,0.1882901266666666,-2.2514118444444446,0.1818669866666666,8.674548,2.0927287,-5.540486222222222
735,1778415376510,0.060466942,-2.1885666,-0.8430858320000001,8.12061856,2.66506548,-5.468243800000001
736,1778415376520,0.0630253566666666,-1.9701825555555552,-1.3034568666666668,7.028959866666666,2.946353866666667,-5.498270111111111
737,1778415376530,0.0396974366666666,-1.7044287,-1.201127,5.119816166666666,3.1783401,-5.7750517666666665
738,1778415376540,-0.1089301345,-1.63173536,-0.905827241,3.98853485,3.25135679,-5.98618091
739,1778415376550,-0.2075425933333333,-1.6464340333333334,-0.7641333355555555,3.6879140666666665,3.1994483999999996,-6.0343224555555555
740,1778415376560,-0.738061364,-1.84495522,-0.1642961799999999,3.26154252,2.50514568,-5.9994365
741,1778415376570,-1.2251731777777777,-2.0696770777777775,0.3439360755555555,3.6585254666666662,1.851919111111111,-5.8770633
742,1778415376580,-1.7671916500000002,-2.1196665,0.280885307,4.80671895,0.410756575,-5.6940126499999995
743,1778415376590,-2.457253811111111,-2.1025244555555553,-0.1147052011111111,6.6049217,-2.0615755222222223,-5.484763688888888
744,1778415376600,-3.37658708,-2.1966098599999997,-0.663819228,7.082506650000001,-2.69795965,-5.4038603
745,1778415376610,-4.135776333333333,-2.3029223888888892,-1.2116289666666666,7.1308526444444436,-2.7700397,-5.324450111111111
746,1778415376620,-5.0159328,-2.43558425,-1.74104665,5.80799672,-1.41867754,-5.0622746
747,1778415376630,-5.4095332,-2.422173833333334,-1.7762723333333332,4.410571733333334,0.1598638333333333,-4.559262133333333
748,1778415376640,-5.090317333333333,-2.0399971333333333,-1.7728575666666666,3.440996022222222,1.2639108888888888,-3.9506801444444446
749,1778415376650,-4.41748354,-1.51497566,-1.7206674199999998,2.5226618000000003,1.83052602,-3.19801448
750,1778415376660,-3.9201273333333337,-1.197864643333333,-1.544500633333333,2.0431059333333335,1.8607426,-2.7832491666666663
751,1778415376670,-2.9841193400000003,-0.664240002,-1.035792144,1.6247391999999998,1.7467177499999995,-2.40635645
752,1778415376680,-2.4024675,-0.3121422166666667,-0.7014840133333333,1.465778933333333,1.6652714333333334,-2.1797321333333333
753,1778415376690,-2.0626387,-0.037252173,-0.468435864,1.5179096399999998,1.64006382,-2.1593298599999997
754,1778415376700,-1.8830062333333335,0.1857730383333333,-0.2626813111111111,1.6413720333333337,1.6758594666666666,-2.2043695999999997
755,1778415376710,-1.78282964,0.371643636,-0.09200537,1.8750415,1.79802888,-2.2387398000000003
756,1778415376720,-1.7346811444444443,0.4942293666666667,-0.0306691341111111,2.149054,1.909813922222222,-2.1879444666666665
757,1778415376730,-1.62650951,0.66782553,0.0127324508,2.5742783000000005,2.06826777,-1.98798714
758,1778415376740,-1.5170431,0.77757924,0.0247981963333333,2.7943123111111112,2.1593111666666664,-1.8206896444444445
759,1778415376750,-1.33934648,0.962275656,-0.0070430908,3.07535634,2.26459404,-1.53345562
760,1778415376760,-1.2353668666666668,1.0634766666666666,-0.0366179866666666,3.224077277777778,2.2812090888888887,-1.3714962777777775
761,1778415376770,-1.101673377777778,1.1461305333333334,-0.04968108,3.4690270222222224,2.2094006666666663,-1.130288008888889
762,1778415376780,-0.9015465,1.2202236,-0.09384694,3.74289022,2.14181372,-0.8852704039999999
763,1778415376790,-0.7824101833333333,1.260530777777778,-0.4392397455555555,3.921393444444445,2.2060748555555554,-0.5611820000000001
764,1778415376800,-0.736177113,1.31205515,-0.755495343,3.81405402,2.26422759,-0.360735842
765,1778415376810,-0.7753230111111111,1.3902031222222222,-0.9741015533333334,3.4311545333333333,2.283991911111111,-0.1817100951111111
766,1778415376820,-0.90987018,1.50303892,-1.2007224,2.8344382799999996,2.2080295199999997,0.0776692252
767,1778415376830,-1.1066736888888888,1.6071499666666669,-1.206174688888889,2.0246108777777776,1.9260352444444448,0.5869393388888889
768,1778415376840,-1.2994660999999998,1.73394265,-1.11872385,1.11647608,1.4938269,1.3376409500000002
769,1778415376850,-1.378650922222222,1.7936243333333333,-1.013368788888889,0.5107531599999999,1.1498520555555556,2.027257777777778
770,1778415376860,-1.40446002,1.79939158,-0.9476864,0.126659188,0.94630164,2.5003046099999997
771,1778415376870,-1.4021346,1.7881226,-0.8810168466666667,-0.352917,0.7489241666666666,3.0352236
772,1778415376880,-1.4490784,1.7677556500000002,-0.82097777,-0.78759588,0.6028909560000001,3.4068632
773,1778415376890,-1.7373506666666667,1.6687932333333333,-0.6281328577777778,-1.3750341333333334,0.35309518,3.984446522222223
774,1778415376900,-2.15075352,1.53153444,-0.35300841,-1.87363658,0.067300098,4.70169138
775,1778415376910,-2.3613979333333335,1.4657765,-0.2155139396666666,-2.0048601666666666,-0.1145423444444444,5.2019751111111106
776,1778415376920,-2.7162966444444443,1.3363787666666669,0.0726871683333333,-1.9530059333333336,-0.6725173999999999,6.609189233333333
777,1778415376930,-2.94019285,1.2829773,0.263213526,-1.46763684,-1.07730548,7.73205902
778,1778415376940,-3.3588038,1.2132314,0.5050091366666667,-0.8323642,-1.2615777444444445,8.597276555555556
779,1778415376950,-3.5845841999999997,1.2263368,0.29199875,-0.508072196,-1.28487142,8.813136199999999
780,1778415376960,-4.0750954,1.2552155333333337,-0.18816139,-0.1873773944444444,-1.4522978,8.994395222222222
781,1778415376970,-4.431496180000001,1.18096223,-0.42098492,-0.2230508699999999,-1.6606798399999998,9.1055035
782,1778415376980,-5.0684392222222225,0.8952317888888888,-0.5823815111111111,-0.9279533333333334,-2.068990566666667,9.855155
783,1778415376990,-5.9269403,0.271479264,0.256621692,-1.85848756,-2.5127507600000003,11.4220192
784,1778415377000,-5.750071133333333,-0.0023476999999999,1.00781292,-1.8622612555555556,-2.5774869666666667,12.518152666666666
785,1778415377010,-5.571071860000001,-0.083916484,1.26583001,-1.72520069,-2.59417663,13.1291085
786,1778415377020,-4.548059944444445,-0.0248456233333333,1.5778122111111113,-0.9145994888888888,-2.6591368,13.612485222222222
787,1778415377030,-3.7337848,0.119537466,1.66648746,0.0218377999999999,-2.7547684,12.973709
788,1778415377040,-3.284893511111111,0.1479490155555555,1.7434960444444445,0.6833514277777778,-2.5880750000000003,11.859048333333334
789,1778415377050,-3.20704685,-0.14252355,1.81033425,1.04299114,-2.0030292,10.7410464
790,1778415377060,-3.186266455555556,-0.4033026522222223,1.8423025666666664,1.2264625444444444,-1.4088598222222224,9.986011777777778
791,1778415377070,-2.9674496666666665,-0.7419843666666667,1.8221185,1.3927487444444444,-0.6854809266666666,9.533577777777776
792,1778415377080,-2.45807025,-1.1375054,1.5818911,1.7615689500000002,0.38143595,8.822887
793,1778415377090,-2.2314715,-1.29224,1.4093505,1.9854826999999995,0.88725567,8.371127
794,1778415377100,-1.13810908,-1.46201519,0.720417024,2.13330766,0.986090754,7.28406332
795,1778415377110,-0.6293253533333334,-1.4171762,0.3048958466666667,2.0892587333333332,0.9657834711111112,6.526063044444444
796,1778415377120,-0.407438416,-1.38095864,0.068912566,1.84682026,0.835547408,5.66096596
797,1778415377130,-0.28938682,-1.4160073888888889,-0.1609172433333333,1.354239888888889,0.5695387055555555,4.526615733333333
798,1778415377140,-0.3191771799999999,-1.50956978,-0.1933893299999999,0.805860292,0.319946524,3.4821196399999996
799,1778415377150,-0.5544937611111111,-1.6919788222222223,-0.0832060749999999,0.2271842772222222,0.303073571111111,2.5678577222222225
800,1778415377160,-0.7593796740000001,-1.84987008,-0.0485211252,-0.255181444,0.5047889160000001,1.97674752
801,1778415377170,-0.8030651255555555,-1.9089798666666669,-0.0665181111111111,-0.5634557,0.6194245666666667,1.6864728666666666
802,1778415377180,-0.7015551800000001,-1.9300821,-0.1489619433333333,-0.931864488888889,0.6146735,1.4103699333333335
803,1778415377190,-0.306231287,-1.85241298,-0.2040728859999999,-1.30106653,0.1869650659,0.994940361
804,1778415377200,0.1370574577777777,-1.7596894333333333,-0.1766735888888889,-1.437722333333333,-0.2046083779999999,0.5775051688888888
805,1778415377210,0.4022795799999999,-1.6997882,-0.127556222,-1.45019716,-0.460227596,0.213155142
806,1778415377220,0.6964329133333333,-1.6190984666666666,-0.0687540123333333,-1.3443984999999998,-0.7779903333333333,-0.5568381666666666
807,1778415377230,0.901583044,-1.57972628,-0.1204155622,-1.19678726,-0.93119084,-1.348934
808,1778415377240,1.0692697,-1.5675135222222225,-0.3277968844444444,-1.131857522222222,-1.1951990444444445,-2.663930422222222
809,1778415377250,0.9928628,-1.6166797,-0.43197641,-1.27720525,-1.35707355,-3.768278599999999
810,1778415377260,0.8684043,-1.6697621,-0.44124526,-1.3999856,-1.3845617,-4.2707386
811,1778415377270,0.5556391300000001,-1.76211199,-0.36027407,-1.64615701,-1.28658179,-5.0699711
812,1778415377280,0.0883994677777777,-1.8120299333333336,-0.2273574411111111,-1.8482117222222223,-1.1713081666666667,-5.836950822222223
813,1778415377290,-0.145496289,-1.7426169000000002,-0.149978265,-1.85885406,-1.10625966,-6.12160568
814,1778415377300,-0.26300314,-1.681226,-0.10665256,-1.8434607000000005,-1.0498173,-6.3433433
815,1778415377310,-0.3898296566666667,-1.4746998666666666,0.064597264,-1.6515867333333334,-0.7648231822222222,-6.8803883444444445
816,1778415377320,-0.478302302,-1.34098076,0.122507144,-1.54658889,-0.65649283,-7.13306191
817,1778415377330,-0.7000408333333333,-1.2277714888888889,0.1791669566666666,-1.321457788888889,-0.5855055888888888,-7.687012066666666
818,1778415377340,-1.143280136,-1.16683638,0.308700944,-1.13018966,-0.6682821999999999,-8.05220376
819,1778415377350,-1.5422952666666667,-1.06705418,0.4592849333333333,-0.9233126333333336,-0.7420182533333334,-8.210236888888888
820,1778415377360,-1.98819516,-0.845842068,0.6171915099999999,-0.71453859,-0.788741276,-8.2897014
821,1778415377370,-2.2320373555555557,-0.6385399822222222,0.5791869288888889,-0.54594475,-0.7950941,-8.365935
822,1778415377380,-2.65406352,-0.4022003019999999,0.38797385,-0.741049375,-0.777379486,-8.6548659
823,1778415377390,-3.3507544666666664,-0.22143567,0.2489169666666666,-1.178324377777778,-0.7673344311111111,-8.747239444444444
824,1778415377400,-4.333284666666667,-0.0163220899999999,0.5000156355555556,-2.447045588888889,-0.7820626555555555,-8.182749
825,1778415377410,-4.75466775,0.208548745,1.058659315,-3.15403345,-0.73797985,-7.171384999999999
826,1778415377420,-4.678064322222222,0.4031197255555555,1.3956369666666666,-3.202935233333333,-0.7040099555555556,-6.468838488888888
827,1778415377430,-4.25033322,0.836097556,1.85904146,-2.6843530600000003,-0.8669296799999999,-5.379914940000001
828,1778415377440,-3.562016733333334,1.3939024333333334,2.0609535666666665,-1.1127601211111111,-1.8183226444444445,-4.742109088888889
829,1778415377450,-3.2399268,1.5792689599999998,2.14886922,-0.6110610710000001,-1.98650584,-4.6428667699999995
830,1778415377460,-2.8023923777777777,1.625084688888889,2.1018399555555556,0.2459169333333333,-1.3180047333333331,-4.593062233333334
831,1778415377470,-2.42344616,1.6250582699999998,1.9000741299999997,0.523160148,-0.849581626,-4.61989878
832,1778415377480,-2.045620622222222,1.5324979222222224,1.5815049222222222,0.6764963888888889,0.1696373944444444,-4.862445944444445
833,1778415377490,-1.7227834999999998,1.3601220399999998,1.18030664,0.5160132350000001,0.9205086999999998,-5.0868305
834,1778415377500,-1.6441406333333335,1.1903031999999998,0.8216231333333334,0.07243631,1.441905,-5.2010586666666665
835,1778415377510,-1.7062987333333333,1.1105729,0.6942275,-0.2494802088888889,1.3605944222222222,-5.060292555555556
836,1778415377520,-1.74232116,1.090399,0.7140782700000001,-0.420049124,1.154990009,-4.8209289
837,1778415377530,-1.7778543777777776,1.0721866333333334,0.7588146333333333,-0.4634803555555555,0.8024496833333333,-4.3467552000000005
838,1778415377540,-1.75165096,1.12493455,0.851635061,-0.226044038,0.3573914589999999,-3.701070089999999
839,1778415377550,-1.6471659,1.1757054555555555,0.8777443011111111,-0.0436925488888889,0.2595676655555555,-3.409978466666667
840,1778415377560,-1.1397739100000002,1.31591516,0.8113613519999999,0.6657318560000001,0.504483482,-2.94261922
841,1778415377570,-0.9689692111111112,1.3416331555555556,0.7707021288888889,0.8906322333333334,0.6671554977777778,-2.9282915
842,1778415377580,-0.86530965,1.3348188,0.68564975,1.31683395,1.042410865,-3.0431646999999997
843,1778415377590,-0.8745835733333333,1.282707,0.4997141199999999,1.801583733333333,1.5152066555555554,-3.1104597
844,1778415377600,-0.919102424,1.25747582,0.322518812,2.17814398,2.06325879,-2.97823153
845,1778415377610,-0.96487338,1.2683057,0.1137261453333333,2.2218806,2.3789446,-2.656803733333333
846,1778415377620,-1.001814542,1.292612,-0.0004451495999999,2.1461354800000003,2.54399556,-2.29652606
847,1778415377630,-1.0406670333333332,1.348246,-0.0886840388888888,1.9483566666666663,2.671608388888889,-1.7167098666666667
848,1778415377640,-1.0558610333333334,1.4415272222222222,-0.0976276466666666,1.6918008333333332,2.7170825,-1.0847799222222223
849,1778415377650,-1.0168703,1.6167650999999998,-0.0099761912,1.2136924,2.733236,-0.0485318399999999
850,1778415377660,-1.0012474333333334,1.7453457666666667,0.1742276553333333,0.8046385555555555,2.7017434444444444,0.8626690444444445
851,1778415377670,-1.024614654,1.83967444,0.487638236,0.5978056800000001,2.6617669,1.47487544
852,1778415377680,-0.9786343466666668,1.8867259333333333,0.68894265,0.6465648444444444,2.662309877777778,2.004927866666667
853,1778415377690,-1.0081625,1.8172219,0.660239772,1.02906382,2.49170704,2.35950444
854,1778415377700,-1.1204109,1.7285865666666664,0.5521155866666666,1.368476,2.3141948333333335,2.6457068
855,1778415377710,-1.4269125,1.5975871,0.205835184,1.62654877,2.13063529,2.98886031
856,1778415377720,-1.6000629000000002,1.5326097333333335,-0.0889177833333333,1.453188622222222,2.0528202,3.1964873333333332
857,1778415377730,-1.7447358999999998,1.4388949,-0.35924351,1.1167814699999998,1.84811845,3.3721059499999995
858,1778415377740,-2.0402307666666664,1.3438792333333334,-0.5679802833333333,0.6364519223333334,1.5013607666666668,3.5399871
859,1778415377750,-2.59956038,1.24071882,-0.75966627,-0.2276933078,0.87500814,3.98878682
860,1778415377760,-3.1338584444444444,1.0309544777777775,-0.9180515444444444,-1.0051407,-0.0085264333333333,4.644000377777777
861,1778415377770,-3.4619635333333334,0.8988769633333332,-0.9446825177777778,-1.3245799111111112,-0.5269321222222222,5.017431644444445
862,1778415377780,-3.8879221,0.6816282140000001,-0.660133047,-1.70565358,-1.45859636,5.857780780000001
863,1778415377790,-4.064098933333333,0.5504894333333333,-0.2372191246666666,-1.6872873888888889,-1.770481411111111,6.691738311111111
864,1778415377800,-3.84450785,0.4450259749999999,0.392782043,-0.989816904,-0.8290571740000001,7.017001039999999
865,1778415377810,-3.407112811111111,0.4040852388888888,0.6568811111111111,-0.1725134511111111,0.6336522488888889,6.753154155555555
866,1778415377820,-3.05144944,0.378753807,0.465960101,0.248889716,1.53878536,6.3607526000000005
867,1778415377830,-2.8058038666666665,0.23615199,0.148453789,0.7079210644444445,2.690001644444445,5.509910111111111
868,1778415377840,-2.66454565,-0.00182938,-0.1690190064999999,0.817466335,3.1318139,4.965272
869,1778415377850,-2.4668615333333337,-0.2542899,-0.4996904177777778,0.7216990666666666,3.2834736555555555,4.543481833333333
870,1778415377860,-2.1769624800000003,-0.454166736,-0.73893337,0.362018626,2.99712204,4.296210759999999
871,1778415377870,-2.0540528,-0.51323116,-0.80218095,0.17852011,2.8102028,4.2209544
872,1778415377880,-1.71759722,-0.71398679,-0.901403215,-0.441123342,2.15940609,4.14032282
873,1778415377890,-1.398279411111111,-0.8351368155555555,-0.9834076555555556,-0.944039,1.6001143666666668,4.069057166666666
874,1778415377900,-1.0298009,-0.95118358,-1.00242133,-1.9253142,0.613252447,3.72674095
875,1778415377910,-0.8291947555555556,-1.0942982222222222,-0.9234177066666668,-2.9879847777777777,-0.1493606357777778,3.2376177444444445
876,1778415377920,-0.66758162,-1.19826496,-0.78382624,-3.778075,-0.5573523060000001,2.8392639
877,1778415377930,-0.6005634666666667,-1.3037176444444445,-0.4970682999999999,-4.1586482,-0.6491015666666667,2.6701406666666667
878,1778415377940,-0.6417346111111111,-1.3432627333333331,-0.1958718538888889,-4.820331666666667,-0.5658905999999999,2.4188109333333334
879,1778415377950,-0.6219509000000001,-1.32688846,0.258819974,-4.98109302,-0.35064159,2.23330336
880,1778415377960,-0.5989238022222223,-1.286751922222222,0.6798228444444444,-4.691035422222223,-0.0960811777777777,2.0818268
881,1778415377970,-0.546830685,-1.1974174,1.07538285,-4.0208638,0.236016115,1.97418195
882,1778415377980,-0.4536240244444444,-1.1090551888888889,1.2642573555555556,-3.3083402000000004,0.5255068211111111,1.878482566666667
883,1778415377990,-0.213744188,-0.92477957,1.3814464,-1.79825792,1.0017284400000002,1.6027868399999998
884,1778415378000,-0.0639468246666666,-0.8132486966666668,1.2827781333333332,-0.3549786066666666,1.3227897666666668,1.2183093333333332
885,1778415378010,0.022815356,-0.783326191,1.10471385,0.9418959269999998,1.57708549,0.8054936899999999
886,1778415378020,0.0291446546666666,-0.7993691355555556,0.9849083888888888,1.4712256555555556,1.6638461555555557,0.6208074422222222
887,1778415378030,-0.0101103455999999,-0.861782048,0.7267619,2.3701333,1.74916112,0.2827306548
888,1778415378040,-0.0662233766666666,-0.9299932666666666,0.4718161333333334,3.07218,1.7546586999999998,-0.030084228
889,1778415378050,-0.20550894,-1.03084062,0.27960472,3.4055805,1.77664924,-0.197456366
890,1778415378060,-0.2565258055555555,-1.0782844111111112,0.1836827966666666,3.5630976,1.8025084666666664,-0.2876581433333333
891,1778415378070,-0.2314464349999999,-1.08727681,0.125620132,3.5883458,1.8200194,-0.32145837
892,1778415378080,-0.16342418,-1.0697474333333334,0.0961336566666666,3.519320122222222,1.9024159111111112,-0.4409129355555555
893,1778415378090,-0.0623572982,-1.03130408,0.049966332,3.38707165,2.03198335,-0.720647035
894,1778415378100,0.0401852676666666,-1.0026194666666666,-0.02099716,3.2405021111111108,2.042978655555556,-1.1954450644444443
895,1778415378110,0.0374513691666666,-1.0103502333333334,-0.0566191566666666,3.1371332777777776,1.8435031333333332,-1.6572201444444443
896,1778415378120,-0.0064576932,-1.02182786,-0.068674738,3.08177027,1.67567624,-1.8894574900000003
897,1778415378130,-0.1060021199999999,-1.0232101,-0.0861635613333333,2.9058258666666665,1.1590826333333333,-2.379479233333333
898,1778415378140,-0.1544236499999999,-1.02063272,-0.1109211028,2.7729868,0.7282826200000001,-2.67415186
899,1778415378150,-0.2035281333333333,-1.0052212333333332,-0.053702322,2.641939766666667,0.2276678666666666,-3.0267736666666667
900,1778415378160,-0.250892688,-0.9614829,0.0015488715999999,2.5572357,-0.1298814,-3.3207948000000003
901,1778415378170,-0.42195552,-0.7671992,0.12796478,2.6166916,-0.8480341688888889,-4.367574877777778
902,1778415378180,-0.51533496,-0.6621118,0.17107704,2.6476412,-0.9026032,-4.4546037
903,1778415378190,-0.8157284777777778,-0.4760033977777777,0.1201594533333333,3.321745066666667,-1.7407196444444446,-5.196036411111111
904,1778415378200,-1.15298802,-0.4382206919999999,-0.013189792,4.35586028,-3.0648346,-5.9600978
905,1778415378210,-1.7504680333333331,-0.4554838866666666,-0.2698328266666666,4.9550912,-3.917618,-6.346397666666666
906,1778415378220,-2.3761448,-0.52187802,-0.513127532,5.2719783,-4.488360500000001,-6.5421131599999995
907,1778415378230,-3.3153153111111116,-0.6164147111111111,-0.7796762777777777,5.0452928,-4.363154533333333,-6.244589533333333
908,1778415378240,-3.5941364800000004,-0.554867752,-0.8428967399999999,4.78140678,-3.8580807,-5.883864
909,1778415378250,-3.2964931,-0.19962548,-0.8866269,4.355714288888889,-2.8035005777777777,-5.283251777777777
910,1778415378260,-2.882595,0.104353642,-1.0101077,4.1525548,-2.24226758,-5.0748578
911,1778415378270,-2.3689323333333334,0.445839,-1.243521111111111,4.0802134444444444,-2.3457043777777775,-5.127350000000001
912,1778415378280,-2.349354566666667,0.4751598166666667,-1.3127290666666669,3.961980733333333,-2.9368008666666667,-5.184769666666667
913,1778415378290,-2.47564745,0.46857916,-1.3742418,3.6118635,-4.2617667500000005,-5.053845
914,1778415378300,-2.953200933333333,0.4535223766666666,-1.087238266666667,3.0418412,-5.807452166666667,-4.237091266666667
915,1778415378310,-3.2233345200000003,0.4608561459999999,-0.7421591519999999,2.6500844999999997,-6.689311999999999,-3.3461450499999996
916,1778415378320,-3.4035524,0.39128299,-0.0604506733333333,2.4425321777777778,-6.971387666666667,-2.5416931000000003
917,1778415378330,-3.32563326,0.369018469,0.217591972,2.41136546,-6.2310542,-1.294095144
918,1778415378340,-2.9146247777777776,0.4985351833333333,0.4386028499999999,2.5340235,-5.0149542333333335,-0.6260675266666667
919,1778415378350,-2.09266492,0.843247348,0.26189944,2.7097031,-2.77846932,-0.4284788
920,1778415378360,-1.5194653777777778,1.0932107844444443,-0.0043735555555555,2.7372321,-1.0720369333333335,-0.8374206533333334
921,1778415378370,-1.10858298,1.33337658,-0.36124668,2.60989082,-0.3007964578,-1.50068376
922,1778415378380,-0.9999465855555556,1.4117659666666666,-0.5050226733333333,2.486309566666667,0.0176042776666666,-1.9267056666666664
923,1778415378390,-1.055595099,1.3652289999999998,-0.57877761,2.2615244700000003,0.457837642,-2.3948726099999997
924,1778415378400,-1.2495512333333334,1.2323822555555557,-0.5741052888888888,2.0860688,1.0766182733333334,-2.501241433333333
925,1778415378410,-1.2844438400000002,1.24686235,-0.7500742499999999,1.99061384,1.6324892800000002,-2.14440984
926,1778415378420,-1.0351044,1.4697300333333334,-1.2811756777777776,1.741822488888889,2.089742388888889,-0.9482555
927,1778415378430,-0.73974437,1.6270827,-1.4163082,1.490681112,2.0931903600000004,-0.525603482
928,1778415378440,-0.64908597,1.6639114,-1.4268345666666666,0.8447508622222223,2.0646298444444446,-0.0717575833333333
929,1778415378450,-0.500471275,1.7128438499999998,-1.35507905,-0.00106899,2.08634875,0.223111965
930,1778415378460,-0.5257047833333333,1.7045202666666668,-1.1826977333333333,-0.9002870666666666,2.153541966666667,0.5750617733333334
931,1778415378470,-0.6737893022222222,1.652942011111111,-1.087946322222222,-1.3628596222222222,2.066598033333334,0.891684288888889
932,1778415378480,-0.802010209,1.6204115900000002,-1.07459323,-1.63369571,1.86259542,1.18815138
933,1778415378490,-0.9643550833333332,1.6085356444444443,-1.0965646666666666,-1.9287757,1.5593912,1.5702083333333334
934,1778415378500,-1.13058425,1.59375155,-1.0869994,-2.22963838,1.5160618,1.84150596
935,1778415378510,-1.4835723,1.5033397666666668,-0.9094941666666668,-2.8189837333333334,1.6611991333333331,2.3810061333333334
936,1778415378520,-1.85101046,1.46100598,-0.6943271099999999,-2.987883,1.76473775,2.75789885
937,1778415378530,-2.105133,1.4773626000000002,-0.5498491333333333,-2.9105429444444444,1.8061735444444444,3.0730281777777777
938,1778415378540,-2.44208752,1.5238694000000002,-0.50426112,-2.40256907,1.7608894199999998,3.5075918199999996
939,1778415378550,-2.843234911111111,1.5273892444444443,-0.7805909111111111,-1.6978754222222223,1.4128557444444445,3.866221977777778
940,1778415378560,-3.53517564,1.35705478,-1.4030819,-1.47817405,0.94921843,4.2612704
941,1778415378570,-4.247148066666666,1.00375772,-1.8568767,-1.9434359666666667,0.5009202199999999,4.891257666666667
942,1778415378580,-4.5508844,0.7335732509999999,-1.83661025,-2.51753057,0.513462945,5.26745812
943,1778415378590,-4.853840166666667,0.2663366893333333,-1.5119682666666665,-3.516791866666667,0.8031708444444443,5.917955955555556
944,1778415378600,-4.6509571,-0.147783016,-1.05612865,-4.595098500000001,1.196039,6.705308700000001
945,1778415378610,-4.067632188888889,-0.3677924688888889,-0.5928089977777778,-4.945962388888889,1.020318571111111,7.017557666666666
946,1778415378620,-3.369793633333334,-0.4092752355555555,-0.199205395,-4.888271111111111,0.3568281266666666,7.025362888888889
947,1778415378630,-3.0734874000000003,-0.3862024069999999,-0.0711443953,-4.6734701,-0.087427512,6.83765629
948,1778415378640,-2.7974193,-0.36654577,0.030489584,-4.475067,-0.43163994,6.6289907
949,1778415378650,-2.6655396,-0.471484792,0.1096710333999999,-4.049612059999999,-1.13191521,6.13889289
950,1778415378660,-2.532881466666667,-0.7094519333333333,0.2164557333333333,-3.6562772,-1.7712788333333334,5.864133766666667
951,1778415378670,-2.4513748,-0.8176574500000001,0.2878155999999999,-3.5054539,-1.99780644,5.8150216
952,1778415378680,-2.0835294666666666,-0.9986728222222224,0.5489040111111111,-3.152302833333333,-2.2132862777777778,5.8206277222222225
953,1778415378690,-1.79501928,-1.0841182,0.6550565,-2.81104282,-2.29247926,5.7450183
954,1778415378700,-1.3575588666666667,-1.0990275,0.7469439666666666,-2.1953088000000003,-2.2544845333333337,5.4516081666666665
955,1778415378710,-1.13260265,-1.09861899,0.826035972,-1.57474906,-1.98479546,5.1171286
956,1778415378720,-1.032262088888889,-1.1503008666666663,0.8552091044444444,-1.0832613111111111,-1.671295088888889,4.838317511111111
957,1778415378730,-0.879654991,-1.24629529,0.823557203,-0.323718512,-1.101617218,4.33518314
958,1778415378740,-0.7585537655555555,-1.3254093,0.7496846655555556,0.1405797066666666,-0.7305478655555555,3.9094565666666665
959,1778415378750,-0.5350708479999999,-1.5476635,0.601309508,0.5882764359999999,-0.334637402,3.18695818
960,1778415378760,-0.4242388333333333,-1.7043372444444445,0.5190005000000001,0.7062921666666667,-0.0419193913333333,2.5758665
961,1778415378770,-0.26723104,-1.8413371333333337,0.4352083399999999,0.5890094666666666,0.2785718026666666,2.149902333333334
962,1778415378780,-0.1738028305,-1.86923717,0.3857298379999999,0.466901082,0.50753772,1.90680552
963,1778415378790,-0.0652172227777777,-1.843647533333333,0.2894511688888889,0.2687218866666667,0.8349518511111111,1.4720655777777778
964,1778415378800,-0.0117720278749999,-1.84013185,0.261527448,0.2569529,0.87833726,1.066783684
965,1778415378810,0.0061622840833333,-1.921792311111111,0.3362391355555555,0.6671300600000001,0.5962293255555555,0.54540177
966,1778415378820,0.0373344959,-1.93712524,0.349617969,1.10627496,0.37272372,0.2036259347999999
967,1778415378830,0.1075265961111111,-1.9200510666666668,0.3133719588888889,1.5321916222222225,0.2297040199999999,-0.1505568788888888
968,1778415378840,0.2114818399999999,-1.8829147,0.239831086,1.87345332,0.1844605939999999,-0.570928387
969,1778415378850,0.3869263555555555,-1.8244154,0.0838531316666666,2.1432849111111114,0.2265140333333333,-1.2251474844444443
970,1778415378860,0.4999803799999999,-1.82464306,-0.0523323222,2.2861417,0.240292034,-1.92598618
971,1778415378870,0.6139043833333333,-1.8169352111111112,-0.1627059677777777,2.362375433333333,0.15518065,-2.7199247
972,1778415378880,0.710928699,-1.76925257,-0.2930109879999999,2.29732025,0.031382276,-3.4389937
973,1778415378890,0.7055289833333334,-1.7538117,-0.33353572,2.160320811111111,-0.0768055573333333,-4.100727944444445
974,1778415378900,0.6146191833333333,-1.7630263444444445,-0.3147914111111111,1.864534911111111,-0.1823463922222222,-4.885183055555555
975,1778415378910,0.440589725,-1.77275585,-0.2434440749999999,1.4784412,-0.24166645,-5.628957349999999
976,1778415378920,0.123645424,-1.7699102,-0.1758842433333333,0.9604045666666666,-0.44670751,-6.5628409
977,1778415378930,-0.1819801236,-1.7625601200000005,-0.0914748512,0.69016578,-0.81244216,-7.06125688
978,1778415378940,-0.4228498766666667,-1.7569825666666667,-0.0022867196666666,0.5517478,-1.1573265333333334,-7.368217966666667
979,1778415378950,-0.844073635,-1.7383484500000002,0.1018809424999999,0.48027865,-1.96210248,-7.88141052
980,1778415378960,-1.6063436777777778,-1.723237377777778,0.2493573711111111,0.6712702099999999,-3.1420456000000003,-8.712896
981,1778415378970,-2.82264644,-1.74167183,0.228302959,0.842205657,-3.719785,-9.3155582
982,1778415378980,-3.8208021666666663,-1.7241149,-0.0225318033333333,0.6421531888888888,-3.860334111111111,-9.628055888888888
983,1778415378990,-4.48809112,-1.6586943400000005,-0.216768752,0.24241474,-3.81843672,-9.7553838
984,1778415379000,-5.1551687,-1.5219688666666666,-0.3658445266666666,-0.8133261222222221,-3.2150757555555556,-9.548849666666666
985,1778415379010,-5.6661049,-1.21189392,-0.290858434,-2.393101,-2.25900482,-9.00366
986,1778415379020,-5.762660055555555,-0.8937005444444444,-0.11080931,-3.3163491111111107,-1.823124611111111,-8.470458222222222
987,1778415379030,-5.534203799999999,-0.4892236849999999,0.139502038,-3.9476997,-1.86571845,-7.57476561
988,1778415379040,-5.293794433333334,-0.270493435,0.3022737333333333,-4.043605233333333,-2.086297933333333,-7.1059352
989,1778415379050,-4.897944988888889,-0.0088182638888888,0.54062776,-4.035731944444445,-2.4229426666666662,-6.516891977777778
990,1778415379060,-4.2787923800000005,0.239837172,0.8392684880000001,-3.92799216,-2.5315648,-5.869325959999999
991,1778415379070,-3.8338992,0.3674706222222222,1.1661757666666666,-3.822571844444445,-2.173445422222222,-5.448723555555556
992,1778415379080,-3.3980274799999997,0.4799365319999999,1.59614196,-3.5488241,-1.24287566,-5.110286960000001
993,1778415379090,-3.173125388888889,0.5377651155555556,1.7728440222222224,-3.331213188888889,-0.6641012733333334,-4.995339111111111
994,1778415379100,-2.39218225,0.69272332,1.84315625,-2.33366565,1.02374182,-4.917626
995,1778415379110,-2.063650155555555,0.7284808222222223,1.7488587222222225,-1.6947363555555557,1.854498366666667,-4.978371466666666
996,1778415379120,-1.91270922,0.65711148,1.53534564,-0.456883218,3.00188678,-4.96551644
997,1778415379130,-1.9566825555555556,0.5741052999999999,1.3664449,0.3167752166666667,3.2123440333333333,-4.485553266666667
998,1778415379140,-1.8907963,0.5613132249999999,1.2830625999999998,0.79730842,3.0658424,-3.9597791
999,1778415379150,-1.8201875555555556,0.5738884722222222,1.2134074555555554,1.1333422999999998,2.8232341555555553,-3.470655911111111
1000,1778415379160,-1.704581,0.6008277,1.1152785,1.4564126,2.4754586,-2.9048078
