id,timestamp,acc_x,acc_y,acc_z,gyro_x,gyro_y,gyro_z
0,1778414973500,1.0341152,-0.02930049,-0.0041465834,0.059404895,-0.11888615,0.027335415
1,1778414973510,1.0368253666666665,-0.0318751655555555,0.0015448057111111,0.0683639916666666,-0.1144066033333333,0.030593267
2,1778414973520,1.0487503,-0.03369099,0.0019513334,0.0750425865,-0.077531788,0.0349710045
3,1778414973530,1.0451727666666666,-0.0327153233333333,-0.0122161608666666,0.0719611977777777,-0.0404262112222222,0.0305253942222222
4,1778414973540,1.0417742,-0.03091034,-0.0168119564,0.0664296369,-0.02396048405,0.0286181937
5,1778414973550,1.042733666666667,-0.0279826627777777,-0.0048376800555555,0.0492919807777777,0.010613471,0.0185120655555555
6,1778414973560,1.0446037,-0.023416,-0.01466549,0.040712969,0.0385291905,-0.0171953509
7,1778414973570,1.0411346333333331,-0.0203805928888888,-0.0229044526666666,0.0388397049999999,0.0262918833333333,-0.0461698736666666
8,1778414973580,1.038532822222222,-0.0226029447777777,-0.013933739,0.04046863,-0.019318044,-0.091168955
9,1778414973590,1.03765205,-0.0191474585,-0.010366458,0.0444391374999999,-0.017485502,-0.1052184405
10,1778414973600,1.0348740333333333,-0.011030454,-0.0150144268888888,0.048409645,-0.0142276503333333,-0.1301953024444444
11,1778414973610,1.0350908,-0.0034148335,-0.020275572,0.042056833,0.0169662826,-0.155307914
12,1778414973620,1.0272856,0.0036587503,-0.0065857503,0.0282516849999999,0.05092939,-0.18340689
13,1778414973630,1.0145866499999998,0.00146350015,0.00195133335,0.029473379,0.047752984,-0.192691766
14,1778414973640,0.9707510777777778,-0.0086996944444444,0.0027101852644444,0.0350388755555555,0.0392554211111111,-0.2056010022222222
15,1778414973650,0.95434229,-0.0154155331,-0.003951449998,0.0424233439999999,0.0230747556,-0.189637532
16,1778414973660,0.9511226000000002,-0.017318083,-0.005854,0.0511245233333333,0.0094596484444444,-0.1521858088888888
17,1778414973670,0.951781175,-0.0197328586,-0.00190255,0.0559841516,0.0101247932,-0.1127929468
18,1778414973680,0.9624918166666668,-0.016315315,-0.0021139444444444,0.0532285508888888,0.0112921898888888,-0.0890649259999999
19,1778414973690,0.98032552,-0.0106835504,-0.0086346499999999,0.0435228665,0.013667707,-0.07406523
20,1778414973700,0.9816426444444444,-0.0081034541111111,-0.0151194464444444,0.0286589167777777,0.0133283476666666,-0.0726399233333333
21,1778414973710,0.991033425,0.00341483333,-0.0167631715999999,0.0217767052,-0.007467608,-0.08066238
22,1778414973720,0.9988556944444444,0.0067754628777777,-0.0178093033333333,0.020310672,-0.0146348825555555,-0.0873681246666666
23,1778414973730,1.031676,0.017318083,-0.01978774,0.023609247,-0.0158972998,-0.1142589804
24,1778414973740,1.0357413333333332,0.016992861,-0.0279182953333333,0.0359890847777777,-0.0130059558888888,-0.1285663811111111
25,1778414973750,1.03031012,0.00870782515,-0.0947951642999999,0.048043135,-0.0348335638,-0.1384485339999999
26,1778414973760,1.0333835,0.03125182,-0.118604474,0.0196998242222222,-0.1182752944444444,-0.1475705211111111
27,1778414973770,1.0211877,0.037593655,-0.05979007,0.0055824652888888,-0.1351754022222222,-0.18089563
28,1778414973780,0.99139935,0.03111462,-0.0652934449999999,-0.00015271185,-0.125605465,-0.201121455
29,1778414973790,0.9762663333333332,0.0249608063333333,-0.0314042733333333,-0.0128786964444444,-0.1092483377777777,-0.2130669111111111
30,1778414973800,0.96800771,0.0134885923,0.0043173252999999,0.0057114217,-0.0859003989999999,-0.228181992
31,1778414973810,0.9636740955555556,0.0004878333777777,-0.0720096225555555,0.04325138,-0.0796561811111111,-0.2179536955555555
32,1778414973820,0.99144807,0.00975666666,-0.133117525,0.0537240162,-0.107218962,-0.205153052
33,1778414973830,1.04229663,0.0324138122222222,-0.1925959333333333,0.0625948788888888,-0.2335218077777777,-0.1918908733333333
34,1778414973840,1.06998625,0.0396669465,-0.2410049099999999,0.072843538,-0.308615306,-0.188904512
35,1778414973850,1.1240697222222222,0.0622021336666666,-0.3558371555555555,0.0767801077777777,-0.3909846633333333,-0.1969133977777777
36,1778414973860,1.16617779,0.098767954,-0.5122707400000001,0.0363148685,-0.51062247,-0.220546394
37,1778414973870,1.1795505,0.1276294,-0.6106149,-0.027335415,-0.6900283,-0.25670856
38,1778414973880,1.16264715,0.133556575,-0.647522523,-0.0473712046,-0.69638118,-0.257197248
39,1778414973890,1.1683574888888888,0.1369253366666666,-0.69174765,-0.0703662097777777,-0.5449182055555555,-0.2359397533333333
40,1778414973900,1.1802823222222223,0.1438532422222222,-0.8160773888888889,-0.0715200326666666,-0.3464606944444444,-0.1842213422222222
41,1778414973910,1.0587507,0.14790498,-1.0560068,0.044744562,-0.3222983,0.022448637
42,1778414973920,0.9315719,0.1663071244444444,-1.0343558,0.1687465582222222,-0.4548521355555555,0.1702057982222222
43,1778414973930,0.87781945,0.204197893,-1.0322676,0.397692098,-0.559245946,0.384497801
44,1778414973940,0.9469861333333331,0.2640601233333333,-1.1404324,0.4843509644444445,-0.5476330611111111,0.4344990533333333
45,1778414973950,1.04303341,0.304584844,-1.27170833,0.5221827699999999,-0.36591278495,0.392194489
46,1778414973960,1.0086564,0.2388316755555555,-1.4550408444444445,0.3422272,-0.0071010995,0.21791977
47,1778414973970,0.8737705,0.14104481,-1.4820987,0.07773031,0.16454698,0.17393875
48,1778414973980,0.7895921355555555,0.0874644544444444,-1.4118235888888888,-0.2247069433333333,0.2682552644444444,0.1777395766666666
49,1778414973990,0.7351465580000001,0.0601315575999999,-1.33948666,-0.343754285,0.29374117,0.1739387549999999
50,1778414974000,0.6587918044444445,0.005752368,-1.1443282888888888,-0.4796338599999999,0.2487760244444444,0.1653868955555555
51,1778414974010,0.58055519,-0.0271753672,-0.975901474,-0.458410334,0.02454078807,0.179008783
52,1778414974020,0.4735676222222222,-0.0876778764444444,-0.8683195844444445,-0.4139338666666667,-0.0702898517111111,0.2462223333333333
53,1778414974030,0.364228566,-0.152048498,-0.79950088,-0.371608928,-0.143075706,0.358292436
54,1778414974040,0.3392982466666667,-0.17010138,-0.8383822000000001,-0.3561748566666666,-0.26528588,0.5025746
55,1778414974050,0.374973084,-0.18239478,-0.92036466,-0.434831617,-0.588810958,0.678926178
56,1778414974060,0.5289908955555557,-0.1663613322222222,-0.8852650644444444,-0.62888421,-1.2086376533333332,0.767546508888889
57,1778414974070,0.6664650444444445,-0.1461298033333333,-0.7318414777777779,-0.72492296,-1.8304802,0.6882722
58,1778414974080,1.0124981,-0.0773673215,-0.425985215,-0.6730009650000001,-1.9511607,0.560299675
59,1778414974090,1.2378771,-0.027593073,-0.29407203,-0.62107897,-2.0718412,0.43232715
60,1778414974100,1.3748637499999998,-0.0371637545,-0.1627168084,-0.575631904,-2.05241632,0.1717397078999999
61,1778414974110,1.2097250888888889,-0.1486197844444444,0.1240993846666666,-0.4904933822222222,-1.839770111111111,-0.2658712681666666
62,1778414974120,1.1288188600000002,-0.2261381779999999,0.356456777,-0.38956785,-1.4853514,-0.25548688
63,1778414974130,1.3025455,-0.28236404,0.59741294,-0.38956785,-1.4853514,-0.25548688
64,1778414974140,1.42262875,-0.2981119,1.18142562,-0.197150955,-1.095936292,-0.358842235
65,1778414974150,1.6767576888888889,-0.3116645066666667,2.122071633333334,0.6404563555555556,1.0803343577777778,-0.75346314
66,1778414974160,1.520973,-0.24550213,1.7429676,1.0801307,4.422305,-0.9261972
67,1778414974170,1.4825898777777775,-0.0234735922222222,1.3737488666666668,0.8974194933333334,4.773610111111111,-0.8514702055555555
68,1778414974180,1.4336202,0.05564349,1.3383403,0.36910444,5.518165,-0.63237965
69,1778414974190,1.3239593333333333,0.0486512126666666,1.5814235,0.0995171946666666,5.537712333333333,-0.4320217366666666
70,1778414974200,1.2188516,0.0191627035,1.81618825,-0.0270299905,5.48426325,-0.24113196
71,1778414974210,1.047537411111111,-0.0482683985555555,2.0667364666666668,0.1473669,5.165706,-0.061848287
72,1778414974220,0.7892228844444446,-0.0686252755555555,2.290201388888889,0.5556843222222222,4.482642888888889,0.0896418347777777
73,1778414974230,0.659764137,-0.00332031544,2.15653121,0.9310839,3.4937408,0.23685603
74,1778414974240,0.6256462666666667,0.0591294644666666,1.9133127666666665,0.9400430066666668,2.7118564666666667,0.2181233833333333
75,1778414974250,0.6014558400000001,0.1110583145,1.65107807,0.776661724,1.58753106,0.0768140462
76,1778414974260,0.5585048111111112,0.1028854055555555,1.4967913555555556,0.40304042,0.3524928288888889,-0.2120488314444444
77,1778414974270,0.5595204199999999,0.0425726049,1.40511255,-0.074431736,-0.8100598079999999,-0.530734654
78,1778414974280,0.6196160488888889,0.0222269062222222,1.387072788888889,-0.2259965077777777,-1.1469420777777777,-0.6008870677777778
79,1778414974290,0.7331342230000001,0.0125861,1.2695312900000002,-0.3288496159999999,-1.41925774,-0.586871513
80,1778414974300,0.7582014166666666,0.0149602222222222,1.197617266666667,-0.3428040866666666,-1.513518266666667,-0.5478112277777778
81,1778414974310,0.771386447,0.0173912581,1.08021551,-0.3419217479999999,-1.70806636,-0.431166538
82,1778414974320,0.7907236155555556,-0.0002439167333333,1.0579275444444445,-0.2921716311111111,-1.9624826222222225,-0.2079086488888889
83,1778414974330,0.805296966,-0.0202206910699999,1.06636708,-0.1956238283999999,-1.93958512,-0.0438893745999999
84,1778414974340,0.8349573,-0.0075614169999999,1.0284137,-0.049936764,-1.671049,0.13973132
85,1778414974350,0.8349572999999999,-0.0075614169999999,1.0284137,-0.00497840536,-1.5190702,0.187133056
86,1778414974360,0.9187561666666666,0.0276404994444444,0.9376462177777776,0.0347673881,-1.3768243,0.2054992033333333
87,1778414974370,0.9450246,0.013659334,0.85050696,0.1190643122222222,-1.162349011111111,0.155002491111111
88,1778414974380,0.9242918,-0.0310079059999999,0.7941317,0.185544855,-1.10143395,0.122627585
89,1778414974390,0.9055711333333332,-0.0724940686666666,0.7529707666666667,0.35648028,-1.0188677733333331,0.08638398
90,1778414974400,0.8564067,-0.132016856,0.7026599,0.52395423,-0.98445673,0.09788827
91,1778414974410,0.8089936533333334,-0.1717817088888888,0.6392412244444444,0.8704742888888889,-0.9536429,0.2330552011111111
92,1778414974420,0.85108626,-0.12714157,0.5944859,1.21824324,-0.91683594,0.425974348
93,1778414974430,0.8813319,-0.05783874,0.5076211,1.2536113,-0.9129876,0.4457658
94,1778414974440,0.9001287,-0.040993245,0.4234240999999999,1.4402633,-0.7199598500000001,0.52273255
95,1778414974450,0.92087686,-0.0364113366666666,0.3006069666666666,1.6334310333333333,-0.3884733933333333,0.5657633444444445
96,1778414974460,0.880856262,-0.0801510179999999,0.252770856,1.63717758,-0.060000472,0.47313174
97,1778414974470,0.7818986022222222,-0.1404384166666666,0.2473721711111111,1.6501953888888887,0.2573957644444444,0.3975767166666666
98,1778414974480,0.5745762,-0.16766222,0.15961297,1.6233724000000005,0.730252644,0.449675221
99,1778414974490,0.8080451333333333,-0.1263386666666666,-0.08444599,1.5666196,0.99410304,0.4822130266666666
100,1778414974500,1.13490158,-0.104213394,-0.442666058,1.33919096,1.68777099,0.4653739799999999
101,1778414974510,1.1426445888888888,-0.1724287611111111,-0.72246421,1.1752871333333337,1.875063522222222,0.4520099999999999
102,1778414974520,1.0878073,-0.18595597,-0.79901004,1.1287948222222224,1.6959495666666666,0.6437481866666667
103,1778414974530,1.0774897,-0.152807701,-0.888850704,1.07689326,1.30990084,0.848924946
104,1778414974540,1.1826367222222225,-0.0790391644444444,-0.9075055333333332,1.0072362777777777,1.1474765555555555,0.9060052333333332
105,1778414974550,1.30266748,-0.0124519455999999,-0.831719244,0.7823426,0.939177675,0.904206675
106,1778414974560,1.3434524555555556,0.0202179818888888,-0.8273551977777777,0.5514084244444445,0.8355457500000001,0.7731120544444443
107,1778414974570,1.2886423,0.0012195833,-1.0530797,0.27869907,0.32458895,0.5972559
108,1778414974580,1.3616039,-0.02783699,-1.0762519,0.020921519,-0.36627927,0.44698748
109,1778414974590,1.4465355800000002,-0.02842239,-0.99385678,-0.1407086701,-0.923188722,0.293053973
110,1778414974600,1.4866585444444445,-0.043312148,-0.7969062666666668,-0.34131092,-1.299043,0.04199575
111,1778414974610,1.52540909,-0.066668524,-0.6436686500000001,-0.4061828959999999,-1.29244588,-0.087748208
112,1778414974620,1.5639869,-0.0921767882222222,-0.4746177866666667,-0.4660594966666667,-1.1616702666666667,-0.3039474055555555
113,1778414974630,1.5052571222222222,-0.0807431927777777,-0.3112647666666666,-0.5256510366666666,-0.6216812888888888,-0.5560237188888889
114,1778414974640,1.42784552,-0.0540824259999999,-0.221945874,-0.603975226,0.105416964,-0.6923037400000001
115,1778414974650,1.331517422222222,-0.0607115377777777,-0.1989953488888888,-0.656372328888889,0.4792011933333333,-0.7221062888888888
116,1778414974660,1.20125299,-0.07715694,-0.215939422,-0.73249752,0.97874526,-0.74013308
117,1778414974670,1.0375638333333332,-0.0973803422222222,-0.3076737866666666,-0.8164822222222222,1.2331309888888888,-0.71124676
118,1778414974680,0.90579062,-0.17146122,-0.4251833579999999,-0.88087231,1.09775366,-0.65107154
119,1778414974690,0.8898690000000001,-0.17644322,-0.42197582,-0.9778137,0.6068004,-0.55296946
120,1778414974700,0.90415335,-0.126287855,-0.32776301,-0.9903361,0.4773007749999999,-0.5474718550000001
121,1778414974710,0.9009604111111112,-0.036648479,-0.1456656822222222,-0.9816824333333334,0.3087069366666666,-0.5269066833333333
122,1778414974720,0.8417167900000001,0.0591772350999999,-0.098822845,-0.8623636400000001,0.2757212,-0.4381301999999999
123,1778414974730,0.8243062222222223,0.1061579524444444,-0.12431959,-0.82245496,0.2464005266666666,-0.4041263666666667
124,1778414974740,0.84056735,0.1349469,-0.11397006,-0.6758516088888888,0.1155434555555555,-0.2850790288888889
125,1778414974750,0.858376325,0.125946369,-0.1146286394999999,-0.561948939,0.0053601845,-0.212177793
126,1778414974760,0.8745022333333333,0.1034816433333333,-0.1064086483333333,-0.4740683833333333,-0.1199042283333333,-0.1428873533333333
127,1778414974770,0.91036104,0.0813065749999999,-0.0969934695,-0.377167646,-0.289068187,-0.049814594
128,1778414974780,0.9222895833333332,0.07341892,-0.0959744394444444,-0.28321254,-0.40849563,0.0157293168888888
129,1778414974790,0.99213105,0.020489,-0.092505395,-0.23624517,-0.36689013,0.037108973
130,1778414974800,0.9885536055555556,0.0127920740444444,-0.0743878061111111,-0.2305439344444444,-0.3210087122222222,0.054484185
131,1778414974810,0.97347143,0.00073174995,-0.04235003,-0.213399494,-0.240933428,0.09403994
132,1778414974820,0.95733568,0.0051222497333333,-0.0130156649888888,-0.1712917577777778,-0.1750162277777777,0.1621290388888888
133,1778414974830,0.9848135,0.034666654,0.0024391667,-0.119573349,-0.165371634,0.2019766479999999
134,1778414974840,1.005627811111111,0.0630693971111111,0.0026559816333333,-0.0935105344444444,-0.1425055722222222,0.1860878366666666
135,1778414974850,1.0087716000000002,0.0692215177777777,-0.0146756527222222,-0.080886358,-0.1300850116666666,0.16579413
136,1778414974860,1.0018877,0.06893695,-0.0502773215,-0.0604433364,-0.103859305,0.1003927436
137,1778414974870,0.9910740666666666,0.0546678253333333,-0.0708679566666666,-0.0702304672222222,-0.0786380988888889,0.0227879955
138,1778414974880,0.95583322,0.0165649904999999,0.0055308097,-0.0896418355,-0.0301300415,-0.08463288553
139,1778414974890,0.9536158888888888,-0.0003523242,0.0202721851111111,-0.0729453433333333,-0.0140919072222222,-0.1142454066666666
140,1778414974900,0.969873618,-0.00721993316,0.0196109004,-0.062764555,-0.0214560095,-0.125376395
141,1778414974910,0.9986355433333332,-0.009756667,0.012521056,-0.0491222986666666,-0.0209469706666666,-0.1567332166666666
142,1778414974920,0.98896015,-0.008781,-0.002927,-0.0570225915999999,0.0111021477999999,-0.182796036
143,1778414974930,0.967061821111111,-0.002927,-0.0050951484444444,-0.1148223233333333,0.1034622504444444,-0.2111664999999999
144,1778414974940,0.8981926290000001,-0.0133910259,-0.0126104929,-0.193241532,0.15923261,-0.2088792289999999
145,1778414974950,0.8349573,-0.028324824,0.012195834,-0.2310869111111111,0.1446605066666666,-0.1589051277777778
146,1778414974960,0.819419771,-0.0339592983,0.0373162034,-0.23991026,0.13950224,-0.14492351
147,1778414974970,0.8103759144444445,-0.0424448881111111,0.0717148884444444,-0.2194808144444444,0.0549338322222222,-0.0204464148333333
148,1778414974980,0.8584952400000001,-0.0189828144,0.056326454,-0.188354748,0.0115297413999999,0.14541218995
149,1778414974990,0.8902755066666668,-0.00414658322,0.0338332733333333,-0.1882597333333333,0.0087130571111111,0.1754998088888889
150,1778414975000,0.9325849,0.022440333,0.019269416,-0.23001454,-0.0028251685,0.183040382
151,1778414975010,0.9422060666666668,0.0273356035555555,0.033785846,-0.2523308311111111,0.0081700823333333,0.1700021888888888
152,1778414975020,0.949903,0.03125182,0.04539899,-0.2880314477777778,0.0505221593333333,0.1353875055555555
153,1778414975030,0.965538072,-0.0042868364,0.0516432572,-0.296719062,0.0377350876,0.12262759
154,1778414975040,0.9862771,-0.030763991,0.049545575,-0.2914250444444444,0.0347758722222222,0.1365413344444444
155,1778414975050,1.01515378,-0.0201566642,0.0464722243,-0.271368903,0.0478751526,0.156896114
156,1778414975060,1.0512436111111112,-0.0020597408888888,0.0291480417777777,-0.2431681166666666,0.0562233993333333,0.1607037333333333
157,1778414975070,1.12161111,0.0461276907,-0.0684491184,-0.21963013,0.038956784,0.138509614
158,1778414975080,1.1397074,0.090631987,-0.1498800177777778,-0.1644366922222222,-0.1000177533333333,0.0468825282222222
159,1778414975090,1.15237824,0.119872848,-0.214713732,-0.130324268,-0.19646375,0.0107203698
160,1778414975100,1.138552233333333,0.1381178133333333,-0.2843255266666666,-0.0950715927777777,-0.3007828822222222,0.0255028728888888
161,1778414975110,1.15265872,0.1540394759999999,-0.37921724,-0.0430341909,-0.394622605,0.0917797997999999
162,1778414975120,1.242250677777778,0.1875719211111111,-0.5419828355555556,-0.0149148542222222,-0.4076132855555555,0.1505908166666666
163,1778414975130,1.5026792,0.2760222,-0.8539218,0.024586603,-0.16103461,0.21791977
164,1778414975140,1.694018222222222,0.3224476755555555,-0.968020591111111,-0.0874020585555555,0.3634201666666666,0.0875378094444444
165,1778414975150,1.8914281111111113,0.2999598933333333,-1.109651486666667,-0.27350685,1.0442433,-0.15591876
166,1778414975160,1.91963333,0.221317782,-1.14348141,-0.43965729,1.64336234,-0.404167088
167,1778414975170,1.8258686888888889,0.1501374844444444,-1.2717273555555555,-0.6199251388888888,2.2102829111111113,-0.6182622711111111
168,1778414975180,1.54886475,0.0488656532,-1.58561698,-0.99186319,2.7023272,-0.916301452
169,1778414975190,1.2084614333333334,-0.0073412155555555,-1.480154177777778,-1.2455006222222222,2.687490322222222,-1.021217837777778
170,1778414975200,0.940182875,-0.0564697610999999,-1.22089752,-1.33059328,2.5052068,-0.952707914
171,1778414975210,0.7763156,-0.0693942946666666,-1.1662266,-1.3195573333333332,2.3809808666666665,-0.84352914
172,1778414975220,0.42484493,-0.0706779056,-0.99589952,-1.1909537,1.86858175,-0.469649901
173,1778414975230,0.283919,-0.082230404,-1.0032902,-0.8525901,1.1004413,0.4237753
174,1778414975240,0.192980777,-0.0763032344,-1.09949705,-0.86071437,0.85623223,0.7145385980000001
175,1778414975250,0.3158381922222222,-0.027267852,-0.6971545222222222,-0.83426464,-0.17936003,1.3877686
176,1778414975260,0.41666453,0.00102445,-0.353099888,-0.692425936,-0.432250772,1.45410664
177,1778414975270,0.5873343944444445,0.0232262871111111,0.0589905733333333,-0.2126936344444444,-0.7306835955555555,1.4214925222222223
178,1778414975280,0.5939269222222223,-0.0235684466666666,0.0679748355555555,0.20784079,-0.73950696,1.2429215
179,1778414975290,0.4342173749999999,-0.1917825354,0.08769414,0.5750821540000001,-1.158426036,1.04610644
180,1778414975300,0.4774939777777778,-0.2654829666666666,0.1329989511111111,0.8161089166666667,-1.596635988888889,0.9404162944444444
181,1778414975310,0.5959006600000001,-0.342300456,0.1664914179999999,1.07341138,-2.10861428,0.7615738160000001
182,1778414975320,0.6724376333333333,-0.38030674,0.17091445,1.2192002000000002,-2.3892781333333333,0.5575508466666668
183,1778414975330,0.675444864,-0.393894936,0.148194628,1.34994193,-2.70797756,0.349129757
184,1778414975340,0.9233804733333332,-0.2652966366666666,0.1916439777777777,1.4066625333333334,-2.925873655555556,0.2001373166666666
185,1778414975350,1.090191745,-0.1748669159999999,0.2862484079999999,1.3568444,-3.0699656,-0.06306998
186,1778414975360,1.2014522666666667,-0.1307393399999999,0.3654888,1.3222297333333333,-3.0210978777777777,-0.1482492355555555
187,1778414975370,1.41343005,-0.081044359,0.443028909,1.23125429,-2.8913539100000003,-0.3232909
188,1778414975380,1.5600503666666663,-0.0928543388888888,0.4791573677777777,0.8805193666666666,-2.4881675555555556,-0.5857516044444444
189,1778414975390,1.62532346,-0.103701169,0.503928784,0.5168073289999999,-2.17537978,-0.7218687420000001
190,1778414975400,1.7977268,-0.08470006,0.79852223,0.06734591,-1.9594452,-0.8290724
191,1778414975410,1.80497117,0.0042624434,1.359710453,-0.0233649072999999,-1.90501878,-1.03578314
192,1778414975420,1.6056627666666667,0.0251403548888888,1.7142396444444443,0.077323085,-1.6391237555555556,-0.993593951111111
193,1778414975430,1.3362364333333332,0.0054576353333333,2.1601261333333337,0.7530559,-0.70706418,-0.6816546433333334
194,1778414975440,1.11947689,-0.087425835,2.2752272099999997,1.3647854,-0.09139802,-0.46867257
195,1778414975450,0.822046611111111,-0.2673123722222222,2.1245954555555553,1.4281353666666667,0.0908380833333333,-0.2742195233333333
196,1778414975460,0.98070352,-0.160576452,1.9968299000000005,1.3941443,0.458059095,0.4677562849999999
197,1778414975470,1.1770063555555557,0.0897071355555555,1.9531694888888889,0.9526672,0.3809905244444444,1.0640790333333332
198,1778414975480,1.1626776,0.3217504839999999,2.02800852,0.61588676,0.266314128,1.21079094
199,1778414975490,1.0878073,0.34581286,2.0367956,0.07345438,0.32153472,1.2936982
200,1778414975500,1.11824818,0.416304788,1.86049272,-0.100026236,0.6435734,1.15876196
201,1778414975510,1.1308282,0.4354725733333333,1.6957798666666666,-0.2076032255555555,0.8449120322222223,1.0405952444444444
202,1778414975520,1.1469145,0.37090578,1.27309262,-0.617780376,1.5441608,0.4566388759999999
203,1778414975530,1.1662435555555557,0.2922324911111111,1.0868554,-0.85435474,2.041146,-0.06089808
204,1778414975540,1.2298278,0.2010787999999999,0.8831918,-0.84739787,2.7367179,-0.6563248580000001
205,1778414975550,1.2532743,0.12787332,0.657203,-0.7359182,3.181598,-1.0312629
206,1778414975560,1.27108025,0.1054177375,0.55971255,-0.6562637199999999,3.1525216800000004,-1.12777678
207,1778414975570,1.2156332222222224,0.0683542555555555,0.41173474,-0.4423043066666666,2.908956533333333,-1.3091984
208,1778414975580,1.1673580222222222,0.0882741255555555,0.37018082,-0.2712670866666666,2.4408438,-1.2941308
209,1778414975590,1.12787064,0.1028962528,0.4000782239999999,-0.1433963955,1.93882913,-1.22135851
210,1778414975600,1.0338713,0.12055582,0.49759,0.0594048927777777,0.8918030488888888,-1.0172134000000002
211,1778414975610,1.0250902700000002,0.116165314,0.614020624,0.15103199,0.14499986,-0.8761077
212,1778414975620,1.030863,0.110636535,0.6768992733333333,0.17261526,0.0313822733333333,-0.8791619333333334
213,1778414975630,1.03821303,0.080727271,0.8106113699999999,0.263672209,-0.318572126,-0.915629498
214,1778414975640,0.9707239977777776,0.0106273138888888,0.718382,0.3397837711111111,-0.6614542833333332,-0.9661737311111112
215,1778414975650,0.967495432,-0.071467584,0.6962601399999999,0.36250732,-1.002659981,-0.9713388
216,1778414975660,0.968715,-0.09006623,0.6940649,0.3654394,-1.1133455,-0.9689565
217,1778414975670,0.94726253,-0.1173605089999999,0.819992955,0.50202484,-1.24577714,-0.906405716
218,1778414975680,0.9128276111111112,-0.12819853,1.0094152444444444,0.7254320533333334,-0.9738686666666668,-0.6802293133333334
219,1778414975690,0.97983466,-0.118970354,1.10093309,0.91196441,-0.0929251391999999,-0.312051324
220,1778414975700,0.9347802,-0.11909231,0.9900883,0.9261293222222224,0.4954225591111111,-0.1213719599999999
221,1778414975710,0.9049065,-0.136965302,0.752873224,0.83566962,0.950386736,0.0732711239999999
222,1778414975720,0.8401947133333333,-0.1532440333333333,0.3679042588888889,0.6901386222222222,1.2153485444444443,0.2638011799999999
223,1778414975730,0.814224333,-0.121754048,0.0221872696999999,0.393782688,0.6035171,0.458349244
224,1778414975740,0.7445115999999999,-0.0370787194444444,0.0160646255555555,0.21639264,-0.50127655,0.5813739
225,1778414975750,0.6787896,-0.056375243,-0.12665373,0.19745637,-1.2605597,0.6497888
226,1778414975760,0.7680936,0.0043905,-0.15814948,0.1382720588888889,-1.7943723222222223,0.6986565333333333
227,1778414975770,0.8183912444444444,0.0780465611111111,-0.1008324424444444,0.0958521133333333,-1.956934011111111,0.7248550888888888
228,1778414975780,0.858348848,0.113335878,0.0270381627999999,0.0525634076,-2.0097791000000003,0.76316202
229,1778414975790,0.8924063877777778,0.0779889655555555,-0.0082694544444444,0.1572083286666666,-1.7096342333333334,0.7270948777777778
230,1778414975800,0.8325181,-0.0031709165999999,-0.17546757,0.347358282,-1.44674594,0.6863174200000001
231,1778414975810,0.6264356111111111,-0.0645566129555555,-0.5013131077777778,0.5560237,-1.766952,0.83182126
232,1778414975820,0.64842198,-0.0343068802,-0.801943136,0.5532749,-2.0339304,0.96315338
233,1778414975830,1.0349349666666667,0.2701512758888889,-0.8053620177777777,0.4659577,-2.337966955555556,1.0802324888888888
234,1778414975840,1.3127716399999998,0.375930492,-0.81186446,0.429700518,-2.0821034000000003,0.95447939
235,1778414975850,1.6761954,0.1908343,-1.4010879,0.1023678224444444,-0.9715695333333334,0.0969041283911111
236,1778414975860,1.5414923,0.03734974,-1.1250657,-0.0515249624,-0.73290978,-0.287128762724
237,1778414975870,1.307434,-0.0131613367777777,-0.8803833444444444,-0.1327404977777777,-0.7769722455555557,-0.6024480733333334
238,1778414975880,1.16300083,0.0139398372999999,-0.717377215,-0.0856713265,-0.8234984649999999,-0.6000047000000001
239,1778414975890,1.046260211111111,0.1119882462222222,-0.6275840611111111,0.0416224545555555,-0.7549139,-0.4508222444444444
240,1778414975900,0.98749971,0.115872617,-0.60707811,0.1746106879,-0.312280399,-0.258174588
241,1778414975910,0.94356114,0.02414775,-0.8344084,0.16569231,0.22502086,-0.0569615069999999
242,1778414975920,0.9801655622222224,-0.0109660877777777,-0.8882394777777778,0.0709431162222222,0.2236634199999999,-0.0156953816666666
243,1778414975930,1.0396918300000002,-0.0786905713999999,-0.8354542219999999,-0.2091235537999999,0.157400069,0.0534185923
244,1778414975940,1.0114919999999998,-0.1596028066666666,-0.6931705333333333,-0.4636839633333333,0.15090473,0.0723344946666666
245,1778414975950,0.941204325,-0.2479534789999999,-0.5323969390000001,-0.682896697,0.193562235,0.0814564845
246,1778414975960,0.8625604777777778,-0.2965925,-0.3912254088888889,-0.8183826088888888,0.3636153199999999,0.0919494827777777
247,1778414975970,0.8461774,-0.30358478,-0.36438102,-0.8889354700000001,0.58328277,0.1214058925
248,1778414975980,0.7728194666666667,-0.2912263266666666,-0.1842688833333333,-0.9248736533333334,1.026308288888889,0.21004662
249,1778414975990,0.77938694,-0.225308871,-0.1027742945,-0.86938835,1.39865702,0.323901772
250,1778414976000,0.85425717,-0.12519024,-0.2296475299999999,-0.7783381888888888,1.6378511777777778,0.4192957333333333
251,1778414976010,0.94348189,-0.0798949088,-0.261283522,-0.73909464,1.73767722,0.433182328
252,1778414976020,0.9386828499999998,-0.063448824,-0.4388061,-0.6772769,1.6245483,0.39140037
253,1778414976030,0.990268195,-0.0011067722,-0.4360742099999999,-0.6738561799999999,1.21747966,0.3835815139999999
254,1778414976040,1.0438719,0.073937245,-0.3629175,-0.63635015,0.8236512,0.31504446
255,1778414976050,1.0833132600000002,0.126842761,-0.330500972,-0.63781619,0.512363408,0.135211036
256,1778414976060,1.066020911111111,0.1176830155555555,-0.3096860844444444,-0.6367573833333333,0.3323942244444444,-0.0118945524444444
257,1778414976070,1.0174272666666666,0.061019822,-0.25251474,-0.6092013611111111,0.1769675388888889,-0.1279555282222222
258,1778414976080,0.95854372,-0.0029696842,-0.15313089,-0.542585079,0.0156835038,-0.23080864
259,1778414976090,0.8847468,-0.059302237,-0.02856874,-0.388957,-0.011987877,-0.2408265299999999
260,1778414976100,0.866526174,-0.0729127867,0.0140465516,-0.343326694,0.0638793573,-0.205091967
261,1778414976110,0.8401912955555555,-0.0737746344444444,-0.0100818888888888,-0.3306550244444444,0.1320363299999999,-0.1891760022222222
262,1778414976120,0.84361018,-0.0621316756,-0.0442769752,-0.33611871,0.15080292,-0.195012985
263,1778414976130,0.8947472733333333,-0.0281622117777777,-0.07076633,-0.3525097777777778,0.1630537955555555,-0.2180215633333333
264,1778414976140,0.929606083,-0.0141227746999999,-0.055475801,-0.37295279,0.133638105,-0.278027114
265,1778414976150,0.9399836755555556,-0.0036045462888888,-0.0192186017777777,-0.31321192,0.07902836,-0.30618718
266,1778414976160,0.947024772,0.00926883412,-0.0050856628,-0.252371542,0.0629019944,-0.289694314
267,1778414976170,0.9511226000000002,0.017074168,0.0014635,-0.1473329677777778,0.0467213306666666,-0.2505322144444444
268,1778414976180,0.95487887,0.0599516719,0.0002683083309999,-0.0525634068,0.0410947493,-0.2074742749999999
269,1778414976190,0.9386828499999998,0.092505395,-0.011220166,0.0169849468888888,0.0530334181111111,-0.1981350933333333
270,1778414976200,0.91526675,0.094456725,-0.035642326,0.088114716,0.014889402,-0.22127941
271,1778414976210,0.8972440388888889,0.0775180716666666,-0.0590583206666666,0.10739034,-0.0464668104444444,-0.2226368544444444
272,1778414976220,0.85791594,0.034178823,-0.060765743,0.14492351,-0.1512610586666666,-0.2113022466666666
273,1778414976230,0.849363595,0.0098938699999999,-0.0627170765,0.16477605,-0.1970746,-0.152559102
274,1778414976240,0.8384262722222222,-0.046073147,-0.0661861166666666,0.1764839611111111,-0.2331145922222222,-0.0566221481111111
275,1778414976250,0.83793303,-0.068180809,-0.065595294,0.141869274,-0.199151474,0.0746149929999999
276,1778414976260,0.8463400277777777,-0.0731512866666666,-0.0632320088888888,0.1012818677777777,-0.1539759366666666,0.1732600366666666
277,1778414976270,0.854449247,-0.071229765,-0.073306103,0.068567604,-0.15492614,0.2386885699999999
278,1778414976280,0.8847196477777778,-0.0449924639999999,-0.1065441502222222,0.0543145011111111,-0.1934095188888888,0.2733711044444444
279,1778414976290,0.92551136,-0.01243975,-0.10518907,0.0321000238,-0.2384900469999999,0.287128755
280,1778414976300,0.9613671,0.017562,-0.094456725,0.028862532,-0.2178434,0.2417428
281,1778414976310,1.03979247,0.0177815235,-0.2086646145,0.0233649072,-0.146374274,0.174122011
282,1778414976320,1.1285652444444445,0.0002439164222222,-0.5471999977777778,-0.0278105177777777,-0.2022328544444444,0.0871984455555555
283,1778414976330,1.1110709333333333,0.0087809995333333,-0.7390777000000001,-0.1622647855555555,-0.6048490688888889,-0.0340207977777777
284,1778414976340,1.03758179,0.0235867431,-0.765450144,-0.330804334,-1.2526187,-0.099720812
285,1778414976350,1.0474222444444443,0.0595698738888888,-0.6565085511111111,-0.42499697,-1.6044667,-0.16630317
286,1778414976360,1.00870522,0.05471661,-0.61853005,-0.4017847759999999,-1.5700149,-0.162882424
287,1778414976370,0.8521466000000001,0.047512936,-0.5433989444444445,-0.1932822577777778,-1.1710365888888887,-0.0682961155555555
288,1778414976380,0.847406151,0.0503992827,-0.590000918,-0.1519482594,-1.0840248,-0.0409573076
289,1778414976390,0.8701117422222223,0.0623105442222222,-0.8035292933333333,0.0106728616666666,-0.7566106977777778,0.0673119748888889
290,1778414976400,1.2212907,0.2189152,-1.2431823,0.017867282,-0.1414875,-0.004428643
291,1778414976410,1.4900597666666668,0.2809513777777778,-1.7241047,-0.33275905,0.25067645,-0.3776563
292,1778414976420,1.48473595,0.24208731,-1.92858815,-0.532139602,0.40167787,-0.51717382
293,1778414976430,1.3524366,0.1095694,-2.064480233333333,-1.044031302222222,0.8464306111111112,-0.8126474333333333
294,1778414976440,1.07677314,-0.0092901762,-2.04464676,-1.48403808,1.23458342,-0.8508186200000001
295,1778414976450,0.8610868,-0.050277323,-1.8803842,-1.7708377333333332,1.778278166666667,-0.63461939
296,1778414976460,0.687113236,-0.0004177072999999,-1.9133404,-1.87009361,2.1504267,-0.4734371519999999
297,1778414976470,0.8335378,0.1046944597777777,-1.6532198,-1.8448180777777776,2.594370055555556,-0.1295165821111111
298,1778414976480,0.8094984566666666,0.1592775953333333,-1.3748871333333332,-1.6452068,2.6940060555555556,0.0180369624444444
299,1778414976490,0.705528964,0.2061278999999999,-1.03999968,-1.18331805,2.60428617,0.164165206
300,1778414976500,0.6124442922222222,0.2489982533333333,-0.7353071422222223,-0.50623965,1.9525733,0.36513394
301,1778414976510,0.6016021850000001,0.244331328,-0.4844093799999999,-0.190553802,1.32950906,0.459937444
302,1778414976520,0.6272215611111112,0.2177091777777778,-0.2489576257777777,0.0618482866666666,0.658968444,0.5295197333333334
303,1778414976530,0.6991688399999999,0.15876536,0.1942491468,0.444727368,-0.3363477844,0.559749898
304,1778414976540,0.7715558722222222,0.0348936352111111,0.5361017777777778,0.9046138888888888,-0.9538464755555556,0.4200423288888888
305,1778414976550,0.8586477,-0.08713923,0.6518368,1.5083346,-1.4248776,0.22830416
306,1778414976560,0.96578807,-0.1586373,0.651349,1.8580786,-1.6230635555555557,0.1197090933333333
307,1778414976570,1.042414482,-0.157271372,0.686887652,1.97399874,-1.63702483,0.0680178412999999
308,1778414976580,1.1963943666666668,-0.1400318888888888,0.7351953322222222,2.129167466666667,-1.5325225,-0.0605587194444444
309,1778414976590,1.31275958,-0.0595522547999999,0.7187980079999999,1.83600831,-1.1568989200000002,-0.202465326
310,1778414976600,1.371147,-0.0041465834,0.72309095,1.4582535444444444,-0.9285302511111112,-0.2583374977777777
311,1778414976610,1.4087101666666666,0.0446333649111111,1.017312111111111,0.56891938,-0.4325222744444444,-0.1918230155555555
312,1778414976620,1.50116079,0.0952586033,1.32013191,0.270147204,-0.1923099939999999,-0.158850834
313,1778414976630,1.5203224666666668,0.0955950066666666,1.5933754,0.2229083533333333,0.0786890088888889,-0.1861217688888888
314,1778414976640,1.41018588,0.0302578624,1.95251616,0.27717196,0.54544844,-0.2008160349999999
315,1778414976650,1.3057469,-0.10543298,1.8586451,0.34039465,1.7320575,-0.06490252
316,1778414976660,1.29057227,-0.1192630549999999,1.81646885,0.1100441356,2.29886265,-0.0088267427199999
317,1778414976670,1.0602549111111113,-0.13836173,2.002470955555556,0.084449634,2.361841,-0.0025961008
318,1778414976680,0.86937997,-0.121287565,2.21398575,-0.4396573224,2.9999320000000003,0.15060439568
319,1778414976690,0.60799278,-0.0863871566666666,2.5638691,-1.037066,3.7320478000000006,0.29794076
320,1778414976700,0.36298763,-0.0419109808,2.67617143,-1.46210108,4.05035998,0.2050308799999999
321,1778414976710,0.27096093,0.030763991,2.315501,-1.7618107555555556,3.648633155555556,0.0220414048355555
322,1778414976720,0.2769582499999999,0.01435144779,2.12160254,-1.88658642,2.97008448,-0.1406475813679999
323,1778414976730,0.28562643,-0.0713117496888889,1.8928984222222225,-1.8976903,1.7813323666666667,-0.3589236766666667
324,1778414976740,0.389406861,-0.154042524,1.66707593,-1.71518274,0.4684129139999999,-0.51925073
325,1778414976750,0.5391778,-0.11982407,1.5106369,-1.2533822,-0.48783788,-0.5193729
326,1778414976760,0.6568066,-0.0556434899999999,1.2853799,-0.82265854,-0.89527303,-0.39964682
327,1778414976770,0.8239810000000001,-0.048813824,1.0342677,-0.66964132,-1.126784115,-0.29305397
328,1778414976780,0.9750569,-0.04735032,1.0091138,-0.308936,-1.6502802,-0.20112146
329,1778414976790,0.970227344,-0.0322579776,1.00516232,-0.1535364598,-1.71973351,-0.2229287059999999
330,1778414976800,0.93892676,0.0043905,1.0000888,0.013591352,-1.5274999,-0.1809635
331,1778414976810,0.94178057,-0.0263704406999999,1.02009301,0.0317335159999999,-1.23502627,-0.153475376
332,1778414976820,0.9312839666666668,-0.077429994,1.0764075777777775,0.0353782373333333,-0.9866964666666668,-0.1663031666666666
333,1778414976830,0.8764596680000001,-0.157606756,1.0815204,0.059160556,-0.6842863400000001,-0.223600644
334,1778414976840,0.8396018399999999,-0.2124819033333333,1.0423271,0.0820062426666666,-0.5367056666666667,-0.2595591866666666
335,1778414976850,0.8238834479999999,-0.264231883,0.99736615,0.1887823408,-0.35088593,-0.26110666
336,1778414976860,0.8256885,-0.2657777,0.8748986,0.5103459555555556,-0.1631386322222222,-0.1103088333333333
337,1778414976870,0.8278836540000001,-0.217454765,0.66536204,0.8327986299999999,-0.177466392,0.093490177
338,1778414976880,0.8188519688888889,-0.1987446611111111,0.5963051555555556,0.8926005666666667,-0.2141104422222222,0.1391204677777777
339,1778414976890,0.7863874,-0.15205155,0.4360925,1.2110555888888888,-0.6484907444444444,0.4258114366666666
340,1778414976900,0.7869727599999999,-0.0247514436,0.4044809,1.4634984599999998,-1.01377738,0.600676674
341,1778414976910,0.8378808777777778,0.0196488434444444,0.3831084,1.6174047333333332,-0.8664953222222223,0.6288163266666666
342,1778414976920,0.78312498,0.0063906169999999,0.329104572,1.67969251,-0.587161635,0.5752654089999999
343,1778414976930,0.7712645,-0.0152041388333333,0.1029023464666666,1.65196,-0.21662171,0.47142136
344,1778414976940,0.778240524,-0.0546068435999999,-0.06794299012,1.59680056,-0.2337254329999999,0.428662056
345,1778414976950,0.81154126,-0.045886826,-0.14009963,1.4614520777777775,-0.2861904333333334,0.37802961
346,1778414976960,1.0114005,0.011220166,-0.19037697,1.21512794,-0.067636061,0.31987017
347,1778414976970,0.983864971111111,-0.0308690091111111,-0.3524189255555556,1.0402219555555556,0.1904061844444444,0.2346162544444444
348,1778414976980,0.86775185,-0.0712541536,-0.434388151,0.90683331,0.286288856,0.183162551
349,1778414976990,0.8431555355555556,-0.0644515922222222,-0.4831345433333333,0.8681667,0.2989334,0.17088452
350,1778414977000,0.932773906,-0.00932066606,-0.5952907869999999,0.70250486,0.026739844,0.257869176
351,1778414977010,1.0309442,0.012683666,-0.66113615,0.5590100755555556,-0.4936069938888889,0.2166302022222222
352,1778414977020,1.063873,0.082230404,-0.6135419,0.5386485066666666,-0.8124014111111112,0.1544595222222222
353,1778414977030,1.0840114,0.101027237,-0.5981599,0.53678205,-0.918790625,0.1000262409999999
354,1778414977040,1.0787925777777778,0.1091188338888888,-0.5716661444444444,0.5366802266666667,-1.0355642333333333,0.027946262
355,1778414977050,1.04855504,0.070479721,-0.586802516,0.469955333,-1.05757506,0.00076355899
356,1778414977060,1.151927011111111,0.02520811,-0.50321024,0.3285849188888889,-0.8240074555555554,-0.0118266820666666
357,1778414977070,1.18679491,-0.0201017825,-0.4342479,0.2018544729999999,-0.46969571,0.0160958248
358,1778414977080,1.1824776,-0.057594825,-0.44148916,0.127276812,-0.3590169955555555,0.0400274631111111
359,1778414977090,1.1204983599999998,-0.079364387,-0.425963868,0.1095554541999999,-0.3616368559999999,0.0576334382
360,1778414977100,0.99897092,-0.1071403966666666,-0.3939762333333333,0.09327298,-0.3913919077777777,0.11604401
361,1778414977110,1.024151216,-0.0550154044,-0.4237259439999999,0.104851932,-0.297497888,0.220974
362,1778414977120,1.2859795333333333,0.0480244822222222,-0.7760107199999999,-0.07471001,-0.0485708398888888,0.2035309222222222
363,1778414977130,1.29888683,0.0501065817,-0.740710921,-0.21865277,-0.0480278666,0.157812388
364,1778414977140,1.314948,0.0478923599999999,-0.6109875666666666,-0.3050673066666667,-0.0299060639999999,0.1138042355555555
365,1778414977150,1.32008613,0.0226171732,-0.440733018,-0.395798482,-0.0121100466,0.0389415118
366,1778414977160,1.2485518,-0.0117080011777777,-0.3274073022222222,-0.494158451111111,-0.1235693097777777,-0.1651493466666666
367,1778414977170,1.1639398,0.0019513334,-0.29919428,-0.48547086,-0.17569494,-0.22922044
368,1778414977180,1.1046376,0.040032823,-0.36096618,-0.47997323,-0.207459,-0.25243264
369,1778414977190,1.0799579888888888,0.0675581435555555,-0.3596110799999999,-0.4932082688888888,-0.2118706722222222,-0.25412944
370,1778414977200,1.06140948,0.120141156,-0.3265769699999999,-0.5020859200000001,-0.161523285,-0.258480024
371,1778414977210,1.0285051,0.16205214,-0.2337941199999999,-0.4600867666666667,-0.0499282786666666,-0.2559619822222222
372,1778414977220,0.9876979,0.139782548,-0.1990604,-0.371547846,-0.011926792478,-0.215293118
373,1778414977230,0.9708561566666668,0.10044624,-0.1692951166666666,-0.2828731799999999,-0.0241369520177777,-0.1614163866666666
374,1778414977240,0.962940352,0.0615096879999999,-0.159173922,-0.2078407749999999,-0.080708195,-0.094834037
375,1778414977250,0.9619870244444444,0.0144520635666666,-0.1452489955555555,-0.15398441,-0.1398585666666666,-0.0221432133333333
376,1778414977260,0.961611,-0.005366167,-0.16302781,-0.122505419,-0.162744985,0.0505476122
377,1778414977270,1.0084735,0.01097625,-0.21623214,-0.133012,-0.19279866,0.07986828
378,1778414977280,0.9848135,0.042228073,-0.13619697,-0.17210622,-0.17080817,0.07986828
379,1778414977290,0.9932693,0.066294521,-0.0507651566666666,-0.1754319355555555,-0.1308994744444444,0.0684657933333333
380,1778414977300,0.98115483,0.0777179524999999,-0.003292875,-0.139731316,-0.0520594572,0.0270910752
381,1778414977310,0.9603914,0.06710757,-0.052960407,-0.0806827416666666,-0.0385936685555555,-0.0440658427777777
382,1778414977320,0.9551878888888888,0.0553995744444444,-0.0701158763333333,-0.040774055,-0.104225814,-0.10094251
383,1778414977330,0.945756375,0.0513017740999999,-0.071382216,-0.029167956,-0.1414875,-0.14064758
384,1778414977340,0.9355661222222224,0.0532856304444444,-0.0549015788888888,-0.0278105177777777,-0.1550618777777777,-0.1520500644444444
385,1778414977350,0.92268192,0.0556190996,-0.020592665,-0.026846737,-0.174595414,-0.170701272
386,1778414977360,0.9095212111111112,0.0439083882222222,0.0167997606666666,-0.0186478096666666,-0.1871653011111111,-0.1676606111111111
387,1778414977370,0.9007049800000001,0.0129824644,0.0103908502,-0.0072996248399999,-0.2290829959999999,-0.12146698
388,1778414977380,0.897593011111111,-0.0165050272222222,0.0199469641666666,0.0028675886,-0.2648786355555555,-0.0431156353333333
389,1778414977390,0.912934385,-0.0208548745,0.022684251,0.0102316914999999,-0.2715979599999999,0.007788303
390,1778414977400,0.949117062222222,-0.0268274461111111,0.0185918715555555,0.0156275087555555,-0.22401975,0.0823116715555555
391,1778414977410,0.98286223,0.002927,0.00048783334,0.0025961008,-0.13415733,0.1091889439999999
392,1778414977420,0.97700816,0.032471407,0.011464084,-0.0267245683555555,-0.0885474011111111,0.0880129137777777
393,1778414977430,0.958321136,0.0495943597,0.00773215903,-0.0622758798,-0.075699242,0.0573280147
394,1778414977440,0.9354306,0.054749132,0.0411609402333333,-0.0722666251111111,-0.0806742538888888,0.0409776702222222
395,1778414977450,0.917852315,0.0531311469,0.07242496,-0.0515249652,-0.088710293,0.0230594848
396,1778414977460,0.9403902,0.0358049311111111,0.0561855277777777,-0.0027657801111111,-0.0824389277777777,0.0388057684444444
397,1778414977470,0.95673263,0.023659917,0.024635585,0.0423011725,-0.069407524,0.072415944
398,1778414977480,0.99408233,0.016342416,-0.02930049,0.05390727,-0.044362783,0.10124794
399,1778414977490,1.008869757777778,0.0221693154444444,-0.0451550733333333,0.049020492,-0.032960301,0.1281252133333333
400,1778414977500,1.02035824,0.0411944745,-0.0416182798,0.0416903258,-0.0260373648,0.14596195
401,1778414977510,1.0059665111111111,0.0538547644444444,-0.0102580501111111,0.0262155294444444,-0.0235261031111111,0.1461112666666666
402,1778414977520,0.951274979,0.0507163728999999,0.0403925980999999,0.0273354148,-0.0735001974,0.1176797255999999
403,1778414977530,0.9425855,0.03369099,0.053936075,0.048409645,-0.13965495,0.09147438
404,1778414977540,0.969431565,0.02452887,0.0445300375,0.0578777774999999,-0.141487495,0.0716218425
405,1778414977550,1.0341016688888889,0.0073717037222222,-0.0035130777777777,0.0806488064444444,-0.1461706655555555,0.0313398586666666
406,1778414977560,1.0879446,-0.00653696689,-0.0571313812,0.0822505848,-0.1431367929999999,0.0150573849
407,1778414977570,1.0990004666666666,-0.0100276855555555,-0.0638282488888888,0.082006246,-0.1427092,0.013896775
408,1778414977580,1.1256877200000002,-0.018123009,-0.0700864092,0.0240368391,-0.0395370897999999,-0.0239757554
409,1778414977590,1.0967510666666669,-0.0132528059999999,-0.0397990713333333,0.012369657,0.011224318,-0.0298806123333333
410,1778414977600,1.0812217,-0.010488417,-0.022958657,0.009926268,0.027717194,-0.03191677
411,1778414977610,1.0812217,-0.010488417,-0.022958657,0.009926268,0.027717194,-0.03191677
412,1778414977620,0.949390769,0.004073408314,-0.0644244872,-0.0165845030499999,0.140907184,-0.064352758
413,1778414977630,0.92941403,0.00048783334,-0.04539899,-0.0257743611111111,0.1446605022222222,-0.068092501
414,1778414977640,0.9572205,-0.00512225,-0.07543123,-0.031611346,0.15782766,-0.075286925
415,1778414977650,0.9878185,-0.0142284722222222,-0.1266266255555555,-0.0529909997777777,0.1572846866666666,-0.0805809333333333
416,1778414977660,1.017355035,-0.0219525,-0.186837131,-0.09208523,0.16393614,-0.08628218
417,1778414977670,1.0821973,-0.020489,-0.28382754,-0.19409671,0.2286859499999999,-0.10460759
418,1778414977680,1.1185409,-0.015610667,-0.38779703,-0.2997733,0.32947573,-0.1253764
419,1778414977690,1.1098682777777775,-0.0119248154444444,-0.4543862744444444,-0.3681881888888889,0.3807869122222222,-0.1268017166666666
420,1778414977700,1.0588898000000002,0.0175891026666666,-0.5477555655555555,-0.4951086577777778,0.4809658688888888,-0.0825492222222222
421,1778414977710,1.0385057,0.07125416,-0.5889063,-0.569218006,0.5543286199999999,-0.0302063973
422,1778414977720,1.0244128111111113,0.1463262933333333,-0.6329197222222223,-0.6880685444444444,0.5760543955555555,0.0116570016666666
423,1778414977730,1.0266026199999998,0.21031715,-0.6832410999999999,-0.828767,0.4223245400000001,-0.022143213
424,1778414977740,0.9713981,0.28260794,-0.61890805,-0.8641962,0.19692189,-0.09239065
425,1778414977750,0.938591332,0.282998212,-0.580247234,-0.8051883280000001,0.0844649076,-0.118473833
426,1778414977760,0.9269748,0.28407145,-0.5403364,-0.65223217,-0.06513159,-0.13087402
427,1778414977770,0.93802724,0.254996575,-0.6819635799999999,-0.4545619939999999,-0.183513793,-0.094956205
428,1778414977780,1.0016438,0.22403745,-0.8497752,-0.25518143,-0.28870168,-0.03191677
429,1778414977790,1.1039059,0.21769562,-0.9110288,-0.08047912,-0.23677967,0.051158458
430,1778414977800,1.1829755,0.2193217466666666,-0.9188340666666668,-0.0409776686666666,-0.0775521504,0.0702983393333333
431,1778414977810,1.24517022,0.213695402,-0.908492004,-0.012919419,0.20828364188,0.061298524
432,1778414977820,1.1493049,0.16693048,-0.8727339,0.013591352,0.5848099,-0.0038177953
433,1778414977830,0.946976,0.08564524,-0.77730143,0.0971552558,0.63263923,0.01322484302
434,1778414977840,0.772728,0.0014635,-0.75925165,0.2199219793333333,0.4327089333333333,0.1090532077222222
435,1778414977850,0.72899376,-0.043636692,-0.73737233,0.293542642,0.2150640489999999,0.1939134659999999
436,1778414977860,0.7137238888888889,-0.1074080244444444,-0.6572910866666667,0.4026331833333333,-0.16476756,0.3077821877777777
437,1778414977870,0.64119595,-0.15302722,-0.5537518,0.4840048390000001,-0.538416047,0.408809522
438,1778414977880,0.6544216833333334,-0.1523767755555555,-0.5075431244444445,0.4662291699999999,-0.70468867,0.4891359499999999
439,1778414977890,0.7016331044444445,-0.1570653988888888,-0.4456933199999999,0.36849362,-0.88000184,0.5209
440,1778414977900,0.753604956,-0.1885049099999999,-0.34055035,0.345281424,-0.995329784,0.505262308
441,1778414977910,0.7301814888888889,-0.2367753366666666,-0.2224994333333333,0.27503399,-1.3409879,0.4736611366666667
442,1778414977920,0.6463547550000001,-0.268866298,-0.0720865239,0.238749652,-1.72981252,0.489135948
443,1778414977930,0.75165971,-0.25404937,0.1498359743333333,0.26750019,-1.9070651333333335,0.5109228299999999
444,1778414977940,0.7939792,-0.24111164,0.3904801,0.458899,-2.0865016,0.48302746
445,1778414977950,0.8378977955555555,-0.2480632666666666,0.3785417266666666,0.458899,-2.0865016,0.48302746
446,1778414977960,1.006915472,-0.244779531,0.308277124,0.60385304,-1.9321404,0.451385598
447,1778414977970,1.1621173111111112,-0.2131967166666666,0.2381338222222222,0.6360447,-1.8121548000000005,0.3126011
448,1778414977980,1.33684327,-0.1044512163999999,0.2005787859999999,0.4888305,-1.7700063,0.13912046
449,1778414977990,1.4470357,0.012683666,0.26769856,0.3324536111111111,-1.803127811111111,0.009349356
450,1778414978000,1.45245058,0.0359716124,0.415896202,0.2260440199999999,-1.77061718,-0.0669794038
451,1778414978010,1.4300225000000002,0.023182248,0.6565524766666666,0.1572761977777778,-1.5610287222222223,-0.1390865183333333
452,1778414978020,1.4087102,-0.0866514,0.90566254,0.278515806,-0.91555312,-0.179925053
453,1778414978030,1.4306931,-0.18302898,0.8441346,0.42163733,-0.17202985,-0.25670856
454,1778414978040,1.4404499,-0.1780422333333333,0.7233145111111111,0.5161149922222222,0.2558347011111111,-0.3164358577777777
455,1778414978050,1.45064562,-0.1435510579999999,0.6709171599999999,0.5579783920000001,0.392637342,-0.33147627
456,1778414978060,1.4946773222222225,-0.0242155041,0.5705583444444444,0.6254566899999999,0.5306481000000001,-0.3322500066666667
457,1778414978070,1.5434438,0.09177365,0.47027132,0.5853444,0.30931777,-0.29824618
458,1778414978080,1.4792123333333334,0.1494734988888889,0.5034711244444445,0.46989426,-0.0742943,-0.23716144
459,1778414978090,1.39454165,0.115387833,0.58733608,0.3165105,-0.528398156,-0.0969719994999999
460,1778414978100,1.3089075666666667,0.077280934,0.6843692,0.2448309711111111,-0.6935576733333333,-0.0284553005555555
461,1778414978110,1.21170791,0.0679856736,0.8108338350000001,0.131240532,-0.8517807,0.0925738989999999
462,1778414978120,1.1878199444444446,0.0994129811111111,0.8512352799999999,0.0491562342222222,-0.7375387277777778,0.1529663266666666
463,1778414978130,1.2317761,0.161000261,0.8619466539999999,-0.0757145207999999,-0.538904736,0.11554176
464,1778414978140,1.2131872666666663,0.1856307488888889,0.8767415333333334,-0.2835519088888889,-0.34021648,0.0012047266666666
465,1778414978150,1.18492276,0.193371036,0.90477844,-0.4686114779999999,-0.1506502089999999,-0.0857935
466,1778414978160,1.1553215,0.1964443933333333,0.9737357,-0.6863717555555555,0.1424885988888888,-0.1979314822222222
467,1778414978170,1.12210515,0.1816386519999999,1.0517779099999998,-0.93163368,0.728908762,-0.37521294
468,1778414978180,1.0821973,0.1188484,1.1016192,-1.037066,1.5915625,-0.58778775
469,1778414978190,1.09397844,0.0797272129999999,1.03140164,-1.00713442,1.95074076,-0.6527819450000001
470,1778414978200,1.118297,0.023416,0.83071923,-0.9417737333333334,2.2288799,-0.71240062
471,1778414978210,1.14751521,0.01214705049,0.707721159,-0.84666482,2.1986226,-0.72015836
472,1778414978220,1.1590616,0.008781,0.53493977,-0.7739943666666667,1.9965543,-0.6897992433333333
473,1778414978230,1.1361333,0.041252404,0.37118018,-0.703482267,1.37764377,-0.5812517500000001
474,1778414978240,1.1383014777777778,0.0535024422222222,0.3500271933333334,-0.7078192722222223,1.1444222955555554,-0.5562952377777778
475,1778414978250,1.1605249888888889,0.0730428811111111,0.3240195911111111,-0.7298097555555556,0.7594867666666666,-0.5391236222222222
476,1778414978260,1.2042531,0.0853708359999999,0.332043774,-0.739033549,0.38604021,-0.558100599
477,1778414978270,1.206709977777778,0.0974650355555555,0.3394981333333333,-0.7135205033333334,0.1397737322222222,-0.6000047377777777
478,1778414978280,1.1246388,0.056375243,0.36874104,-0.6539289388888889,-0.0593624744444444,-0.6358410911111112
479,1778414978290,1.0871298222222223,0.0329321381111111,0.3950027377777778,-0.5963057244444445,-0.1219403844444444,-0.6581030822222222
480,1778414978300,1.0470427,0.01683025,0.4522215,-0.5168072770000001,-0.087305345,-0.69676291
481,1778414978310,1.0273126555555556,0.0137948423333333,0.5201624888888889,-0.42275718,0.0136677066666666,-0.7382598066666666
482,1778414978320,0.98844793,0.0073175001,0.5877263859999999,-0.255181438,0.212437408,-0.796086652
483,1778414978330,0.9511226000000002,-0.00219525,0.58570486,0.1832032722222222,0.6686995555555556,-0.7982586
484,1778414978340,0.94695164,0.0059271753,0.534528151,0.452057498,0.85791968,-0.74257648
485,1778414978350,0.9103682,0.0102445003333333,0.42893765,0.8372170822222222,0.9847875555555556,-0.5569060666666666
486,1778414978360,0.8694287700000001,0.0075126332,0.316301999,1.04897746,0.996963782,-0.40624398
487,1778414978370,0.8199190955555555,-0.0171554725555555,0.2649104466666667,1.3139493666666666,0.9000155744444444,-0.1517785711111111
488,1778414978380,0.8072422039999999,-0.0198548168,0.26877788,1.4082930399999998,0.903504194,-0.0664907179999999
489,1778414978390,0.77638674,-0.019269416,0.2965112,1.692276,0.96116817,0.18126893
490,1778414978400,0.8030925720000001,-0.0628298798,0.1892214019999999,1.84578194,1.136908931,0.293725904
491,1778414978410,0.7899173755555556,-0.1270534755555555,-0.0239919202222222,1.9723834,1.1689919888888889,0.4625980244444444
492,1778414978420,0.800565,-0.12226323,-0.26333854,1.9642386888888892,1.069220277777778,0.6170745066666667
493,1778414978430,0.8648644600000001,-0.083111556,-0.453639274,1.82580714,0.85653,0.77501247
494,1778414978440,0.8330059,-0.09323715,-0.47518018,1.8107803,0.8341119,0.7908945
495,1778414978450,0.763947,-0.11543357,-0.45685592,1.6757832,0.20974968,0.9625426
496,1778414978460,0.8400896333333334,-0.07183346,-0.4345782066666667,1.6513492666666665,0.2085279866666666,0.98168244
497,1778414978470,0.98943579,-0.002981881,-0.44041595,1.5878211400000002,0.262893388,0.979890634
498,1778414978480,1.0940611666666666,0.0092146293333333,-0.6303619666666667,1.3738209888888888,0.2224417311111111,0.9299640522222222
499,1778414978490,1.0568056,-0.0744921534,-0.7531415,1.166199,-0.0865112429999999,0.865662182
500,1778414978500,1.0344675888888888,-0.0275151555555555,-0.5480740000000001,0.9687528166666666,-0.5941931866666667,0.7915053222222223
501,1778414978510,1.09140518,-0.0029269999,-0.34595922,0.810136175,-1.0183586999999998,0.6360447
502,1778414978520,1.0951249,0.0394873970555555,-0.1273380555555555,0.7318798488888889,-1.1409014444444443,0.4393179533333333
503,1778414978530,1.0326518,0.020245085,-0.084456146,0.6823469520000001,-0.92831983,0.208573791
504,1778414978540,1.0473951777777777,-0.0361538705555555,-0.1731605051111111,0.6364519422222222,-0.5965686777777778,0.1821512522222222
505,1778414978550,1.1623483,-0.0539604652999999,-0.366783589,0.466962178,-0.300552116,0.17283923
506,1778414978560,1.2427656333333332,-0.0736933223333333,-0.4601183,0.2622061866666667,-0.1477995799999999,0.1403421533333333
507,1778414978570,1.3585182999999998,-0.0916913265,-0.554547581,-0.171006684,0.186170976,-0.01664559
508,1778414978580,1.4129381222222224,-0.0887924411111111,-0.5216666,-0.6327529044444444,0.5032957244444445,-0.2558940955555556
509,1778414978590,1.1832093,-0.06100966,-0.34971553,-1.1173389500000002,0.8118694449999999,-0.4757583719999999
510,1778414978600,1.1195470333333333,-0.0609012524444444,-0.36989285,-1.2039715111111111,0.83716615,-0.4843509599999999
511,1778414978610,1.0262963111111112,-0.0513342981111111,-0.4047763222222222,-1.4052796,0.79091991,-0.4248951766666666
512,1778414978620,0.98492025,-0.025870413,-0.37865015,-1.5399918,0.649804038,-0.333675322
513,1778414978630,0.8866438511111112,0.0138490466666666,-0.1657176611111111,-1.7031694666666666,0.2898385488888888,-0.0868251522222222
514,1778414978640,0.82763976,-0.010000584,-0.0866514,-1.714572,0.12667444,0.020005248
515,1778414978650,0.819184008888889,-0.0518729448888888,0.0053322888888888,-1.650433,0.06925481,0.14767233
516,1778414978660,0.8705996,-0.04783816,0.05564349,-1.58849302,0.087213716,0.229037172
517,1778414978670,0.9061843111111112,-0.0317938604444444,0.0634488188888889,-1.4783097444444444,0.1210410822222222,0.3621475955555555
518,1778414978680,0.9345362,0.0151228339999999,0.08515741,-1.35215627,0.1508029129999999,0.412474622
519,1778414978690,0.9022037555555557,0.0268308322222222,0.1363528055555555,-1.1375926666666667,0.2048629033333333,0.4173274377777778
520,1778414978700,0.86713596,0.0179522664,0.190194022,-0.9126974,0.312494186,0.4389243
521,1778414978710,0.848792761111111,0.0056100833333333,0.2449092811111111,-0.6941091111111111,0.4680023222222222,0.5144521555555556
522,1778414978720,0.8731820750000001,-0.0211750166,0.284894676,-0.3247569351,0.771003768,0.702565978
523,1778414978730,0.91770595,-0.03661799,0.21156722,0.018478129,1.0668447,0.8660287
524,1778414978740,0.91673034,-0.04686249,0.23550156,0.27747735,1.3973131,0.97170526
525,1778414978750,0.918876708,-0.068132026,0.0631012456,0.364462014,1.54049566,1.009333452
526,1778414978760,0.8963598277777778,-0.0704682044444444,-0.1032445035555555,0.3442633266666666,1.6866511,1.0912277
527,1778414978770,0.994320215,0.0037288759999999,-0.303096962,0.2086959649999999,1.67469883,1.12362305
528,1778414978780,1.1756242,0.0939011413333333,-0.3969201644444444,0.008025856,1.330459211111111,0.9822933111111112
529,1778414978790,1.35772254,0.1571463596,-0.520012027,-0.1441294138,0.90112187,0.76756014
530,1778414978800,1.4497492666666667,0.1840588388888889,-0.543398888888889,-0.3400892155555555,0.3654648188888889,0.4198387233333334
531,1778414978810,1.5114602,0.20205447,-0.55326396,-0.4282955559999999,0.1274074624,0.2028929204
532,1778414978820,1.3859887,0.1593690611111111,-0.1508590689999999,-0.4414219766666666,0.0588025335555555,-0.0873002575555555
533,1778414978830,1.2701473,0.1023535348,0.0778947867999999,-0.13081294,0.0489135962999999,-0.257075061
534,1778414978840,1.2351941,0.075888574,0.10299382,0.0801737,-0.037643462,-0.3660502
535,1778414978850,1.2453409800000002,0.0768642428,-0.0325018999999999,0.147611244,-0.0347113964,-0.4452160239999999
536,1778414978860,1.2436498333333337,0.0621479353333333,-0.2030504766666666,0.16447063,-0.03397838,-0.46500748
537,1778414978870,1.2415359,0.0546678229999999,-0.2713878,0.17790927,-0.28014982,-0.5804576
538,1778414978880,1.1467166777777775,0.0707121237777777,-0.1682178074444444,0.1116662716666666,-0.8590972888888888,-0.71993439
539,1778414978890,1.0711906,0.079303406,-0.048569907,0.097277425,-0.98140246,-0.8101362
540,1778414978900,0.95478135,0.03734974,-0.03442274,0.15714046,-0.9844567,-0.8675558
541,1778414978910,0.9177703777777776,0.0245949305555555,-0.0311705177777777,0.1734297155555555,-0.9959949222222224,-0.8573750222222222
542,1778414978920,0.86767264,0.0034636166,0.0032623848,0.201610144,-1.00180478,-0.8213757599999999
543,1778414978930,0.8642848533333333,-0.0023036575555555,0.0051493517777777,0.2216866622222222,-0.9797735466666668,-0.7742319222222223
544,1778414978940,0.8535742199999999,-0.0436854766999999,-0.0457831608,0.2105285079999999,-0.939009652,-0.70323792
545,1778414978950,0.8794618622222221,-0.0580555576666666,-0.0331760551111111,0.1670497611111111,-0.8659523144444444,-0.6384202499999999
546,1778414978960,0.90721447,-0.0557166659,0.0165345007,0.127331112,-0.7881303880000001,-0.601592946
547,1778414978970,0.872313711111111,-0.0635572347777777,0.0477229738888888,0.1003316633333333,-0.7071320533333334,-0.57068409
548,1778414978980,0.7879788999999999,-0.0931365345,0.0771081537,0.0741263129,-0.5874059600000001,-0.496405033
549,1778414978990,0.7296699288888889,-0.1062731388888888,0.0592446499999999,0.0499706984444444,-0.3653290755555555,-0.2597628011111111
550,1778414979000,0.74004316,-0.09640807,0.00804925,0.0330162948,-0.261091392,-0.1118155928
551,1778414979010,0.8062462533333333,-0.06288985,-0.06500379,-0.0169510116666666,-0.2127530166666666,0.0442355246666666
552,1778414979020,0.91605345,-0.0023995308,-0.141505203,-0.0836555336,-0.220286796,0.146939306
553,1778414979030,1.0148932555555554,0.0736086328888888,-0.1642744822222222,-0.1330798638888889,-0.3034298777777777,0.1552061055555555
554,1778414979040,1.0971677333333334,0.1118459566666666,-0.1466040833333333,-0.1334870922222222,-0.3715054155555555,0.1051166288888889
555,1778414979050,1.16091228,0.149045285,-0.137346436,-0.1065012176,-0.4329838009999999,-0.0065666099999999
556,1778414979060,1.130005,0.16107647,-0.18623038,-0.06398625,-0.46096063,-0.12965234
557,1778414979070,1.1201995,0.167076812,-0.252984274,-0.0518914739999999,-0.5360948320000001,-0.164470628
558,1778414979080,1.0658311111111112,0.1765787288888889,-0.30984194,-0.0338511192222222,-0.68310539,-0.2024110222222222
559,1778414979090,0.94014627,0.14445965,-0.4019442,-0.0139578596,-0.8652803930000001,-0.174732863
560,1778414979100,0.8073947,0.014635001,-0.6240303,-0.06398625,-1.1548831,-0.09239065
561,1778414979110,0.6238779,-0.10567689,-0.64086056,-0.2081462,-1.49146,0.078035735
562,1778414979120,0.62729268,-0.1141326726666666,-0.4078794933333333,-0.2374668666666667,-1.5362554,0.245815125
563,1778414979130,0.7658190869999999,-0.0605980474,-0.226601632,-0.182857125,-1.34809414,0.444055409
564,1778414979140,0.8237371,-0.041008487,-0.37804034,-0.0258422325777777,-1.0733010111111112,0.4898825411111112
565,1778414979150,0.803492,0.007073583,-0.40731034,-0.0071774554,-1.0418763,0.49402273
566,1778414979160,0.8544705777777778,0.0157461758888888,-0.4528685533333333,0.0259440409555555,-0.4087670911111111,0.6064186144444444
567,1778414979170,0.8875111666666666,0.0230094726666666,-0.5057611766666666,-0.0055485286666666,-0.0954703288888889,0.6079118222222222
568,1778414979180,0.875380364,0.0218549336,-0.592601624,-0.0922073922,0.374495174,0.58204582
569,1778414979190,0.8773750311111111,0.0142826756666666,-0.6993124555555555,-0.1317902933333333,0.5416433266666667,0.5915546666666667
570,1778414979200,0.985588,0.0245624086,-0.761687752,-0.111632336,0.351893826,0.579358085
571,1778414979210,1.101019522222222,0.0180769357777777,-0.8443751666666667,-0.1446859588888888,0.2360839822222222,0.4602225044444444
572,1778414979220,1.16988534,0.0156594504,-0.936304636,-0.296535798,0.202908188,0.268192489
573,1778414979230,1.3261681555555556,0.0332234832222222,-1.2031528333333332,-0.6617342377777777,0.2584138388888889,-0.0264191449999999
574,1778414979240,1.3996853,0.05344824,-1.3154122,-1.0957073,0.2757212,-0.33306447
575,1778414979250,1.3823673,0.09738373,-1.1650985,-1.688373377777778,0.3059241733333333,-0.8117651177777777
576,1778414979260,1.2742511,0.12104365,-1.1167725,-1.8452932,0.33252996,-0.9616263
577,1778414979270,1.1301201,0.1184689722222222,-1.017122361111111,-1.902984311111111,0.2609250933333333,-0.9959016333333334
578,1778414979280,0.90430273,0.105823249,-0.745894115,-1.83967344,0.0238077704,-0.93389382
579,1778414979290,0.772545088888889,-0.0375563911111111,0.0090926755555555,-1.3556651888888889,-0.0162638074444444,-0.7600467022222223
580,1778414979300,0.74251283,-0.1046890359999999,0.159100748,-1.1082678,0.0316877,-0.672084685
581,1778414979310,0.59213823,-0.28407145,0.17278448,-0.5599942333333333,0.0256810354666666,-0.4088095233333333
582,1778414979320,0.5568278733333334,-0.2886245688888889,0.3012913044444444,-0.2669911644444444,-0.1182752963111111,-0.1819137
583,1778414979330,0.591324139,-0.25387763,0.374567581,-0.0933069216,-0.251317832,0.0142632839999999
584,1778414979340,0.6746632855555555,-0.1518652266666666,0.2982525077777778,0.1080011937777777,-0.4258029444444444,0.3530527466666666
585,1778414979350,0.82631645,-0.0488168726,0.272897025,0.112182097,-0.504269677,0.538186983
586,1778414979360,0.9242918,-0.029788323,0.30334088,0.17424418,-0.6203917,0.56549186
587,1778414979370,0.9541655,-0.0280321241999999,0.30729233,0.2651382519999999,-0.74720362,0.537637226
588,1778414979380,1.0228612666666663,-0.0152651187777777,0.3296804822222222,0.4609351666666666,-1.0076689,0.4763081566666667
589,1778414979390,1.07899286,-0.0266570431,0.352740097,0.70897986,-1.30643428,0.403678409
590,1778414979400,1.1528248222222224,-0.0683000577777777,0.3417746966666666,1.1100621,-1.6728816,0.31443363
591,1778414979410,1.19328007,-0.083837209,0.289742522,1.2376071,-1.7542464599999998,0.304537908
592,1778414979420,1.2936188,-0.1235099177777778,0.2502178633333333,1.4081556555555554,-1.8516307555555551,0.2813121433333333
593,1778414979430,1.34567609,-0.146651849,0.276964333,1.5458864,-1.88944222,0.257380496
594,1778414979440,1.3928556,-0.1513198,0.33361703,1.6861675,-1.8017703,0.24601874
595,1778414979450,1.4635644,-0.138067,0.3090898566666666,1.6809413,-1.4468680444444444,0.2426930088888889
596,1778414979460,1.5054841499999998,-0.1367762749999999,0.31236579,1.57129,-1.160075285,0.22158484
597,1778414979470,1.5353944,-0.15912513,0.39706585,1.3208045,-0.79875916,0.17332791
598,1778414979480,1.5110821,-0.147691536,0.419603752,1.22917742,-0.660952024,0.169296318
599,1778414979490,1.4864180777777778,-0.0947548466666666,0.42790774,1.0660133222222223,-0.3774102888888888,0.1671515588888888
600,1778414979500,1.4818487,-0.054972718,0.4383548339999999,1.011837956,-0.2845479199999999,0.148161
601,1778414979510,1.478287488888889,-0.0108000883333333,0.4718974644444444,0.9516491444444444,-0.1815997933333333,0.1107500022222222
602,1778414979520,1.46892412,0.0480241464,0.57112479,0.811235718,0.055327488,0.004734066
603,1778414979530,1.420343666666667,0.0930406566666666,0.6785761688888888,0.6307506799999999,0.3415569477777778,-0.1122092433333333
604,1778414979540,1.3132981333333331,0.0951071733333333,0.7341688533333333,0.3591272799999999,0.7412377033333333,-0.21944687
605,1778414979550,1.1483293,0.05174082,0.73873216,0.0270299909999999,1.1884034,-0.2560977
606,1778414979560,1.0801951666666667,0.0298154235555555,0.69751024,-0.1450931921111111,1.3409794,-0.2463241622222222
607,1778414979570,1.0352372200000002,0.0431275162,0.713870893,-0.34546466,1.46633882,-0.245835478
608,1778414979580,1.0079144866666667,0.066213209,0.7100820566666667,-0.5648131288888889,1.584028711111111,-0.2459847944444444
609,1778414979590,0.936152166,0.1079148309999999,0.63376865,-0.82620144,1.58429341,-0.224333658
610,1778414979600,0.9252674,0.13909347,0.62476206,-1.1607964,1.2257328777777778,-0.1722759011111111
611,1778414979610,0.9428294,0.127580614,0.651690412,-1.26401094,0.96515394,-0.170579096
612,1778414979620,0.9130716,0.1159213899999999,0.6005838,-1.3427695888888889,0.5719821277777778,-0.1858502833333333
613,1778414979630,0.94923834,0.112848046,0.570124698,-1.36455646,0.338027614,-0.2111393579999999
614,1778414979640,0.9813174444444444,0.0923732755555555,0.5331239566666667,-1.3735155,0.1213804366666666,-0.2650568033333333
615,1778414979650,0.9862283,0.0537409385,0.448172492,-1.3523395,-0.15003936,-0.37276953
616,1778414979660,1.0042998444444444,0.0487325178888888,0.41476335,-1.372293777777778,-0.1980248111111111,-0.3908234633333333
617,1778414979670,1.0271849400000002,0.0268094919,0.4813177119999999,-1.3878908,-0.2410555959999999,-0.4179722339999999
618,1778414979680,1.0230949666666669,0.0113827783888888,0.5323142422222222,-1.3527467222222225,-0.22496995,-0.4288996088888889
619,1778414979690,0.98052062,-0.00448806666,0.561069332,-1.24312002,-0.138311094,-0.387796384
620,1778414979700,0.9357558,-0.014391083,0.5056698,-1.2240616,-0.1237729299999999,-0.37826717
621,1778414979710,0.9266496555555556,-0.0153396483333333,0.4802245277777778,-0.950817688888889,-0.1332749944444444,-0.1768233135555555
622,1778414979720,0.924608904,-0.0181260577,0.465170455,-0.816550052,-0.1296370596,-0.0999651516
623,1778414979730,0.9373548555555556,-0.0456429055555555,0.3679991088888888,-0.6692680055555555,-0.1163070155555555,-0.0585225588888888
624,1778414979740,0.955756967,-0.0543751227,0.314978754,-0.536293368,-0.1120446599999999,-0.0302063968
625,1778414979750,0.961611,-0.06320491,0.31041446,-0.4053819933333333,-0.0627560723333333,-0.0127768888888888
626,1778414979760,0.942073233,-0.053106757,0.3007553719999999,-0.272346254,0.0833042957,0.0066887767
627,1778414979770,0.9486292155555556,-0.0402225373333333,0.2744265911111111,-0.1458397833333333,0.2471470977777777,0.0331045282222222
628,1778414979780,0.934170375,-0.0390571559999999,0.242819045,-0.0647192664,0.312982856,0.0528688304
629,1778414979790,0.9054322577777776,-0.0359404431111111,0.1527392611111111,0.117028153,0.3563530233333333,0.120795048
630,1778414979800,0.939411512,-0.0109061243,-0.117522097,0.295497339,0.129728686,0.205153055
631,1778414979810,0.9490628755555556,-0.0388606682222222,-0.2297457844444444,0.37399122,-0.5110501,0.21791977
632,1778414979820,0.95726928,-0.057350904,-0.211262324,0.37399122,-0.76778914,0.1986780669999999
633,1778414979830,0.9914670666666668,-0.0503044238888888,-0.1036815222222222,0.3617742866666666,-0.8085326833333333,0.1493691222222222
634,1778414979840,1.04210662,-0.0157173804799999,0.0582594964,0.347969148,-0.729977768,0.0746149944
635,1778414979850,1.0238707,0.0131715005,0.12543415,0.3484713977777778,-0.5837409388888889,0.0354800457777777
636,1778414979860,0.9526808555555556,-0.0071277866666666,-0.0698753466666666,0.4048729644444444,0.5265079333333333,-0.0464413587777777
637,1778414979870,0.907507146,-0.0278827255,-0.287577746,0.422492512,0.6631205,0.0179283674
638,1778414979880,0.8764536133333333,-0.049545572,-0.4357164866666667,0.4271349533333333,0.4215100533333333,0.0983973153333333
639,1778414979890,0.79513178,-0.0993777476,-0.476960782,0.421026468,-0.168792375,0.207535352
640,1778414979900,0.857428,-0.10689648,-0.49493742,0.32206923,-0.9166527,0.27717194
641,1778414979910,0.933630694,-0.0429872667,-0.345578082,0.2258607819999999,-1.03766156,0.248950803
642,1778414979920,0.9392790822222222,0.0062029365555555,-0.1445816133333333,0.1629095766666666,-0.9092546155555554,0.2004766788888888
643,1778414979930,0.944341691,0.0186443818,-0.09561839,0.21517095,-0.6338303799999999,0.199899765
644,1778414979940,0.9932117033333334,0.0555621877777777,-0.0323358971111111,0.3593308933333333,-0.0747015299999999,0.2295258566666666
645,1778414979950,1.05682079,0.062473157,-0.0958927953,0.653148468,0.4903728959999999,0.336179802
646,1778414979960,1.0677214666666666,0.0297612211111111,-0.1886898822222222,0.9233465666666666,0.6395825244444445,0.4774619799999999
647,1778414979970,1.034603,-0.0009756667,-0.25602102,1.1277767,0.60985464,0.62474406
648,1778414979980,1.0435466666666666,-0.0004878333466666,-0.2750465266666667,1.1961916666666663,0.6108048588888889,0.6922087688888889
649,1778414979990,1.0986955444444446,0.0284264551844444,-0.3149370788888889,1.2434305333333333,0.6448765566666668,0.740805
650,1778414980000,1.16259523,0.0480332912,-0.37545177,1.21549444,0.755786052,0.76151276
651,1778414980010,1.2796173,0.048325993,-0.5810705,1.0691354,0.84327465,0.7072084
652,1778414980020,1.2980483,0.02440691317,-0.661852665,0.977263984,0.7985300900000001,0.6612726959999999
653,1778414980030,1.309957911111111,-0.0243272996266666,-0.7831859577777778,0.7460651,0.5888822055555556,0.5445873
654,1778414980040,1.30457,-0.0622780208,-0.761459068,0.389873272,-0.057434912,0.3617132
655,1778414980050,1.2896450222222222,-0.0687336811111111,-0.588560771111111,0.1817100955555555,-0.4306897177777778,0.2158836
656,1778414980060,1.2296876600000002,-0.0520823084,-0.25600884,0.0074828791999999,-0.64891831,0.04773771265
657,1778414980070,1.2165208333333333,-0.0216306667777777,-0.1237606133333333,-0.0814972004444444,-0.3326148177777777,-0.1521179300555555
658,1778414980080,1.2021128,-0.0205926653999999,-0.1136773679999999,-0.099904066,-0.1584690508,-0.232152488
659,1778414980090,1.108896,-0.0393281772222222,-0.1292148488888888,-0.1214737688888888,0.2096139384444444,-0.4016151022222222
660,1778414980100,1.0320825666666666,-0.071850395,-0.1857662533333333,-0.1564956733333333,0.3785471266666667,-0.4764778244444444
661,1778414980110,0.9972106,-0.105865934,-0.257185748,-0.266482124,0.55426752,-0.6370831299999999
662,1778414980120,0.9396686166666668,-0.1330971966666666,-0.3218988833333333,-0.4097936577777777,0.6551251777777778,-0.8349772999999999
663,1778414980130,0.87495344,-0.156539628,-0.337861178,-0.50367408,0.70917838,-0.9502645
664,1778414980140,0.8064528777777777,-0.1596400722222222,-0.31892782,-0.6046539544444445,0.8045113111111112,-1.100152866666667
665,1778414980150,0.7531597999999999,-0.120568012,-0.289010776,-0.643619227,0.88199469,-1.16742069
666,1778414980160,0.7078157,-0.046618573,-0.20720722,-0.6102873444444445,0.9308294155555557,-1.1516677444444443
667,1778414980170,0.7002054799999999,-0.0256722292,-0.218329822,-0.50318544,0.986945926,-1.06363778
668,1778414980180,0.7784295333333334,0.0514054366666666,-0.3044893099999999,-0.3769436566666666,1.0029093833333331,-0.9380068666666666
669,1778414980190,0.869709262,0.1065428,-0.3911691439999999,-0.250783338,0.91071216,-0.80231736
670,1778414980200,0.9338282411111112,0.1404756744444444,-0.43831828,-0.1350481499999999,0.6547943422222223,-0.6657047666666666
671,1778414980210,1.0143763099999998,0.175708421,-0.429293346,-0.0614206912,0.270956572,-0.58473357
672,1778414980220,1.052869722222222,0.14633645,-0.3297550111111111,0.0011029191111111,-0.0926197233333333,-0.5409561555555555
673,1778414980230,1.0936614,0.10567689,-0.21062206,0.08750387,-0.20135053,-0.5199837
674,1778414980240,1.09468578,0.084584199,-0.212817292,0.136982498,-0.153337936,-0.4917625799999999
675,1778414980250,1.099542488888889,0.0625544644444444,-0.2402951833333333,0.2008499711111111,-0.0543399553333333,-0.4168862777777777
676,1778414980260,1.11412601,0.074107985,-0.300880367,0.23471805,0.027717194,-0.2493783999999999
677,1778414980270,1.1217931,0.08693258,-0.3014606755555555,0.2165283833333333,0.0366762877777777,-0.1785201155555555
678,1778414980280,1.1431551599999998,0.1100430019999999,-0.264070291,0.175649136,0.0687661305,-0.0646581843
679,1778414980290,1.1486002222222222,0.1126691711111111,-0.2617395211111111,0.1376612177777777,0.1314933611111111,-0.0499706997777777
680,1778414980300,1.10839394,0.0963531812,-0.259582224,0.0419957480999999,0.276759631,-0.0462716795
681,1778414980310,1.0294808,0.074181154,-0.24309345,-0.04688253,0.38384116,-0.04291202
682,1778414980320,0.96425752,0.0394474235999999,-0.2030667219999999,-0.0887866482,0.384268748,0.0024128469999999
683,1778414980330,0.91648644,0.026830835,-0.18327288,-0.1182837804444444,0.37053825,0.0503439955555555
684,1778414980340,0.928926216,0.0378253784,-0.1641010319999999,-0.150604392,0.347434653,0.1017976989999999
685,1778414980350,0.9476264222222224,0.0473232215555555,-0.1352755155555555,-0.17305642,0.3606289622222222,0.1130576466666666
686,1778414980360,0.8952351000000001,0.032715324,-0.15766165,-0.219385797,0.4632512949999999,0.14248012
687,1778414980370,0.8244688,0.017805915,-0.13156255,-0.2371953888888889,0.4658983055555555,0.2099787422222222
688,1778414980380,0.874767505,0.0323220069,-0.156149353,-0.238383144,0.4561654759999999,0.343204541
689,1778414980390,0.9135492433333334,0.0433663526666666,-0.1832932133333333,-0.2370596366666666,0.4627762011111111,0.3960156666666667
690,1778414980400,0.94022758,0.0597900786666666,-0.2272287033333333,-0.2372632533333333,0.4555138966666667,0.4382319933333333
691,1778414980410,0.96958092,0.0927371219999999,-0.258313848,-0.268375747,0.367042849,0.442772642
692,1778414980420,0.9789595022222222,0.1347029755555555,-0.2437743855555555,-0.2926467433333333,0.33436252,0.3997486133333333
693,1778414980430,0.969096152,0.145200539,-0.2176864839999999,-0.300506308,0.3393714639999999,0.337157128
694,1778414980440,0.917767,0.1465837566666666,-0.1735975233333333,-0.3014022144444445,0.3513304933333333,0.2549778244444444
695,1778414980450,0.8864785749999999,0.157872025,-0.254905103,-0.303255123,0.254219358,0.202526406
696,1778414980460,0.8087328444444444,0.1361461566666666,-0.3314421199999999,-0.3456546955555555,-0.0109019253333333,0.1978296688888888
697,1778414980470,0.85084236,0.1586373,-0.34166628,-0.344975995,-0.2263341786,0.211994542
698,1778414980480,0.9599036,0.20034707,-0.33361703,-0.24968381,-0.44324604,0.18249062
699,1778414980490,0.99697588,0.21078365,-0.357542204,-0.20325942,-0.46248773,0.1653868949999999
700,1778414980500,0.9922665333333334,0.2076679366666666,-0.4074729433333333,-0.0314077287777777,-0.4983580599999999,0.1411566177777777
701,1778414980510,0.979154658,0.196352914,-0.473753236,0.1566517819,-0.57323433,0.145106769
702,1778414980520,1.001156,0.17815064,-0.4973765599999999,0.33672956,-0.63810635,0.081700824
703,1778414980530,0.9781736,0.1338933066666666,-0.5472710488888889,0.41552883,-0.65765345,-0.04718795
704,1778414980540,0.94528076,0.106115948,-0.569752764,0.4408789999999999,-0.6921663,-0.0905581
705,1778414980550,0.8626146777777778,0.0402055988888888,-0.5525051166666667,0.5265673266666666,-0.7893928111111111,-0.1795381888888889
706,1778414980560,0.812443734,0.00080492494,-0.516575885,0.661089472,-0.7784790399999999,-0.178886624
707,1778414980570,0.8575060244444445,0.0246118706888888,-0.5186820555555555,0.7732138555555556,-0.7272900277777778,-0.1694931511111111
708,1778414980580,0.9230721,0.061497495,-0.5354581,0.9415905,-0.6074417950000001,-0.163676526
709,1778414980590,1.0939053,0.13153206,-0.567899,1.0333669,-0.3527049022222221,-0.2208721822222222
710,1778414980600,1.16154035,0.140239892,-0.58431155,1.07848142,-0.1271936679,-0.354749547
711,1778414980610,1.1744824555555555,0.0718199077777777,-0.6223499822222222,1.0646558333333334,0.2084601181111111,-0.6076742722222223
712,1778414980620,1.1723580300000005,-0.0157844574999999,-0.633643646,0.99308489,0.492816314,-0.78197614
713,1778414980630,1.2020214,-0.072229825,-0.6455255,0.8670806777777778,0.7780412611111112,-0.9494772466666668
714,1778414980640,1.18540149,-0.0978593725,-0.661697168,0.8111134999999999,0.80654746,-1.013426152
715,1778414980650,0.975405798888889,-0.1889642888888889,-0.6180204688888888,0.5594851877777778,0.7324992011111111,-1.2574120333333334
716,1778414980660,0.8023876188888889,-0.17817774,-0.49475446,0.30313295,0.44675842,-1.2554438
717,1778414980670,0.714843556,-0.1431943259999999,-0.329382043,0.2322135889999999,0.197166226,-1.01574734
718,1778414980680,0.6880583866666666,-0.1264911194444444,-0.2645649111111111,0.2092660933333333,0.0224231866666666,-0.7651370666666666
719,1778414980690,0.737820476,-0.0871605694999999,-0.2091615969999999,0.193180448,-0.096529134,-0.59047548
720,1778414980700,0.8038070133333333,-0.0439964686666666,-0.1039694833333333,0.1694931499999999,-0.3370264866666667,-0.2132026666666666
721,1778414980710,0.8754748749999999,0.0250014587999999,0.0121927837,0.232335753,-0.322970233,-0.0030847786999999
722,1778414980720,0.9429920377777778,0.0592751384444444,-0.0527232666666666,0.28725094,-0.22761697,0.018783553
723,1778414980730,0.9442929,0.035642326,-0.1601008,0.290549494,-0.3529628139999999,0.0055892523999999
724,1778414980740,0.8937716500000001,0.0017074167,-0.2128173,0.290916,-0.36689013,0.004123219
725,1778414980750,0.924642355,-0.00987862565,-0.2230617999999999,0.2194468749999999,-0.683614465,0.049325917
726,1778414980760,1.0668203844444444,-0.0301643586666666,-0.2311381666666666,0.0513281366666666,-1.2158998666666667,0.1319939083333333
727,1778414980770,1.18308729,-0.041349973,-0.232842866,-0.109311109,-1.43440676,0.1615996459999999
728,1778414980780,1.2959597,-0.0075614169999999,-0.09031015,-0.2116076688888889,-1.5365947111111111,0.1651154011111111
729,1778414980790,1.3420193,0.010813639,0.0078053319999999,-0.20834982,-1.5116179,0.1460433933333333
730,1778414980800,1.30841174,0.024684367,0.1480391266,-0.157323713,-1.34949904,0.1178629775
731,1778414980810,1.209095,0.011951917,0.15888122,-0.10491302,-1.1438879,0.15133741
732,1778414980820,1.2431213,0.0618115327,0.246938165,-0.099048884,-1.05592582,0.187499562
733,1778414980830,1.1817458,0.05174082,0.39072403,-0.1013836766666666,-0.9220824111111112,0.2198880466666666
734,1778414980840,1.20693632,0.064619622,0.461886712,-0.090497024,-0.7138514,0.22207352
735,1778414980850,1.2458654,0.1042845433333333,0.5970165399999999,-0.0612035033333333,-0.3807360222222222,0.19850839
736,1778414980860,1.2566892,0.12665373,0.7499523,0.0045508122,0.0180047229999999,0.144862423
737,1778414980870,1.2417798,0.1207997299999999,0.86489797,0.1601947,0.6300126,0.09330692
738,1778414980880,1.04917404,0.109603955,0.797476387,0.21028417,0.8518264999999999,0.1525591
739,1778414980890,1.1815764222222225,0.1875244955555555,0.7253201222222222,0.1825924277777778,0.8045197977777777,0.4044996688888889
740,1778414980900,1.22568128,0.23080616,0.6856071,0.1111436602,0.728481188,0.509965853
741,1778414980910,1.222158,0.2925475577777778,0.6791521022222222,-0.0088063799999999,0.6650345,0.57261841
742,1778414980920,1.2305597,0.35752088,0.7914486,-0.1943003347777777,0.6173884,0.6092692355555556
743,1778414980930,1.21299755,0.3988190179999999,1.09189605,-0.355299316,0.5508467960000001,0.534399708
744,1778414980940,1.141082733333333,0.3905614333333333,1.1654643666666666,-0.4233680633333333,0.60944742,0.4492272533333333
745,1778414980950,1.08941716,0.38428464,1.1586285799999998,-0.498909532,0.677047848,0.35597124
746,1778414980960,1.0793786,0.3934884044444444,1.0851445666666666,-0.6596981111111111,0.75537202,0.18296572
747,1778414980970,1.0799532099999998,0.392870501,0.94377154,-0.91172009,0.911926216,-0.1193290159999999
748,1778414980980,1.0696863888888888,0.3776168866666667,0.8263388666666667,-1.0028839333333337,0.9868237266666668,-0.2357361433333333
749,1778414980990,1.0491404599999998,0.35083754,0.70353496,-1.19180876,1.1363591400000002,-0.484554594
750,1778414981000,1.0080533333333337,0.3005358277777777,0.5990797111111111,-1.344466266666667,1.1672951444444444,-0.7076495955555555
751,1778414981010,0.979984004,0.249416992,0.5486601,-1.41989921,0.9568922,-0.94018555
752,1778414981020,0.9284416777777778,0.2195385622222222,0.5506859355555556,-1.2943769,0.5292312822222223,-1.0630948288888886
753,1778414981030,0.9220965,0.22623271,0.6381775,-1.03316422,0.0590536597,-1.09460771
754,1778414981040,0.9392249088888888,0.2312194477777777,0.7019481222222222,-0.636689511111111,-0.3985863185555555,-1.0792483
755,1778414981050,0.967147912,0.209987862,0.780996802,-0.2965968916,-0.6563095600000001,-1.030163336
756,1778414981060,1.0255781,0.1776628,0.8483117,0.1986780575555555,-0.9292768133333332,-0.924296768888889
757,1778414981070,1.05426274,0.153076008,0.786405668,0.814167754,-1.11145179,-0.69242595
758,1778414981080,1.0567995,0.1312271713333333,0.74668994,0.90671789,-1.1355395444444445,-0.6336013444444445
759,1778414981090,1.0210521222222222,0.0622868326666666,0.6826007977777778,1.0102904888888888,-1.1497927111111113,-0.4663649044444444
760,1778414981100,0.97952662,0.022891579998,0.6996749440000001,0.981295612,-1.10955824,-0.442283956
761,1778414981110,0.90898594,-0.0409170235566666,0.7262008999999999,0.8848631577777778,-0.9070148333333334,-0.4162075655555555
762,1778414981120,0.870453272,-0.0928895634,0.72880473,0.7633452839999999,-0.541592436,-0.406976986
763,1778414981130,0.92648697,-0.1159213899999999,0.71260256,0.5617928366666667,0.20588097,-0.3699868155555555
764,1778414981140,0.9494829166666666,-0.1136448388888888,0.6800667555555555,0.4946675111111111,0.4792012,-0.3201009466666666
765,1778414981150,1.0042964399999998,-0.087950256,0.565600042,0.408809532,0.81293082,-0.207229932
766,1778414981160,1.0491838666666666,-0.0526080833333333,0.4573539044444444,0.2770022711111111,1.138517488888889,0.0585565002222222
767,1778414981170,1.0882952,-0.025367333,0.37118018,0.137532259,1.35724148,0.3539554646
768,1778414981180,1.061816622222222,0.0071548883333333,0.3074095133333333,0.0444730746666666,1.4777412888888888,0.5136376944444445
769,1778414981190,1.05245768,0.0524176892,0.2269949559999999,-0.09941539,1.5555226,0.65834063
770,1778414981200,1.0504034,0.0841952877777777,0.1610629277777777,-0.1632149955555555,1.4676284333333334,0.674629891111111
771,1778414981210,0.97045302,0.099139932,0.020062146664,-0.261656416,1.17691942,0.7096517800000001
772,1778414981220,0.874505608888889,0.0599289713333333,-0.1664324707411111,-0.3636407611111111,0.5456562888888888,0.7900800133333333
773,1778414981230,0.870648372,0.0690589068,-0.227208368,-0.4309222,0.1084712038,0.848191932
774,1778414981240,0.8991818777777778,0.0906489233333333,-0.2243355777777777,-0.4666024555555555,-0.2318250188888889,0.8785849888888888
775,1778414981250,1.01175412,0.150798431,-0.176793849,-0.4841880719999999,-0.512882608,0.83658584
776,1778414981260,1.1656473,0.22647662,-0.10616472,-0.4963982255555556,-0.3719126488888888,0.6980456555555556
777,1778414981270,1.17208668,0.222086132,-0.0568264818,-0.460609374,-0.0226166179999999,0.530368126
778,1778414981280,1.096463011111111,0.1540401544444444,-0.0865633128888889,-0.1973545711111111,0.3147475422222222,0.4778692177777778
779,1778414981290,1.0920555666666667,0.1289844944444444,-0.2117162877777777,0.0114873224444444,0.2916032188888889,0.5695641666666666
780,1778414981300,1.08985631,0.123629167,-0.275290451,0.07956286,0.14499986,0.6113054
781,1778414981310,1.01840631,0.1061647333333333,-0.2525790955555556,0.07956286,0.14499986,0.6113054
782,1778414981320,1.015425074,0.13075152,-0.239556652,0.165509063,0.0239910238,0.54759399
783,1778414981330,1.0791585,0.18150788,-0.2479683977777777,0.21089502,0.25495237,0.38590276
784,1778414981340,1.05977824,0.15795434,-0.362521143,0.255792292,0.356719532,0.340150298
785,1778414981350,1.0599432222222225,0.1301126044444444,-0.4550502555555555,0.3057120777777778,0.3267608655555556,0.3240714333333333
786,1778414981360,1.05892148,0.0556038535999999,-0.573752995,0.366294549,0.0898403588,0.346014418
787,1778414981370,1.0704589,-0.0139032509999999,-0.55302006,0.4143750144444444,-0.1346324362222222,0.4089113422222222
788,1778414981380,1.10363461,-0.0128056244999999,-0.3968554709999999,0.4444830019999999,-0.428707886,0.523037978
789,1778414981390,1.069483,0.0034148335,-0.30751795,0.4381302,-0.35284066,0.5661027
790,1778414981400,1.1271083888888889,0.0514189898888888,-0.33626285,0.3977464222222222,-0.1275058877777777,0.5450624222222222
791,1778414981410,1.20396348,0.1251658434999999,-0.412380755,0.312295678,0.257273592,0.453095956
792,1778414981420,1.1880638333333335,0.1622384566666666,-0.5535824133333332,0.20356485,0.4506271088888889,0.30907174
793,1778414981430,1.16554968,0.142560139,-0.59475725,0.125498572,0.388850092,0.224028228
794,1778414981440,1.1435050666666666,0.1079805533333333,-0.5376025355555556,0.0674137834444444,0.2804043222222222,0.1363377146666666
795,1778414981450,1.1210958999999998,0.0861025828,-0.492797064,0.044500223,0.1724879784,0.0774248908
796,1778414981460,1.0650180888888887,0.0481091747777777,-0.39737076,0.0154238931666666,-0.0127344684444444,-0.0120981692222222
797,1778414981470,1.01508668,0.0467405315,-0.351572356,-0.01634016454,-0.142831352,-0.0714996694
798,1778414981480,0.9560009,0.06661974,-0.2938281,-0.05054761,-0.2190651,-0.113159455
799,1778414981490,0.94185376,0.07564466,-0.2889498,-0.0412016481999999,-0.214666998,-0.1433963905
800,1778414981500,0.9592734533333334,0.079222104,-0.2987267799999999,-0.0510905852222222,-0.1590663244444444,-0.1852394366666666
801,1778414981510,0.9710729222222222,0.0794931211111111,-0.3057834233333333,-0.0612713723333333,-0.1285239622222222,-0.2100805588888888
802,1778414981520,0.97803267,0.0654733314,-0.333302995,-0.11236535,-0.0441184446,-0.294092408
803,1778414981530,0.96286106,0.05052124,-0.36340535,-0.1674909177777777,-0.0290237292222222,-0.3648285277777778
804,1778414981540,0.916980292,0.0333251152,-0.30345063,-0.2143768479999999,-0.0885881246,-0.4100312259999999
805,1778414981550,0.8746953444444444,0.017318084,-0.2238240388888888,-0.21425468,-0.16408885,-0.42835665
806,1778414981560,0.8475555440000001,0.0054637336,-0.1622899579999999,-0.19263068,-0.166287898,-0.428723148
807,1778414981570,0.8179915222222223,-0.0139845555555555,-0.0940230977777777,-0.1435321377777777,-0.1492248911111111,-0.4218409355555555
808,1778414981580,0.798369772,-0.0144398672,-0.093481068,-0.0870151949999999,-0.0755159915,-0.3796110179999999
809,1778414981590,0.7944671,-0.0069922783333333,-0.1027499,-0.0648007156666666,-0.0121914933333333,-0.34243078
810,1778414981600,0.8025976333333333,0.0220778446666666,-0.1139158544444444,-0.0623573242222222,0.0704086311111111,-0.2818211722222222
811,1778414981610,0.8123217620000001,0.0440330563,-0.1156286949999999,-0.0603211665,0.077501246,-0.25408192
812,1778414981620,0.841515911111111,0.0825827327777777,-0.1310713422222222,-0.0451178567777777,0.037830111,-0.20804439
813,1778414981630,0.8500526409999999,0.0993746955,-0.0950756698,-0.018172706,-0.043751936,-0.16569231
814,1778414981640,0.8417124622222222,0.1060563133333333,-0.0799030336666666,-0.0026979086666666,-0.0742942986666666,-0.1351499566666666
815,1778414981650,0.826712924,0.0936639944,-0.072833515,0.0140800292,-0.121573872,-0.0822505868
816,1778414981660,0.8125982266666667,0.0723111286666666,-0.0624731533333333,0.0404686312222222,-0.1714868744444444,0.0321543217777777
817,1778414981670,0.8610350609999999,0.076717896,-0.0596437203,0.05207473,-0.15492614,0.12201674
818,1778414981680,0.9599036,0.07613249,-0.022958657,0.0682282488888888,-0.1777311055555555,0.1704772888888889
819,1778414981690,0.98310614,0.07857166,-0.009024917,0.082006246,-0.16653223,0.19226417
820,1778414981700,1.00489598,0.076782936,-0.0163627423333333,0.0767122353333333,-0.1306958566666666,0.19226417
821,1778414981710,1.02202605,0.0749129095,-0.0263734894999999,0.0689341109999999,-0.0779593802,0.1929971899999999
822,1778414981720,1.0280443999999995,0.0665655427777777,-0.047458732,0.0524819587777777,-0.0020785774888888,0.2016305011111111
823,1778414981730,1.0099369,0.063448824,-0.06661974,-0.02367033,0.08513684,0.21608722
824,1778414981740,0.9962776133333332,0.0613619832222222,-0.0391113577777777,-0.0616786072222222,0.1236202188888888,0.2303403244444444
825,1778414981750,0.9980121333333334,0.0681374483333333,-0.0209395666666666,-0.06812644,0.1312218699999999,0.2374668733333333
826,1778414981760,1.02907834,0.094054274,-0.015092344,-0.0449278154,0.10498937,0.233068768
827,1778414981770,1.0695915,0.12405195,-0.025424924,-0.0217699174444444,0.0683046002222222,0.2059064255555555
828,1778414981780,1.05640918,0.14089846,-0.0434720482,-0.01371352065,0.0321152955999999,0.137959854
829,1778414981790,1.0123762,0.12445848,-0.06369274,-0.0219735332777777,0.0294818651111111,0.1013158055555555
830,1778414981800,0.988765024,0.098896012,-0.103719468,-0.023059484,0.029549737,0.09758285
831,1778414981810,0.9861144577777776,0.0869325755555555,-0.1335274333333333,-0.0271317986666666,0.0279208103333333,0.10817087
832,1778414981820,0.986155122,0.060107164,-0.154661454,-0.0347266679,0.01171299609,0.138265271
833,1778414981830,0.986521,0.032471407,-0.13229431,-0.0175618587777777,-0.0155172171444444,0.2042775122222222
834,1778414981840,1.0253342,0.048569907,-0.13253821,0.02776300925,-0.0356887508,0.223295208
835,1778414981850,1.0795141,0.07198591,-0.14449014,0.057572354,-0.05780142,0.17088452
836,1778414981860,1.10802804,0.0849836192,-0.162588752,0.077363804,-0.073927788,0.108944606
837,1778414981870,1.1603861666666666,0.0968416962222222,-0.2089654422222222,0.1010103811111111,-0.1027326333333333,-0.0088403183333333
838,1778414981880,1.2244617,0.09372498,-0.2887059,0.0801058339999999,-0.1518718955555555,-0.2039042083333333
839,1778414981890,1.2502102,0.08809965,-0.34508113,0.0490204945,-0.1622563,-0.309241425
840,1778414981900,1.2836555888888888,0.0781380266666666,-0.4602538222222223,-0.0312041116666666,-0.1484104311111111,-0.4779031444444445
841,1778414981910,1.29459382,0.069351606,-0.6161822800000001,-0.140708668,-0.132324784,-0.6401984599999999
842,1778414981920,1.2744409666666665,0.0940197122222222,-0.6891323444444445,-0.2059064355555555,-0.1280488544444444,-0.7369702444444444
843,1778414981930,1.27386093,0.150505736,-0.702159882,-0.255181445,0.0090863549999999,-0.8473978799999999
844,1778414981940,1.2621638000000002,0.2376934122222222,-0.8577635044444444,-0.3107006588888889,0.3723707955555555,-1.0113085288888888
845,1778414981950,1.2422676,0.2772418,-0.9947531,-0.351328806,0.4675272319999999,-1.05361992
846,1778414981960,1.2317520888888889,0.2879741333333333,-1.0544043444444444,-0.3553604,0.4748574,-1.0569185
847,1778414981970,1.17491911,0.287166157,-1.19450269,-0.441795294,0.448285539,-1.05361991
848,1778414981980,1.0716784,0.2337941199999999,-1.2453775,-0.5156059933333333,0.2724633333333333,-0.9828023
849,1778414981990,0.9418537333333332,0.1926331933333333,-1.1222199666666668,-0.5388181766666666,-0.0138204199999999,-0.8050457833333333
850,1778414982000,0.7787406000000001,0.135928666,-0.94914688,-0.483882644,-0.1386776019999999,-0.66170028
851,1778414982010,0.6905687333333334,0.0811836006666666,-0.8980199,-0.3810159755555555,-0.1109451333333333,-0.5800503444444445
852,1778414982020,0.63634201,0.01893708114,-0.8158067600000001,-0.1581789,0.0117129983999999,-0.406732636
853,1778414982030,0.6687586,-0.010488417,-0.7179992,0.0697893,0.35085538,-0.1925696
854,1778414982040,0.729841375,-0.0348831311999999,-0.7269997399999999,0.110349556,0.587375476,-0.1261094159999999
855,1778414982050,0.7226234833333334,-0.0444233249999999,-0.7608675533333333,0.0997208133333333,0.7487205666666666,-0.08750387
856,1778414982060,0.6829362,-0.052228656,-0.7685205,0.064047337,0.7855342999999999,-0.073759804
857,1778414982070,0.5681598444444445,-0.0422551724444444,-0.6574571222222222,0.0336814398888888,0.5696744433333333,-0.0582510722222222
858,1778414982080,0.482000675,-0.0229799993,-0.404374216,0.0593438117,0.0873358853,-0.0005803050299999
859,1778414982090,0.4100849,-0.018537667,-0.14668538,0.1693574,-0.33879116,0.09025268
860,1778414982100,0.44962685,-0.0576405547,0.0219921358,0.287556362,-0.5537482760000001,0.163920866
861,1778414982110,0.54332435,-0.10543298,0.1568994,0.5315898,-0.95086014,0.28999972
862,1778414982120,0.5805826166666667,-0.1106365333333333,0.1884662733333333,0.5995974666666667,-1.079138046666667,0.3702243333333333
863,1778414982130,0.64762927,-0.122214446,0.189419582,0.62773714,-1.2204881200000002,0.479728896
864,1778414982140,0.72238631,-0.1183876677777777,0.2515661677777777,0.5440782666666667,-1.3200833111111112,0.5873466266666667
865,1778414982150,0.770337601,-0.089142401,0.345038429,0.488097506,-1.29128525,0.658462806
866,1778414982160,0.8199868444444445,-0.0582113955555555,0.3929836444444444,0.4801429088888888,-1.256351588888889,0.68657534
867,1778414982170,1.01077236,0.052704294,0.487461376,0.540752518,-1.28071762,0.6710462159999999
868,1778414982180,1.0956330555555556,0.1205219333333333,0.5654259133333333,0.6769715,-1.4438138,0.6180247
869,1778414982190,1.14386242,0.13131255,0.62844217,0.67012998,-1.40814036,0.6038530599999999
870,1778414982200,1.2345944555555557,0.1377925866666666,0.6611056666666666,0.6066561577777778,-1.2410125111111112,0.5623019
871,1778414982210,1.2639915,0.14508468,0.66671575,0.5334223650000001,-0.99209225,0.51387527
872,1778414982220,1.2946860555555555,0.1242213388888889,0.6163367999999999,0.4003934144444444,-0.5322939955555556,0.43402394
873,1778414982230,1.3223332,0.09567632,0.5600937,0.18462859,-0.035200074,0.3932329
874,1778414982240,1.3430662,0.1027499,0.4534410999999999,0.042301174,0.056427017,0.46653458
875,1778414982250,1.3430662,0.1027499,0.4534410999999999,-0.0650722024444444,-0.0100874628888888,0.4902897644444445
876,1778414982260,1.3876115,0.12557135,0.41316435,-0.142419038,-0.13244696,0.506850512
877,1778414982270,1.4345417333333337,0.1569569866666666,0.3530354977777777,-0.2274896966666666,-0.3518225766666666,0.52802654
878,1778414982280,1.51371636,0.190712345,0.402364965,-0.252921299,-0.6536829209999999,0.539775162
879,1778414982290,1.566128,0.17888239,0.53201276,-0.0972434866666666,-1.03033814,0.4561502
880,1778414982300,1.5003436799999998,0.129879534,0.568136792,-0.0049173203,-1.01041779,0.42157623
881,1778414982310,1.3823673,0.05881441,0.6369579,0.0330705915555555,-0.7466335000000001,0.4302909888888889
882,1778414982320,1.33976106,0.037575364,0.63534804,0.0294733805999999,-0.50188736,0.46140346
883,1778414982330,1.2384529888888889,0.0140929626666666,0.5950042222222223,0.0093832927777777,-0.2385443377777777,0.5224610333333334
884,1778414982340,1.1356218666666669,0.0491627625555555,0.4586242888888889,-0.099415388,-0.1644282055555555,0.6577976544444444
885,1778414982350,1.1048815,0.11689706,0.4019442,-0.287983937,-0.2941382469999999,0.7841751809999999
886,1778414982360,1.1505244,0.18961473,0.39584628,-0.47875154,-0.4646256999999999,0.81960434
887,1778414982370,1.15893955,0.21231422,0.4342784,-0.596767232,-0.518502418,0.773057756
888,1778414982380,1.151960833333333,0.2530093455555555,0.5922296755555556,-0.8215047511111111,-0.4051020166666667,0.5661027000000001
889,1778414982390,1.0668001,0.24891695,0.73092675,-0.8690829000000001,-0.16897562,0.40178478
890,1778414982400,1.0527613666666666,0.2386724577777778,0.738325578888889,-0.8448526333333333,0.1640718888888889,0.2098429988888888
891,1778414982410,1.05636046,0.224427732,0.6853631059999999,-0.80225626,0.515295472,-0.03118375
892,1778414982420,1.0533846,0.21021552,0.6403727066666667,-0.7558725933333333,0.7010744866666667,-0.1901262033333333
893,1778414982430,1.0412863,0.172308834,0.585521964,-0.649910952,0.89199733,-0.3698985449999999
894,1778414982440,1.0248734777777777,0.0753262144444444,0.4734490377777778,-0.4381641311111111,1.0437003555555555,-0.5112282444444445
895,1778414982450,1.0793161,0.055692277,0.377302514,-0.146878227,0.99983474,-0.5552907300000001
896,1778414982460,1.1173213,0.07369333,0.28285187,0.0581832,0.8475506,-0.5541912
897,1778414982470,1.1380694,0.0895631549999999,0.21085072,0.1372879199999999,0.741225,-0.5523586500000001
898,1778414982480,1.1986810222222222,0.1377079033333333,0.0369262749444444,0.2485639266666666,0.4479801133333333,-0.57414554
899,1778414982490,1.2222121777777777,0.1622960522222222,-0.0413540389999999,0.1962346833333333,0.0425811433333333,-0.6735100199999999
900,1778414982500,1.1778431,0.14445965,-0.01978774,0.01175881,-0.45485213,-0.8364025999999999
901,1778414982510,1.103448522222222,0.1069506855555555,0.0871561711111111,-0.0908635311111111,-0.6263644733333333,-0.9147946666666668
902,1778414982520,1.05095766,0.080583972,0.178144552,-0.14828317,-0.7150730750000001,-0.95948835
903,1778414982530,1.004875711111111,0.0562668333333333,0.3061798055555556,-0.1890063266666666,-0.7665878500000001,-1.000516966666667
904,1778414982540,0.9944482,0.055643493,0.372567465,-0.18487293,-0.7510519999999999,-1.0203287900000002
905,1778414982550,0.9728074666666668,0.0608741522222222,0.3736193355555556,-0.1641651999999999,-0.5998944111111111,-1.0068289555555556
906,1778414982560,0.99613124,0.061887755,0.3649359159999999,-0.160622286,-0.47207803,-0.98410548
907,1778414982570,1.0034325333333334,0.05255388,0.3684157933333333,-0.1505229433333333,-0.23392905,-0.9494093333333332
908,1778414982580,0.99408242,0.047643024,0.362008932,-0.142846629,0.014645061,-0.92149361
909,1778414982590,0.9711542,0.03515449,0.28309578,-0.12629268,0.41865945,-0.8687775
910,1778414982600,0.92892617,0.017805915,0.18522422,-0.11474766,0.468138075,-0.81160221
911,1778414982610,0.9039653966666664,0.0089165092222222,0.1223208244444444,-0.1091889455555555,0.4004697555555555,-0.749662291111111
912,1778414982620,0.87873014,0.0107323338333333,0.1055142866666666,-0.0941213766666666,0.2854947333333333,-0.6926498866666666
913,1778414982630,0.8625990720000001,0.0399291587999999,0.126409824,-0.0380252397,0.15978237,-0.60238703
914,1778414982640,0.8923352333333333,0.0856994464444444,0.19175238,0.0845853765555555,0.068508216,-0.4899843333333333
915,1778414982650,0.95785468,0.1790287472,0.2041216579999999,0.3487021615,0.0078646581,-0.315472069
916,1778414982660,1.0140835,0.2503805,0.16912572,0.68674505,-0.16164546,-0.055739813
917,1778414982670,1.0178794999999998,0.2636891799999999,0.18156547,0.8216201,-0.238612206,0.0157293183999999
918,1778414982680,1.0036663,0.2695177577777777,0.1927043311111111,1.0012634666666669,-0.2515757433333333,0.0711128038888889
919,1778414982690,0.9403901999999998,0.23623328,0.09588974,1.2059652,-0.02725906,0.03955236
920,1778414982700,0.916107,0.1774493777777777,0.0154243417777777,1.152753688888889,0.3119647977777778,-0.1348106011111111
921,1778414982710,0.90272646,0.10926553,-0.0275900213,0.99583376,0.75248746,-0.340028142
922,1778414982720,0.9498521666666666,0.1079263566666666,-0.0343685355555555,0.8125796,1.16539475,-0.4627676766666667
923,1778414982730,1.02161451,0.0850964276,-0.0600858241999999,0.6180858,1.57262623,-0.5282301620000001
924,1778414982740,1.0380179,0.031007906,-0.12640981,0.4705051,1.7943639,-0.4961607
925,1778414982750,1.0389122666666666,0.02075324289,-0.1764432166666666,0.35403689,1.7876445666666667,-0.4436278333333333
926,1778414982760,1.0396032700000002,0.005732041367,-0.279802923,-0.0685676,1.70823446,-0.292931794
927,1778414982770,1.0254765,0.0305912156666666,-0.20809142,-0.1459755188888889,1.6844792555555554,-0.2759163044444445
928,1778414982780,1.0142055,0.0564971985,-0.14264552,-0.40276213,1.62234916,-0.208451626
929,1778414982790,1.0224817555555556,0.1110904927777777,-0.0802282622222222,-0.6149705,1.6434846,-0.082006246
930,1778414982800,1.12005012,0.2154455075,-0.095603142,-0.7830756200000001,1.6923522800000002,0.0738819748
931,1778414982810,1.109515933333333,0.2161508166666666,-0.1055142933333333,-0.8707118777777778,1.6537332555555555,0.1964722422222222
932,1778414982820,0.988990584,0.191349588,-0.144462694,-0.8765964,1.53750249,0.327566849
933,1778414982830,0.9373920533333332,0.1840859533333333,-0.1677435266666666,-0.8567981333333333,1.433896022222222,0.4216033866666666
934,1778414982840,0.911217776,0.163808342,-0.189221408,-0.7899171,1.1870595199999998,0.5803965200000001
935,1778414982850,0.9238038488888888,0.1214569455555555,-0.2100257955555555,-0.7456238744444444,1.0236019188888887,0.6711684222222222
936,1778414982860,1.0033512,0.120067984,-0.1967188,-0.66689247,0.63856447,0.900847
937,1778414982870,1.0650926,0.121775397,-0.1804830999999999,-0.6339067349999999,0.6080220850000001,0.97078905
938,1778414982880,1.1488644777777777,0.1170325744444444,-0.1923486277777777,-0.5858534466666667,0.5990629933333333,1.0659793666666666
939,1778414982890,1.14945128,0.0930176244,-0.200597069,-0.622850401,0.686271624,1.0890489899999998
940,1778414982900,1.133995766666667,0.0673853703333333,-0.1434704344444444,-0.7027288733333334,0.855008,1.0798930666666666
941,1778414982910,1.09573471,0.0761324933,-0.10738432,-0.7492347199999999,1.0543835,1.05905646
942,1778414982920,1.1448195555555556,0.1163584211111111,-0.12878462,-0.7683610166666666,1.1681097,1.0212517833333332
943,1778414982930,1.2484509,0.180638592,-0.19395339,-0.739583325,1.1572502,0.94452256
944,1778414982940,1.3511155,0.2435507899999999,-0.26016763,-0.6290878333333334,0.8833190555555556,0.8001929411111112
945,1778414982950,1.4203207299999998,0.324829943,-0.267850993,-0.47197114,0.4542794579999999,0.5471052999999999
946,1778414982960,1.4173590888888887,0.35294064,-0.2582975888888889,-0.3505414888888889,0.1576919111111111,0.29841584
947,1778414982970,1.3590793,0.316817276,-0.215707706,-0.2175532459999999,-0.097873002,0.0396745296
948,1778414982980,1.2508250333333333,0.2516102133333333,-0.1471630566666666,-0.0820401761111111,-0.2620280177777778,-0.149606674
949,1778414982990,1.1678492333333332,0.1893233744444444,-0.0845374522222222,0.0528891903333333,-0.3125247333333333,-0.2229083499999999
950,1778414983000,1.03072785,0.1027285495,0.007896802,0.308019736,-0.293038693,-0.251882873
951,1778414983010,0.9415183533333332,0.069719513,0.03929091,0.4136963066666667,-0.2133638566666666,-0.24958201
952,1778414983020,0.8746973739999999,0.0622292406,-0.0006280863999999,0.5114318680000001,-0.116442764,-0.233252032
953,1778414983030,0.87149396,0.0752381301111111,-0.0620971191111111,0.5645755888888888,-0.0681858272222222,-0.2199898644444444
954,1778414983040,0.8747462,0.084669575,-0.10104248,0.552847332,-0.0574349131,-0.225127763
955,1778414983050,0.9650969888888888,0.1013880211111111,-0.2618242355555555,0.5425851,-0.05596888,-0.2286095899999999
956,1778414983060,0.9581961,0.08860273,-0.30044436,0.395798484,-0.289617961,-0.3165715939999999
957,1778414983070,0.9562990222222224,0.0792830777777777,-0.2169232222222222,0.3424307977777778,-0.3996722722222222,-0.314942671111111
958,1778414983080,0.9392926,0.077961863,-0.14131922,0.335691114,-0.416552015,-0.3061871939999999
959,1778414983090,0.9232618533333334,0.081254734,-0.0945651377777778,0.3584485511111111,-0.3585418833333333,-0.2729299544444444
960,1778414983100,0.924852756,0.070741931,-0.141316171,0.34699179,-0.297253527,-0.253898673
961,1778414983110,0.9230721,0.048325993,-0.18720604,0.27564484,-0.29847524,-0.2231119599999999
962,1778414983120,0.9230721,0.048325993,-0.18720604,0.27564484,-0.29847524,-0.22311196
963,1778414983130,0.9022782,0.0309299891111111,-0.1527833044444444,0.2136777744444444,-0.3438815533333333,-0.2021395422222222
964,1778414983140,0.853476608,0.0344654256,-0.036038688,0.154086226,-0.416490924,-0.150176802
965,1778414983150,0.8588915911111111,0.0566462564444444,-0.0035300162911111,0.1477062588888888,-0.3884734177777778,-0.1413263
966,1778414983160,0.9342923,0.08909056,-0.090554066,0.1287021244444444,-0.3525012822222222,-0.1620272288888888
967,1778414983170,0.95713512,0.0953348304,-0.1098844636,0.09575031,-0.342456235,-0.182796035
968,1778414983180,1.0183826,0.108088966,-0.1307325655555555,0.0247902195555555,-0.3432707077777778,-0.2213472855555555
969,1778414983190,1.02034002,0.1045060979999999,-0.1019693659999999,-0.052990998,-0.339402005,-0.256708565
970,1778414983200,0.9454346111111112,0.0534516277777777,0.0039771966666666,-0.1083066133333333,-0.3062126333333334,-0.2375008133333333
971,1778414983210,0.90392464,0.044472104,0.062613406,-0.165203641,-0.161767624,-0.131790291
972,1778414983220,0.8989480666666666,0.0668907557777777,0.0462120477777777,-0.1803187222222222,0.023441264,-0.0231612917777777
973,1778414983230,0.8990890199999999,0.0837121996,0.0281967682,-0.1856670319999999,0.0951547328,0.0175618593999999
974,1778414983240,0.8765619888888889,0.12573227,-0.0014092962888888,-0.1864271888888889,0.1809719855555555,0.0948001007777777
975,1778414983250,0.8405947899999999,0.156195082,-0.01600398327,-0.171861882,0.149214707,0.163981946
976,1778414983260,0.81276083,0.16229606,-0.015153322,-0.10796725,-0.06818583,0.26434416
977,1778414983270,0.877181958888889,0.1766058377777778,-0.0077545175555555,-0.0523801504444444,-0.2206940288888889,0.2995018155555555
978,1778414983280,0.933420336,0.177662806,0.0040002328,0.0122474884,-0.356994416,0.29561954
979,1778414983290,0.987361091111111,0.1826766433333333,0.0186189723333333,0.0746760782222222,-0.4444677355555555,0.2568782477777778
980,1778414983300,0.9818866,0.18424855,0.0248795,0.1250099,-0.429257634,0.19733421
981,1778414983310,0.9482531244444444,0.1708060344444444,0.0209768333333333,0.1671855077777778,-0.4391058577777778,0.1835765744444444
982,1778414983320,0.934877708,0.160344728,0.029660264,0.222867622,-0.45925024,0.199838682
983,1778414983330,0.944374177777778,0.1534066577777778,0.035205305,0.2683825211111111,-0.4881772444444444,0.2190735811111111
984,1778414983340,0.98865832,0.149270912,0.0323433505,0.358231381,-0.55759665,0.2461409069999999
985,1778414983350,1.0585068,0.14153264,-0.00512225,0.4686046777777777,-0.6092607711111111,0.2299330822222222
986,1778414983360,1.08352355,0.138605645,-0.04893578,0.51680733,-0.63871718,0.179802886
987,1778414983370,1.1336061333333334,0.1318843933333333,-0.1305259066666666,0.5443497388888888,-0.6990552800000001,0.0941213816666666
988,1778414983380,1.16871155,0.1284831099999999,-0.15253939,0.536232258,-0.738285244,0.0312448382
989,1778414983390,1.2264130333333334,0.1316946733333333,-0.1574177199999999,0.5101423088888889,-0.7894606866666667,-0.0978882697777777
990,1778414983400,1.2570618111111111,0.13142365,-0.15614394,0.4774959122222222,-0.7672665866666667,-0.2573872688888889
991,1778414983410,1.26815325,0.119141096,-0.244770393,0.439229715,-0.7161114879999999,-0.424935896
992,1778414983420,1.2421727222222223,0.1119103188888888,-0.2702766166666667,0.4321574666666666,-0.7032633555555555,-0.4741701888888889
993,1778414983430,1.20015843,0.1046524419999999,-0.293325038,0.4363587459999999,-0.683553382,-0.529940539
994,1778414983440,1.1075748666666667,0.0918549499999999,-0.33808883,0.49758598,-0.6486943533333334,-0.5684442766666667
995,1778414983450,1.06163215,0.0832822969999999,-0.4104324629999999,0.570439672,-0.615504932,-0.5734939600000001
996,1778414983460,1.037963688888889,0.0690589066666666,-0.5127670888888889,0.6234205111111112,-0.5859806888888889,-0.5571096444444446
997,1778414983470,1.0208187,0.0614243176999999,-0.5822656900000001,0.6221173999999999,-0.57751028,-0.50300216
998,1778414983480,1.0269468,0.0499249991111111,-0.6221501222222222,0.5812720555555555,-0.57159185,-0.4614781333333333
999,1778414983490,1.04065221,0.0180101962,-0.71094084,0.5004366,-0.575494475,-0.42072105
1000,1778414983500,1.0645235666666666,0.0114640836666666,-0.7542818066666668,0.33672955,-0.5925642666666666,-0.3975427888888889
