id,timestamp,acc_x,acc_y,acc_z,gyro_x,gyro_y,gyro_z
0,1778414805880,0.0470081622222222,0.0011924814777777,1.0609900111111112,-0.23502348,0.04359922,-0.008093726
1,1778414805890,0.067199044,0.0048783333,1.0718309,-0.23502348,0.04359922,-0.008093726
2,1778414805900,0.0526646612,-0.00519542501,1.08465784,-0.225127758,0.058626064,-0.0509752063999999
3,1778414805910,0.0249709706666666,-0.0173180842222222,1.103597588888889,-0.1978975522222222,0.0643001555555555,-0.0828207088888888
4,1778414805920,0.0111652861,-0.0363984649,1.12889818,-0.1424801145999999,0.0567324405,-0.062459131
5,1778414805930,0.0234532656666666,-0.0317870845555555,1.1351407111111111,-0.0785108396666666,0.0694584215555555,-0.0385003444444444
6,1778414805940,0.031800635,-0.023416,1.1294256,-0.028557109,0.105294794,-0.02275406
7,1778414805950,0.040256413,-0.0162611106666666,1.1188558666666666,-0.016747395,0.1138466546666666,-0.0264191433333333
8,1778414805960,0.0664154632,-0.00514664187,1.09827748,-0.0127361652,0.0883743263,-0.0397966997999999
9,1778414805970,0.07549221,-0.0065857503,1.1079609,-0.025502874,0.025884653,-0.04535541
10,1778414805980,0.09657271,0.0009756667399999,1.19636248,-0.0793185208,-0.0744775524,-0.0518303909999999
11,1778414805990,0.10552445,0.011464084,1.2870872,-0.09758285,-0.09261972,-0.06306998
12,1778414806000,0.0817700158,-0.0023659917,1.37113487,-0.075775603,0.027533936,-0.07033906
13,1778414806010,0.0572797626666666,-0.024554279,1.442956811111111,-0.0284213644444444,0.2506085733333333,-0.0511923933333333
14,1778414806020,0.0386336906666666,-0.0375360655555555,1.4379430444444443,0.0268263766666666,0.4773008111111111,-0.0093154209999999
15,1778414806030,0.0267759521999999,-0.0361728436,1.36314052,0.1472447332,0.80876176,0.0753480099999999
16,1778414806040,0.0335080506666666,-0.0202450833333333,1.2749964777777778,0.25406156,0.9649011111111112,0.1200484588888888
17,1778414806050,0.03741072,-0.00073175,1.1899779,0.31107396,0.989878,0.11407573
18,1778414806060,0.03348095,0.0076698238888888,1.1541696222222222,0.34589225,0.96483326,0.0865876
19,1778414806070,0.0221415359,0.0247575417999999,1.09571637,0.3489464869999999,0.90374087,0.05231906665
20,1778414806080,0.0055660427444444,0.0281046222222222,1.0831628444444443,0.32268006,0.80838,-0.0019852535
21,1778414806090,-0.0013720313,0.030489584,1.0896672,0.25121093,0.7595122,-0.04352287
22,1778414806100,-0.0235921637333333,0.030489584,1.080371277777778,0.1742441766666666,0.75666158,-0.048002414
23,1778414806110,-0.0311359647,0.0293706157,1.08744762,0.0346044962999999,0.775577494,-0.0370478863
24,1778414806120,-0.0226503727777777,0.0305403975555555,1.1228738555555555,-0.1026053701111111,0.8155235233333333,-0.0169170753333333
25,1778414806130,-0.0150618539999999,0.028050419,1.1733612,-0.25837142,0.8672334377777777,0.0043947066666666
26,1778414806140,0.048542466,0.0396669498,1.2437219,-0.3278111929999999,0.873389396,0.0026571854
27,1778414806150,0.09500554,0.05588741,1.3002588,-0.37124243,0.8750387,-0.032527618
28,1778414806160,0.1150067105,0.0623511946,1.38710533,-0.37075375,0.8989839,-0.0745539076
29,1778414806170,0.0727481518888888,0.0441997324444444,1.5046813666666663,-0.3428719488888889,0.9856020355555556,-0.1407833244444444
30,1778414806180,0.0336544052,0.0072138352,1.58384846,-0.273995533,1.18742601,-0.1670972686
31,1778414806190,0.0058065716666666,-0.0284061294444444,1.6268292777777775,-0.1579888544444444,1.678506488888889,-0.1128879661111111
32,1778414806200,-0.010915271,-0.0290565729999999,1.6114355,-0.07437065,1.8951536,-0.061848287
33,1778414806210,0.0244526472222222,-0.0446672396666666,1.6279134555555557,0.05309281,2.0262822,-0.0374143956666666
34,1778414806220,0.0318006339,-0.036837515,1.6276559900000005,0.4106420739999999,2.20546395,-0.047004696
35,1778414806230,0.020824386,-0.03222749,1.5936296,0.6604786,2.2702138,-0.06734591
36,1778414806240,0.0214829601,-0.0126623243,1.44646547,1.0422581,2.3209143,-0.09422319
37,1778414806250,0.0497691616666666,0.0179143252222222,1.3459355000000002,1.1334780111111111,2.305710833333334,-0.1441769233333333
38,1778414806260,0.087706336,0.0353862111999999,1.2960268,1.14543031,2.33899518,-0.240582204
39,1778414806270,0.1136685566666666,0.0529604071111111,1.2565773777777778,1.0850174,2.457744,-0.36238512
40,1778414806280,-0.1197325899999999,0.033447072,1.387398,1.0251545,2.6843684,-0.4369085
41,1778414806290,-0.2318976799999999,-0.0273948916,1.3172567599999998,1.14775151,2.810264,-0.2582356759999999
42,1778414806300,-0.21345758,-0.05881441,1.182386,1.1570975,3.0459898,-0.053296424
43,1778414806310,-0.073537829,0.0129977096,1.07366636,1.08923237,3.26601706,0.0490815801999999
44,1778414806320,-0.007469948,0.083937824,1.1299134,1.0214894,3.3819559,0.06398625
45,1778414806330,0.0399474503,0.1327059239999999,1.04141144,1.1332744,3.2408501999999997,-0.097277425
46,1778414806340,0.0165389056666666,0.1465227733333333,1.002717766666667,1.2975922666666666,3.1824124,-0.2558940933333333
47,1778414806350,-0.054820273,0.15497856,0.9866735,1.3879976,3.19748,-0.36788276
48,1778414806360,-0.1288354336666666,0.1035087566666666,0.9563667877777776,1.4661861333333333,3.2990164444444443,-0.5172010177777777
49,1778414806370,-0.162622292,0.0583021789999999,0.88426505,1.53559364,3.3129302000000003,-0.62614899
50,1778414806380,-0.19711517,0.05149691,0.8961194000000001,1.5908754,3.286053,-0.62077355
51,1778414806390,-0.161963717,0.065107457,0.92841689,1.7765729999999995,3.3679063,-0.6219952
52,1778414806400,-0.158058,0.06661974,0.9320055000000002,1.905801,3.371707277777778,-0.6654332444444444
53,1778414806410,-0.0975395644444444,0.1132620244444444,0.8200749222222222,2.013649444444445,3.369331688888889,-0.7402280999999999
54,1778414806420,-0.114561563,0.125897588,0.740198695,2.1447917800000003,3.46326712,-0.89528827
55,1778414806430,-0.1595587722222222,0.1090375282222222,0.5797729922222222,2.170433688888889,3.517843844444444,-1.0109012666666668
56,1778414806440,-0.282577476,0.097578869,0.374540138,2.09702331,3.52087007,-1.14127643
57,1778414806450,-0.35892338,0.102262065,0.32651293,1.9024074,3.445484,-1.1473238
58,1778414806460,-0.37494869,0.1024815975,0.255139888,1.77632852,3.37560304,-1.13608428
59,1778414806470,-0.3635035911111111,0.10619183,0.2435237011111111,1.5384103999999998,3.3081791999999997,-1.1327313777777777
60,1778414806480,-0.382074135,0.091990122,0.219326825,1.24951863,3.39215702,-1.15557033
61,1778414806490,-0.43207806,0.0733680977777777,0.1755454655555555,1.031873788888889,3.4332669333333334,-1.1592014888888889
62,1778414806500,-0.491239,0.0593022375,0.1052317517,0.9463551,3.4204391999999997,-1.1515998
63,1778414806510,-0.5531725,0.061497495,0.028782167,0.76153986,3.3233823555555557,-1.1018496555555557
64,1778414806520,-0.5576117899999999,0.0518871749,-0.0180498335,0.61710846,3.2866638000000004,-1.0801307
65,1778414806530,-0.5536604,0.048813824,-0.121775396,0.4515009577777778,3.170467,-1.1040216333333333
66,1778414806540,-0.5855829800000001,0.0455941238,-0.1137993212,0.349801676,3.03957594,-1.11855302
67,1778414806550,-0.6600147955555555,0.007693538,-0.0561889151111111,0.072911407,2.6980784,-1.1554006111111113
68,1778414806560,-0.6568981,-0.032715324,-0.03539841,0.016034741,2.6501608,-1.1662601
69,1778414806570,-0.711517146,-0.0629122068,-0.033300723,0.00174091502,2.5698955,-1.15685308
70,1778414806580,-0.7668570899999999,-0.0851641822222222,-0.0202755737777777,0.008704574,2.5108876,-1.1210574
71,1778414806590,-0.78338414,-0.1041158299999999,-0.0296419751,0.0699114698,2.45395672,-1.03834872
72,1778414806600,-0.8095967055555556,-0.1065170544444444,-0.0538005632222222,0.13331741,2.4021568,-0.9695673
73,1778414806610,-0.78550315,-0.11518965,-0.064424485,0.21028417,2.3624518,-0.9145911
74,1778414806620,-0.7620058211111111,-0.1170596761111111,-0.08633295,0.2554868811111111,2.3896005999999996,-0.9085504711111112
75,1778414806630,-0.789756455,-0.1432248239999999,-0.151938744,0.28321933,2.4529793599999996,-0.902740622
76,1778414806640,-0.8445919844444444,-0.1732451911111111,-0.2066651811111111,0.2759841955555555,2.4784449777777775,-0.8688453666666667
77,1778414806650,-0.908790812,-0.197551168,-0.234583816,0.269658535,2.43984606,-0.79193296
78,1778414806660,-0.9214257,-0.21379296,-0.25065485,0.27625567,2.405211,-0.7105681
79,1778414806670,-0.923916703,-0.210545819,-0.257902225,0.292382038,2.32115852,-0.64361922
80,1778414806680,-0.9437881455555556,-0.1793160144444444,-0.3406431777777777,0.31229568,2.173089,-0.5792359
81,1778414806690,-0.9348716,-0.17229664,-0.4019442,0.3198972977777778,1.977617977777778,-0.5537160777777778
82,1778414806700,-0.94818945,-0.183224109,-0.387089675,0.304843314,1.91812148,-0.5199837300000001
83,1778414806710,-0.9697517,-0.19327347,-0.3916997,0.28358585,1.9085922,-0.46378577
84,1778414806720,-0.975898421,-0.2101982309999999,-0.438845722,0.249500564,1.98500922,-0.375274037
85,1778414806730,-1.0018911622222222,-0.2240916588888888,-0.5499711111111112,0.1836783822222222,1.9957397222222224,-0.2566406944444444
86,1778414806740,-1.017346,-0.20306063,-0.6847961,0.07956286,1.8597245,-0.10460759
87,1778414806750,-1.0044184,-0.16229606,-0.79925394,-0.0051412973333333,1.555658277777778,-0.0372786495555555
88,1778414806760,-1.01378472,-0.164052252,-0.817816068,-0.0641084201,1.32248437,-0.0068720319
89,1778414806770,-0.97888839,-0.12426877,-0.8638952811111111,-0.1476044517777777,1.06372257,0.0134216717222222
90,1778414806780,-0.999320463,-0.1214583049999999,-0.868511109,-0.21804193,0.82639999,0.0156071473999999
91,1778414806790,-1.0010306,-0.126870545,-0.89495738,-0.29753353,0.5107616166666666,0.0224486367777777
92,1778414806800,-1.0129554,-0.122751065,-0.8990769000000001,-0.33056,0.36973057,0.0322832775
93,1778414806810,-1.0227121,-0.12153149,-0.8861493,-0.37124243,0.16027105,0.065818794
94,1778414806820,-1.011199234,-0.112165085,-0.847997675,-0.399280323,-0.104897747,0.1140146393999999
95,1778414806830,-0.9811310977777778,-0.0991453555555555,-0.7866177111111111,-0.4184134133333333,-0.37557774,0.1526269777777777
96,1778414806840,-0.94822947,-0.0842359444444444,-0.7445826833333333,-0.4457657844444445,-0.6220885444444444,0.1729206833333333
97,1778414806850,-0.92045003,-0.07271766,-0.69382095,-0.48974678,-0.8115869,0.17943639
98,1778414806860,-0.9103681033333336,-0.063123604,-0.6640631166666666,-0.5230040355555556,-0.9693891222222224,0.1743459955555555
99,1778414806870,-0.8807403880000001,-0.0567655096,-0.59762024,-0.572272242,-1.18200467,0.158728664
100,1778414806880,-0.8758675,-0.0815054311111111,-0.5338523266666667,-0.6278661577777778,-1.2843147666666668,0.1389168511111111
101,1778414806890,-0.90430886,-0.111439432,-0.517182648,-0.702321628,-1.3104047600000002,0.1540251359999999
102,1778414806900,-0.9353595,-0.14229488,-0.5242074,-0.7829535,-1.319201,0.20142688
103,1778414806910,-0.93316422,-0.15327114,-0.53178408,-0.83426469,-1.36367074,0.2531656439999999
104,1778414806920,-0.9191830477777776,-0.1718359133333333,-0.5480875355555557,-0.8922950999999999,-1.4493115,0.31565532
105,1778414806930,-0.896643808,-0.1716624659999999,-0.549654028,-0.92809081,-1.5821707,0.362446228
106,1778414806940,-0.8726424,-0.15644205,-0.5371655,-0.9472714,-1.7761147,0.4072824
107,1778414806950,-0.85719636,-0.142575396,-0.525981904,-0.93297757,-1.97757979,0.451813176
108,1778414806960,-0.8494398,-0.1349469,-0.51323116,-0.9155073,-2.12865,0.48486
109,1778414806970,-0.8316609555555555,-0.1247565977777777,-0.4993550177777778,-0.8912770333333333,-2.2968365888888886,0.5157417444444445
110,1778414806980,-0.7835518,-0.11397006,-0.47225317,-0.8635853000000001,-2.5061536,0.54166883
111,1778414806990,-0.7443049555555556,-0.1048096385555555,-0.4252517888888889,-0.84281653,-2.680856,0.5428905
112,1778414807000,-0.703163,-0.092993233,-0.382674776,-0.82339154,-2.86533176,0.54704424
113,1778414807010,-0.6847046,-0.08860273,-0.37023503,-0.8165501,-2.9459636,0.55388576
114,1778414807020,-0.70726993,-0.0858434248,-0.321445579,-0.8017064899999999,-3.01578344,0.586321769
115,1778414807030,-0.7081510333333333,-0.0803603788888888,-0.2890853022222222,-0.7603521333333334,-3.1026798222222225,0.6439518
116,1778414807040,-0.69829071,-0.0802851719999999,-0.243770328,-0.677765554,-3.2510206000000004,0.73701779
117,1778414807050,-0.6817233833333334,-0.0863803813333333,-0.2200264022222222,-0.62107897,-3.344847,0.80738735
118,1778414807060,-0.6488454555555555,-0.0903101486666666,-0.1807795211111111,-0.5838851366666666,-3.435998944444444,0.9186972777777778
119,1778414807070,-0.6195483,-0.08835881,-0.14302665,-0.55755085,-3.4945045,1.0431744
120,1778414807080,-0.5334931966666666,-0.0732596918888888,-0.0670804718888889,-0.5667813833333333,-3.457582277777778,1.1859769777777778
121,1778414807090,-0.4887419159999999,-0.06510746,-0.01461060894,-0.59371296,-3.38210864,1.2884449100000002
122,1778414807100,-0.4304350244444444,-0.0546136168888888,0.0065315463444444,-0.6182961811111112,-3.3775610555555553,1.3471133666666666
123,1778414807110,-0.332738914,-0.0209524414,0.0587961136,-0.622300624,-3.4866855200000004,1.34488706
124,1778414807120,-0.29349273,0.010488417,0.1525089,-0.5905366,-3.5409288,1.2882005
125,1778414807130,-0.29063892,0.0273918443999999,0.19753896,-0.51821228,-3.5472816000000003,1.1894265000000002
126,1778414807140,-0.3531236044444444,-0.0229586556666666,0.1510996033333333,-0.4634803622222223,-3.558779133333333,1.1284893777777778
127,1778414807150,-0.367554983,-0.030373723,0.125043881,-0.297207743,-3.76480446,1.06669965
128,1778414807160,-0.29815763,-0.042228073,0.15006974,-0.35108447,-4.0534296,1.2894222
129,1778414807170,-0.1716732922222222,-0.0170504534444444,0.1795836422222222,-0.4396573,-4.184151,1.3908229
130,1778414807180,0.0336970896,0.0612017408999999,0.220180521,-0.59414059,-4.378767,1.4150124700000002
131,1778414807190,0.19190145,0.12299499,0.3404467,-0.8143781999999999,-4.6013595333333335,1.340054688888889
132,1778414807200,0.257883964,0.162924147,0.60059296,-1.14404814,-4.70356959,1.07579372
133,1778414807210,0.2701445077777777,0.1436431977777778,0.8533627777777777,-1.342226588888889,-4.613237166666667,0.8840826555555554
134,1778414807220,0.2373004299999999,0.09201756,0.9573729,-1.5007753,-4.3900065,0.7939487
135,1778414807230,0.1475390966666666,0.0394060913333333,1.0608546555555556,-1.6547089,-4.039991,0.8415948
136,1778414807240,0.10796362,0.017805915,1.1125954,-1.7162822599999998,-3.90658196,0.90267952
137,1778414807250,0.0886128966666666,-0.0119282022222222,1.1326778666666668,-1.9852451111111111,-3.2716130777777774,1.1650045666666666
138,1778414807260,0.07744354,-0.034666654,1.1479938,-2.1720965,-2.7871432,1.269875
139,1778414807270,0.0931795566666666,-0.0258416151111111,1.1330708555555558,-2.224222277777778,-2.580812622222222,1.2671602444444443
140,1778414807280,0.1445694099999999,0.0075614165999999,1.08920992,-2.24356564,-2.49308144,1.2297577
141,1778414807290,0.2281501644444444,0.0475671387777777,1.0559491,-2.228769511111111,-2.4553175222222223,1.018401177777778
142,1778414807300,0.296950234,0.0767239879999999,1.0298284,-2.1563366,-2.62025968,0.6543090300000001
143,1778414807310,0.37541825,0.09470064,1.0520736,-2.0835238,-2.9105344,0.26190075
144,1778414807320,0.4574284633333333,0.1237538311111111,1.2019739555555555,-1.9771005111111108,-3.0620245333333336,-0.1143811433333333
145,1778414807330,0.4157468279999999,0.1233364697999999,1.36133251,-1.7554987,-3.15291866,-0.511065378
146,1778414807340,0.3015521572222222,0.0960218614444444,1.508285788888889,-1.3185223333333331,-3.194917888888889,-0.9390928777777778
147,1778414807350,0.0897979209999999,0.0078480206,1.60655106,-0.824735446,-3.1170009,-1.12527234
148,1778414807360,-0.017988855,-0.059302237,1.5753053,-0.40911496,-3.0015507,-1.0477557
149,1778414807370,-0.0437708476,-0.0864715071,1.49518477,-0.1431520572,-3.01779924,-0.93059523
150,1778414807380,-0.0145435311111111,-0.0730970852222222,1.4170204,0.207026316,-3.1127249444444445,-0.6610215555555556
151,1778414807390,0.0761141954,-0.0306084908,1.36240269,0.351145544,-3.07033208,-0.4938394439999999
152,1778414807400,0.15503953,-0.006341833,1.2653787,0.31555352,-2.9106701555555556,-0.4214336999999999
153,1778414807410,0.193008212,-0.0285931305,1.1350815,0.19440214,-2.8940415,-0.38865158
154,1778414807420,0.24169093,-0.03149574,1.1072292,-0.2405211,-2.8934307,-0.30801973
155,1778414807430,0.2931268677777778,-0.0330134426666666,1.1214577111111113,-0.4809234533333333,-2.8525717777777775,-0.2909159999999999
156,1778414807440,0.311018146,-0.0550337011999999,1.18532214,-0.990229212,-2.72214912,-0.252432635
157,1778414807450,0.28147984,-0.07637641,1.2194918,-1.4171571555555555,-2.611694377777778,-0.1812349957777778
158,1778414807460,0.28147984,-0.07637641,1.2194918,-1.7188479,-2.555632,-0.088114716
159,1778414807470,0.3232404088888889,-0.1460484911111111,1.4041773888888889,-1.818619566666667,-2.524411,-0.0283874293333333
160,1778414807480,0.476021682,-0.1483379239999999,1.61062753,-1.90228529,-2.34831071,0.0258082958
161,1778414807490,0.5339742333333334,-0.12632851,1.6677293999999998,-1.745249977777778,-2.1080848333333333,-0.0617125406666666
162,1778414807500,0.528957718,-0.127214744,1.6626152900000002,-1.39247213,-2.00727473,-0.219080369
163,1778414807510,0.51649356,-0.13421515,1.6658593,-1.1568683,-2.0547376,-0.30801973
164,1778414807520,0.5254100355555555,-0.1571941355555555,1.7007902333333331,-0.8247116577777778,-2.1079490333333335,-0.4263204844444444
165,1778414807530,0.547056284,-0.167711001,1.76304502,-0.537759376,-2.07917126,-0.529024268
166,1778414807540,0.4998394711111111,-0.2082743477777777,1.7570301222222222,-0.2025128315555555,-1.812833522222222,-0.6023802644444445
167,1778414807550,0.4076457299999999,-0.2645581,1.7171124,-0.0387582589,-1.48993287,-0.5275582320000001
168,1778414807560,0.2889599355555555,-0.2935842144444444,1.6218662666666668,0.061848287,-1.091355,-0.34283802
169,1778414807570,0.283479968,-0.2940232479999999,1.5370957,0.061848287,-1.091355,-0.34283802
170,1778414807580,0.3031884,-0.28797412,1.4496273,0.0754226718888888,-0.6879242977777777,-0.0968701942222222
171,1778414807590,0.344928658,-0.271680478,1.3862759800000002,0.0021074234,-0.5370110909999999,0.0322832775
172,1778414807600,0.3518633233333333,-0.2533345644444444,1.3790506777777778,-0.084755056,-0.48478365,0.07681404
173,1778414807610,0.311457179,-0.225281446,1.42409225,-0.20875706,-0.391324,0.13789877
174,1778414807620,0.28806558,-0.2145247,1.4527982,-0.2668554066666667,-0.2620958933333333,0.1954541566666666
175,1778414807630,0.288772938,-0.21286302,1.45626486,-0.276194584,-0.2105132379999999,0.212910814
176,1778414807640,0.3395116933333333,-0.1686107833333333,1.5223177666666663,-0.2555207977777777,0.0433277355555555,0.2634618222222222
177,1778414807650,0.3639270811111111,-0.1530272322222222,1.5134487444444444,-0.1283288288888888,0.3365344088888888,0.23251222
178,1778414807660,0.337339813,-0.161491125,1.47133584,0.0019241684,0.466672043,0.20674125
179,1778414807670,0.3217261,-0.16083255,1.4493834,0.08933641,0.48463094,0.2081462
180,1778414807680,0.34353529,-0.147926319,1.4553349599999998,0.146756055,0.476751018,0.209612238
181,1778414807690,0.40114128,-0.1197427577777777,1.4709597888888888,0.21883602,0.48707435,0.19715095
182,1778414807700,0.431305658,-0.1060915539999999,1.49812394,0.2547538399999999,0.62927961,0.100881424
183,1778414807710,0.3938949566666666,-0.1326805066666666,1.5050268,0.24096228,0.7623798100000001,0.0554343888888888
184,1778414807720,0.36346635,-0.1554664,1.5055146,0.21150586,0.87076277,0.06398625
185,1778414807730,0.3921129722222222,-0.1632717333333333,1.5489046444444443,0.1948772433333333,1.0413248711111112,0.1076957666666666
186,1778414807740,0.383735817,-0.160491073,1.54847145,0.18707198,1.2574291,0.16111097
187,1778414807750,0.3739276222222222,-0.1430198588888888,1.505731477777778,0.1718007955555555,1.5644816222222222,0.2323764788888888
188,1778414807760,0.384931,-0.13104422,1.4945384,0.158973,1.6557015,0.23380178
189,1778414807770,0.3799984733333333,-0.12781911,1.478602511111111,0.1236796008888889,1.8158791888888888,0.2278290511111111
190,1778414807780,0.37829647,-0.1212631719999999,1.42474782,0.05916055635,1.98568122,0.239116162
191,1778414807790,0.3826544355555555,-0.1164092277777777,1.4125282222222222,-0.0020870615,2.0602861333333333,0.2555208044444444
192,1778414807800,0.3881323911111111,-0.1068151655555555,1.445345111111111,-0.016340164,2.0674126,0.25884652
193,1778414807810,0.411865503,-0.1122382567999999,1.43889493,-0.0158514862,2.05617298,0.251516352
194,1778414807820,0.4565510477777777,-0.1082515768888889,1.4757670555555555,-0.0143040065555555,2.0064634777777774,0.20509196
195,1778414807830,0.51673746,-0.092505395,1.5689635,-0.015729317,1.9898349,0.14522894
196,1778414807840,0.5042672,-0.1203118999999999,1.6316805,-0.0070417116666666,2.096801033333333,0.10287686
197,1778414807850,0.460331728,-0.1788122609999999,1.65863635,0.00827698021,2.4413121099999997,0.140158904
198,1778414807860,0.4145296088888888,-0.2149854444444444,1.6777299666666667,0.0140664546666666,2.679685122222222,0.2530095422222222
199,1778414807870,0.4344338879999999,-0.216085788,1.6840068,0.0321611069,2.93237233,0.374785333
200,1778414807880,0.49963284,-0.20379238,1.6590296,0.065513365,3.2060318,0.4671454400000001
201,1778414807890,0.616118266,-0.1442187909999999,1.60784993,0.13832636,3.28849632,0.417300308
202,1778414807900,0.6535273077777778,-0.1095524588888889,1.6575729222222222,0.26838253,3.325223411111111,0.2861989055555555
203,1778414807910,0.6560342211111112,-0.1083599824444444,1.7607429666666663,0.5508654577777777,3.5893808222222225,0.0716557726666666
204,1778414807920,0.7429702,-0.084456146,1.7315035,0.77348536,3.8212314,-0.072232686
205,1778414807930,0.7820747666666666,-0.0567343399999999,1.6887942444444444,1.1858751466666666,4.049280977777777,-0.3820001191111111
206,1778414807940,0.87408759,-0.0261997001339999,1.58162576,1.63582609,4.21339525,-0.7222963630000001
207,1778414807950,0.9469726,-0.0026017777466666,1.4821427333333332,2.0380834222222224,4.2040288,-1.0948673333333332
208,1778414807960,0.793778052,-0.0517774084,1.35009704,3.03565122,3.83149366,-2.0929917
209,1778414807970,0.51673746,-0.18083371,1.3356572,3.5248177,3.6379771,-2.4472833
210,1778414807980,0.344318865,-0.27675394,1.30173755,3.80428035,3.61323785,-2.4805744
211,1778414807990,-0.033599522,-0.5081089,1.1914415,4.4334869999999995,3.798086955555555,-2.226088522222222
212,1778414808000,0.0252284361222222,-0.5263382977777777,1.0502171166666667,4.6095552444444445,4.3716046111111115,-1.7623706444444445
213,1778414808010,0.33086076,-0.3956877239999999,0.64642186,4.5876463,5.146036799999999,-1.35220196
214,1778414808020,0.4341784311111111,-0.2726548066666667,0.3155231524444444,4.383804866666667,5.511378166666667,-1.2956918
215,1778414808030,0.416079143,-0.2141313799999999,0.0162082653999999,3.968903800000001,5.6036835,-1.3635638
216,1778414808040,0.33172667,-0.16229606,-0.22428137,3.5669662999999994,5.4680758,-1.4197618
217,1778414808050,0.1384623395,-0.140535626,-0.360030143,2.9176357,5.210909,-1.4558781
218,1778414808060,-0.0792525888888888,-0.1565233644444444,-0.501231811111111,1.9481361666666668,5.028876533333333,-1.3292885555555556
219,1778414808070,-0.17757133,-0.15595421,-0.559118,1.2743801,4.943358,-1.1772554
220,1778414808080,-0.29697194,-0.1276632666666666,-0.5162191533333333,0.4804822788888889,4.837409888888889,-0.9221248444444444
221,1778414808090,-0.416618824,-0.112384608,-0.383394307,-0.362629481,4.683442100000001,-0.61338225
222,1778414808100,-0.43969032,-0.12519024,-0.31215236,-0.8705845844444444,4.608952644444445,-0.3792852411111111
223,1778414808110,-0.3916082166666667,-0.0975971561111111,-0.2354405733333333,-1.4011393666666665,4.481014444444445,-0.1065080058888888
224,1778414808120,-0.390169109,-0.0765502015,-0.1227998469999999,-1.60840663,4.318766549999999,0.0288625343
225,1778414808130,-0.35965514,-0.10006681,-0.08152915,-1.6754776,4.1730795,0.0645971
226,1778414808140,-0.3842541319999999,-0.090980918,-0.0625890192,-1.6522654,4.06068354,0.0926960719999999
227,1778414808150,-0.4608975044444444,-0.0434679850444444,0.0441387536666666,-1.4696220999999998,3.7515948,0.1719026033333333
228,1778414808160,-0.46493872,-0.00617109229,0.1183300679,-0.99101569,3.5774422200000005,0.156346354
229,1778414808170,-0.47045428,0.0041465834,0.028050419,-0.6650599,3.4552574,0.08719844
230,1778414808180,-0.505532533,0.0320994336399999,0.0509023639,-0.4043503364,3.32667425,0.04437805318
231,1778414808190,-0.5272326377777777,0.0135272115555555,-0.05347873,-0.118962504,3.0801973,0.0010689828
232,1778414808200,-0.50118774,0.07101024,-0.1122626499999999,0.0675902508,2.85345072,-0.08958075
233,1778414808210,-0.50118774,0.07101024,-0.11226265,0.22005773,2.669708,-0.22250111
234,1778414808220,-0.574015236,0.072278606,-0.135294478,0.36299598,2.5353215,-0.37887803
235,1778414808230,-0.6550077222222223,0.0687878848888888,-0.1603650477777777,0.4764778211111111,2.3834921,-0.4604600466666666
236,1778414808240,-0.7081511,0.059302237,-0.12714157,0.56152135,2.2989237,-0.49371728
237,1778414808250,-0.734765396,0.046935665,-0.155692014,0.645634999,2.2675871400000003,-0.511859453
238,1778414808260,-0.7922786244444445,0.0470522031111111,-0.2777906055555555,0.662379,2.2607796555555555,-0.4359582933333333
239,1778414808270,-0.78528364,0.0476918071,-0.344797548,0.56005534,2.28353024,-0.437885856
240,1778414808280,-0.78550315,0.070522405,-0.4849368,0.3465031,2.2928152,-0.458899
241,1778414808290,-0.808333738,0.0929414005,-0.55038273,0.16007252,2.23722813,-0.51405851
242,1778414808300,-0.8721850355555555,0.0592141568888889,-0.5993947233333333,-0.1308400911111111,2.1332482444444443,-0.6065204344444445
243,1778414808310,-0.922941011,0.0018507178999999,-0.6058310560000001,-0.534094306,2.00590032,-0.715027277
244,1778414808320,-0.97828877,-0.042959824,-0.57155776,-0.74630266,1.9470756,-0.7276718
245,1778414808330,-1.016559354,-0.074376288,-0.480186536,-0.8230250439999999,1.98910192,-0.67636064
246,1778414808340,-1.0406027333333334,-0.0950529744444444,-0.4589190511111111,-0.7998536044444445,2.0685662777777782,-0.5940320055555556
247,1778414808350,-1.068599,-0.10372557,-0.52030474,-0.6740869333333334,2.1527275333333336,-0.4703014888888888
248,1778414808360,-1.08638057,-0.101749836,-0.652980184,-0.43770262,2.126787,-0.284929696
249,1778414808370,-1.0609561333333333,-0.0968145944444444,-0.8003447777777777,-0.2971941722222222,1.9647902444444445,-0.21415287
250,1778414808380,-1.0622572,-0.09031015,-0.8832222,-0.17393875,1.7204514,-0.17180079
251,1778414808390,-1.0779795888888888,-0.0781922311111111,-0.9385439555555556,-0.0841442091111111,1.5356360777777778,-0.1713256922222222
252,1778414808400,-1.1139979,-0.07125416,-1.0181692,0.0758977708,1.17496466,-0.18829367
253,1778414808410,-1.1452734555555557,-0.0623918544444444,-1.0712108444444446,0.2249445,0.75096035,-0.18890451
254,1778414808420,-1.1398531,-0.0558874099999999,-1.087472,0.3465031,0.03993414,-0.15408622
255,1778414808430,-1.115559666666667,-0.0545052131111111,-1.0543705222222224,0.3303495888888889,-0.3049909455555555,-0.1369824977777777
256,1778414808440,-1.094942,-0.05564349,-1.0096321,0.1815132515,-0.808471604,-0.079929368
257,1778414808450,-1.0515992666666667,-0.0612264708888889,-0.9035859111111112,-0.0246205394444444,-1.0705182777777775,-0.0131162475555555
258,1778414808460,-0.99060347,-0.0570825986,-0.7593065,-0.220607493,-1.17430807,0.0378419877
259,1778414808470,-0.9613772155555556,-0.058462085,-0.6296573688888888,-0.4179383066666666,-1.1949275444444445,0.0867233411111111
260,1778414808480,-0.9619463700000002,-0.061497495,-0.53399456,-0.63512844,-1.1341143,0.15622419
261,1778414808490,-0.947116234,-0.0599364221999999,-0.483406256,-0.7261447,-1.0858574,0.21120045
262,1778414808500,-0.9330524188888888,-0.0562939321111111,-0.41939775,-0.7908945,-1.0400438,0.26495498
263,1778414808510,-0.921864756,-0.0231476922,-0.390236186,-0.73787294,-1.10357192,0.2989180919999999
264,1778414808520,-0.9197183,0.005366167,-0.37950385,-0.6666210188888889,-1.1899049888888888,0.3073749422222222
265,1778414808530,-0.885515074,0.0414963236,-0.3719912159999999,-0.5332391160000001,-1.38333998,0.297696424
266,1778414808540,-0.85017157,0.07369333,-0.36242968,-0.4188885,-1.5836979,0.2698418
267,1778414808550,-0.816215276,0.084157349,-0.3606948259999999,-0.348030216,-1.72462033,0.2158428849999999
268,1778414808560,-0.80135775,0.08271824,-0.35483778,-0.308936,-1.8127656,0.17027368
269,1778414808570,-0.791064474,0.0781570016,-0.340471105,-0.29665797,-1.9569408,0.0733322113999999
270,1778414808580,-0.7906254,0.08320607,-0.3231286,-0.30710346,-1.9893768,0.031000499
271,1778414808590,-0.808727048,0.0686442454,-0.32659222,-0.32481802,-2.000983,0.0029015245
272,1778414808600,-0.8342356666666667,0.0462357602222222,-0.3205810322222222,-0.3362205177777777,-2.0286747333333337,0.0039874751666666
273,1778414808610,-0.843097895,0.0247575417999999,-0.322079765,-0.348396725,-2.1144782199999996,0.0592827246
274,1778414808620,-0.8334158633333334,0.0164237231111111,-0.3462465111111111,-0.3679845777777777,-2.194893066666667,0.0912707611111111
275,1778414808630,-0.790226012,0.0143666913,-0.3586520199999999,-0.4298837519999999,-2.35893948,0.108455934
276,1778414808640,-0.7505926,0.014878917,-0.36413708,-0.5080722,-2.5177598,0.08597675
277,1778414808650,-0.7417031933333333,0.0113014725555555,-0.3303580222222222,-0.5832064577777778,-2.67277908888889,0.0520407938888888
278,1778414808660,-0.736640547,0.008073641966,-0.27443369,-0.61313796,-2.7449949,0.035887275
279,1778414808670,-0.7098585,-0.00048783334,-0.19647488,-0.6700824611111111,-3.0091524222222223,-0.0181387709999999
280,1778414808680,-0.6935100000000001,-0.018738898,-0.1335077949999999,-0.658829304,-3.0981867999999997,-0.0322832784
281,1778414808690,-0.6797720599999999,-0.0316583511111111,-0.0677851246666666,-0.6143596,-3.1328828,-0.03130592
282,1778414808700,-0.688509672,-0.054960524,-0.040959708,-0.493228624,-3.14974226,0.0154238932
283,1778414808710,-0.6944104166666666,-0.0739372433333333,-0.0391655628888888,-0.3857670155555555,-3.1655292444444445,0.0786465835555555
284,1778414808720,-0.688091954,-0.087215457,-0.0601163138,-0.3151666389999999,-3.20380233,0.163737607
285,1778414808730,-0.66519123,-0.0954324,-0.084212236,-0.27839363,-3.2538307,0.23685603
286,1778414808740,-0.597431206,-0.0739433408,-0.1062623031999999,-0.276683264,-3.34240352,0.270758044
287,1778414808750,-0.54479467,-0.0255028432222222,-0.0883046083333333,-0.2698418,-3.4938936,0.2936648
288,1778414808760,-0.50899315,-0.020732917,-0.089822315,-0.274362066,-3.5390352,0.296963376
289,1778414808770,-0.4928946333333333,-0.0444741421111111,-0.0519339248888888,-0.3203384722222222,-3.956847866666666,0.332759031111111
290,1778414808780,-0.4750887,-0.060033992,-0.020519491,-0.37049584,-4.056687744444444,0.3916039733333333
291,1778414808790,-0.423146626,-0.0791631548,0.07291889,-0.442100708,-4.10351908,0.484737836
292,1778414808800,-0.40185273,-0.09616415,0.13421515,-0.47875154,-4.0497646,0.53800374
293,1778414808810,-0.38307112,-0.12445848,0.15031365,-0.513386564,-3.97444711,0.6001268700000001
294,1778414808820,-0.25836873,-0.088114895,0.078327745,-0.6182283222222222,-3.996485166666667,0.7905550933333333
295,1778414808830,-0.093368252,-0.0069638214999999,0.0447434661,-0.7381172899999999,-4.18477714,0.856010808
296,1778414808840,0.03765464,0.043447655,0.051252995,-0.91062057,-4.5073657,0.8281562
297,1778414808850,0.1239523519999999,0.0506675894,0.106109855,-1.033278754,-4.73460074,0.7089188
298,1778414808860,0.1192786388888889,0.0118062424444444,0.1868232377777777,-1.3428374,-5.025296088888889,0.4049747611111111
299,1778414808870,0.0262393337999999,-0.0801876119999999,0.1977066559999999,-1.75855292,-5.0455218,0.29769641
300,1778414808880,0.014726469,-0.13836174,0.14714272,-2.0835238,-5.050409,0.41155833
301,1778414808890,0.2111708499999999,-0.18961473,0.04539899,-2.25816496,-5.08064582,0.493839456
302,1778414808900,0.4981828666666667,-0.1943575488888888,0.0227994324444444,-3.0399068666666667,-5.270110133333334,0.7974101833333334
303,1778414808910,0.92816392,-0.177028625,0.2247265272,-3.89902276,-5.5221052,0.8287670120000001
304,1778414808920,1.2089323333333333,-0.22192352,0.59944554,-5.110347933333333,-5.572683111111111,0.0087385133333333
305,1778414808930,1.1983626,-0.32410428,0.82462126,-5.4878516,-5.536032,-0.4124746
306,1778414808940,1.158441533333333,-0.5360407777777778,1.0905718733333334,-5.7175303,-5.602004,-0.962848
307,1778414808950,1.073949824,-0.704187398,1.54920931,-5.5111250400000005,-5.5946126,-1.15819695
308,1778414808960,0.9533652744444444,-0.8223209911111111,2.1447185111111113,-4.7783019555555555,-5.309950888888888,-1.3123883111111112
309,1778414808970,0.8179067999999999,-0.8764976277777777,2.527190177777778,-3.7786248,-4.948397,-1.3470709
310,1778414808980,0.765142215,-0.862986343,2.7267322500000004,-2.61960337,-4.65316724,-1.24786937
311,1778414808990,0.7703159411111111,-0.8017676355555555,2.805451611111111,-0.9145486466666666,-4.142613377777778,-1.1038858555555555
312,1778414809000,0.7691394010000001,-0.7162155450000001,2.7908883999999996,0.29274854,-3.6893647,-1.0501992
313,1778414809010,0.6710113766666667,-0.6550314388888888,2.5015451111111116,2.0450742444444447,-2.9145389555555554,-1.0711037444444444
314,1778414809020,0.502072,-0.6430558,2.1507657,3.2609318199999997,-2.4476344400000003,-1.0548416399999998
315,1778414809030,0.4624829666666666,-0.62098812,1.9620893888888888,3.8744260333333336,-2.3349127999999997,-0.9182561333333334
316,1778414809040,0.3068624199999999,-0.51556057,1.21994923,3.96224559,-2.41623691,-0.7543658179999999
317,1778414809050,0.26705825,-0.44978234,1.0291454,3.764269955555555,-2.5004524444444445,-0.5940320055555556
318,1778414809060,0.307048404,-0.348636194,0.8197552079999999,3.17150366,-2.53522988,-0.379244516
319,1778414809070,0.3473678388888889,-0.26793907,0.6998884022222223,2.565168155555556,-2.5033708444444445,-0.2216187766666666
320,1778414809080,0.408901904,-0.1665767928,0.684192374,1.15502056,-2.28246136,0.1124264409999999
321,1778414809090,0.5145422,-0.082230404,0.73946387,0.6812474,-2.1610248,0.20264858
322,1778414809100,0.55210537,-0.051252995,0.8341341,-0.181330006,-1.94111979,0.265871276
323,1778414809110,0.55161756,-0.069790654,1.0020401,-0.70109993,-1.8347561,0.26434416
324,1778414809120,0.5477149,-0.09909115,1.1968076,-1.0401201,-1.7987161,0.24113196
325,1778414809130,0.5720638299999999,-0.120214333,1.4145032400000002,-1.1159874,-1.7503369599999998,0.217492164
326,1778414809140,0.58181241,-0.1393475599999999,1.5577331666666667,-1.0103922733333333,-1.6776326111111113,0.1774002222222222
327,1778414809150,0.57628363,-0.15302722,1.6197287,-0.7505786,-1.5525447,0.103691325
328,1778414809160,0.6210084555555556,-0.1524513099999999,1.6331710666666668,-0.3949297288888889,-1.392095477777778,0.0199373765555555
329,1778414809170,0.669441472,-0.1430510239999999,1.58542782,-0.0829836,-1.24241748,-0.075042582
330,1778414809180,0.6460946000000001,-0.1564962555555555,1.5368409888888888,0.1682714522222222,-1.0898618333333332,-0.1800811633333333
331,1778414809190,0.59579694,-0.17546757,1.498685,0.33550787,-0.9557469,-0.24632415
332,1778414809200,0.5398316244444445,-0.20411421,1.4216615333333331,0.4172256366666667,-0.8483735422222223,-0.2477494666666666
333,1778414809210,0.51673746,-0.2133051199999999,1.3424869,0.45584476,-0.69980186,-0.19318044
334,1778414809220,0.5126180288888889,-0.2089688355555555,1.2756807666666663,0.3678827711111111,-0.5453932755555555,-0.1056935433333333
335,1778414809230,0.5018382333333333,-0.2123294533333333,1.2443815333333332,0.24143738,-0.41331452,-0.030084228
336,1778414809240,0.4853636759999999,-0.212012363,1.24184379,0.165997742,-0.35589488,0.0053449134999999
337,1778414809250,0.47231415,-0.21013421,1.2531829,-0.049325917,-0.17019732,0.11346488
338,1778414809260,0.4882662910000001,-0.2019538599999999,1.28804768,-0.1397313107,-0.0645207442,0.169846082
339,1778414809270,0.4969226,-0.1976910822222222,1.3045984555555554,-0.21486552,0.04176668,0.21791977
340,1778414809280,0.498705896,-0.19840183,1.3318093599999998,-0.285296196,0.193867653,0.27338468
341,1778414809290,0.4921526888888888,-0.2019223533333333,1.3678575777777775,-0.2863346377777778,0.2647938022222222,0.2952937511111111
342,1778414809300,0.50060844,-0.21428078,1.3891054,-0.2468739139999999,0.368203452,0.3144336159999999
343,1778414809310,0.5283641333333333,-0.2124107599999999,1.3957453222222225,-0.1940967055555555,0.4377314422222222,0.3172163699999999
344,1778414809320,0.5672349999999999,-0.2065025644444444,1.4034965888888888,-0.0888273676666666,0.5345168088888889,0.2947507611111111
345,1778414809330,0.589845372,-0.212963644,1.38383686,-0.0270910756,0.683278433,0.246201981
346,1778414809340,0.5892925155555555,-0.2231973055555555,1.367694966666667,-0.013896775,0.76134473,0.21486552
347,1778414809350,0.57238096,-0.23794071,1.3759339,-0.013896775,0.76134473,0.2148655199999999
348,1778414809360,0.5592670666666666,-0.2518134733333333,1.4064777,-0.0242133074444444,0.905844081111111,0.2023770933333333
349,1778414809370,0.549885757,-0.271802442,1.41755527,-0.0399188692,1.15407372,0.2399102639999999
350,1778414809380,0.5445439533333334,-0.30569873,1.4239347333333334,-0.0430816981111111,1.3560469666666668,0.3035741222222222
351,1778414809390,0.5601546,-0.29870647,1.4257234,-0.017561859,1.4901619,0.3437543
352,1778414809400,0.5821376,-0.28651062,1.4152045,0.045966256,1.5915625,0.35963634
353,1778414809410,0.6008684055555555,-0.2739895722222222,1.4122504444444444,0.1082048068888888,1.6338467,0.3487089511111111
354,1778414809420,0.61684694,-0.258313852,1.41711312,0.203137256,1.6787303699999998,0.318526314
355,1778414809430,0.5936017,-0.26846078,1.4218208,0.2817533,1.7595456,0.2948865
356,1778414809440,0.5700210400000001,-0.281339588,1.4122896800000002,0.286456824,1.9079204,0.314983381
357,1778414809450,0.5389338888888889,-0.3028259466666667,1.379944911111111,0.2423197133333333,2.1517775111111113,0.3740930411111111
358,1778414809460,0.5368849800000001,-0.300243145,1.34663652,0.180719158,2.35316682,0.43501488
359,1778414809470,0.5350312477777778,-0.2901693933333333,1.333163888888889,0.1506926277777777,2.504982877777778,0.4771226266666667
360,1778414809480,0.55552024,-0.27992487,1.3193147,0.1601947,2.5762484,0.4928010399999999
361,1778414809490,0.5581254,-0.2684574111111111,1.3880485111111112,0.2559619688888889,2.5668819333333333,0.4714213711111111
362,1778414809500,0.5828694,-0.2333063,1.4127654,0.36849362,2.5744157,0.44087902
363,1778414809510,0.5883981733333333,-0.2139555733333333,1.424981533333333,0.5786250688888889,2.677038011111111,0.3643195
364,1778414809520,0.546205658,-0.209768344,1.42317755,0.765055638,2.79364885,0.286395742
365,1778414809530,0.50192971,-0.2174517233333333,1.3911381,0.9396357833333332,2.967801388888889,0.2192771888888889
366,1778414809540,0.492242139,-0.209545767,1.35688095,1.0593618,3.1345627,0.18554485
367,1778414809550,0.50036454,-0.18668772,1.3280958,1.1943591,3.2750576,0.1293469
368,1778414809560,0.4549015339999999,-0.178028684,1.34002328,1.33216622,3.3918515200000003,0.067284824
369,1778414809570,0.3902124711111111,-0.1825411355555555,1.2948283111111112,1.5354239333333333,3.567178211111111,-0.0050394902333333
370,1778414809580,0.354593866,-0.18820001,1.19781988,1.87369764,3.77413497,-0.078280079
371,1778414809590,0.39130333,-0.16302781,1.1218642,2.0563410666666666,3.787227533333333,-0.1188606966666666
372,1778414809600,0.43398872,-0.10640865,1.0232915,2.15652,3.750984,-0.16324893
373,1778414809610,0.419500097,-0.082452981,1.00482386,2.20636504,3.70358216,-0.228243082
374,1778414809620,0.4243675877777778,-0.0513342955555555,1.0017962444444446,2.2697302111111113,3.659628233333333,-0.4097597322222222
375,1778414809630,0.372625382,-0.0410816648,1.02773375,2.35382356,3.68598978,-0.589376
376,1778414809640,0.2575895422222222,-0.0567885435555555,1.0608003444444445,2.447894066666666,3.8073855,-0.6918354533333333
377,1778414809650,0.16287535,-0.09323715,1.0623181,2.507757,3.9482877,-0.71423316
378,1778414809660,0.07913063,-0.1244584744444444,0.9749146333333332,2.554792255555556,4.161609044444444,-0.6529448077777777
379,1778414809670,0.0267515602,-0.123555995,0.792073624,2.5302362799999996,4.45565726,-0.46806171
380,1778414809680,0.0313432928888888,-0.0848321911111111,0.6532156244444445,2.4314013,4.6092243,-0.29152685
381,1778414809690,0.06280854,-0.03320316,0.5686307,2.20599846,4.69333803,-0.1683800569999999
382,1778414809700,0.0981188655555555,0.0338129476666666,0.4642174711111111,1.9975638111111111,4.650897766666667,-0.1390186588888888
383,1778414809710,0.088422839,0.1010638256999999,0.447364542,1.84181142,4.56939724,-0.1473669
384,1778414809720,0.0717216643333333,0.1269247511111111,0.4283989811111111,1.5716591333333332,4.3849075555555554,-0.2484281788888888
385,1778414809730,0.0091316301,0.1401179264,0.40481935,1.44572276,4.284864740000001,-0.331842763
386,1778414809740,-0.1511809077777777,0.1151320497777777,0.3718238777777778,1.2347428333333332,4.181359955555555,-0.4487182111111111
387,1778414809750,-0.24056281,0.087352656,0.26964986,1.0642487,4.1449804,-0.4601206999999999
388,1778414809760,-0.2839257877777778,0.085618144,0.2724955844444444,0.9779155444444444,4.104800222222222,-0.4302570555555556
389,1778414809770,-0.3205461539999999,0.06696123,0.304023844,0.7946206200000001,4.10368698,-0.342960204
390,1778414809780,-0.2702393411111111,0.1034816466666666,0.2944717866666667,0.5447569800000001,4.2014498555555555,-0.2490390366666666
391,1778414809790,-0.2585042377777777,0.1451676822222222,0.2584805411111111,0.4744416777777778,4.2171961,-0.2506000811111111
392,1778414809800,-0.2830043,0.1644913,0.18473639,0.4961607,4.0374713,-0.28480753
393,1778414809810,-0.2830043,0.1644913,0.18473639,0.4961607,4.0374713,-0.28480753
394,1778414809820,-0.360054548,0.198965874,0.177312173,0.623827755,3.80259296,-0.4185830839999999
395,1778414809830,-0.40575537,0.18815123,0.19132213,0.902985,3.4906867,-0.7044596
396,1778414809840,-0.508547943,0.125778683,0.0801876046,1.08086375,3.3059665000000003,-0.82162014
397,1778414809850,-0.5214329,0.082230404,0.06320491,1.2358967,3.1455579,-0.8754968
398,1778414809860,-0.52438426,0.0855476768,0.0263003164,1.2863527,3.11006776,-0.90500075
399,1778414809870,-0.5735870000000001,0.0842630502222222,-0.0356965263333333,1.361391911111111,3.0229133555555556,-0.9589793222222222
400,1778414809880,-0.62916474,0.0734981894,-0.1234889052,1.37535307,2.8981648,-0.958205515
401,1778414809890,-0.6480561133333334,0.0448501772222222,-0.1745731877777777,1.2615523,2.689255,-0.92192125
402,1778414809900,-0.635744396,0.0188791502,-0.169272074,1.08507855,2.6745946700000003,-0.958938575
403,1778414809910,-0.62832934,-0.009024917,-0.15717381,0.9457443,2.701472,-1.0043856
404,1778414809920,-0.628701312,-0.0477680307,-0.170345307,0.8602257,2.70214399,-1.08715544
405,1778414809930,-0.6817301244444445,-0.0978207477777777,-0.1631938077777777,0.8602257,2.6587126,-1.1393828
406,1778414809940,-0.7867228,-0.19498089,-0.23086715,0.959861588888889,2.4759336,-1.1476632444444443
407,1778414809950,-0.8633918470000002,-0.246596709,-0.255920432,1.0337063,2.313584,-1.0770764
408,1778414809960,-0.9445706566666668,-0.2588633555555555,-0.3445898811111111,1.0997457000000002,2.185781111111111,-0.9649520022222222
409,1778414809970,-0.972971393,-0.258582166,-0.46501493,1.05447512,2.0898917100000003,-0.784663831
410,1778414809980,-0.9725160622222222,-0.25333455,-0.5525661366666667,0.9512419,2.0466437,-0.65131587
411,1778414809990,-0.94865291,-0.229696325,-0.6632368790000001,0.659684488,1.94341049,-0.5339721099999999
412,1778414810000,-0.9563363,-0.21037814,-0.70848644,0.47661358,1.8719414,-0.4674508599999999
413,1778414810010,-0.99587825,-0.209500037,-0.786006248,0.2806537719999999,1.73413428,-0.392194492
414,1778414810020,-1.0588423,-0.21354906,-0.8761487,0.0926621355555555,1.5661105,-0.2962778933333333
415,1778414810030,-1.12949572,-0.1983195,-0.909004245,-0.1555522574999999,1.30202089,-0.1065012192
416,1778414810040,-1.1634622222222224,-0.1825953366666666,-0.91634076,-0.3541387,1.0692881,0.103080474
417,1778414810050,-1.1596346,-0.153557734,-0.884338172,-0.468428218,0.9017251,0.301666919
418,1778414810060,-1.1235106,-0.11372615,-0.8439211,-0.55693996,0.7130878,0.53311694
419,1778414810070,-1.041368688,-0.0490546932,-0.8093307600000001,-0.564880982,0.59055187,0.616436532
420,1778414810080,-0.9740608888888888,0.0238835068888888,-0.7972755222222223,-0.5178457533333334,0.3241817333333333,0.6467345466666666
421,1778414810090,-0.95584846,0.079303406,-0.7877899,-0.45187426,0.1596602,0.6125271
422,1778414810100,-0.972120746,0.1209674226,-0.76781003,-0.3353246019999999,-0.107524384,0.5399584799999999
423,1778414810110,-0.9839294,0.14055698,-0.7343416,-0.2040738933333333,-0.3704873455555555,0.4843849233333333
424,1778414810120,-0.984877593,0.154612684,-0.70626377,-0.0285571106,-0.700718167,0.437763682
425,1778414810130,-0.9779093444444444,0.1651688466666666,-0.6990787366666666,0.0700607837777777,-0.9252045333333332,0.4097936711111111
426,1778414810140,-0.9513604,0.177223756,-0.68601565,0.106684476,-1.26019316,0.370265064
427,1778414810150,-0.9394247444444443,0.18850355,-0.6669054555555555,0.0653097531111111,-1.3867335777777778,0.34884468
428,1778414810160,-0.9387743,0.19912747,-0.6369579,-0.0016798299999999,-1.4884057,0.32176378
429,1778414810170,-0.9329202555555556,0.2054422077777778,-0.5990153222222222,-0.0948000988888888,-1.5615715666666667,0.3032347644444444
430,1778414810180,-0.919770138,0.209548826,-0.54730938,-0.236856023,-1.647226,0.278393646
431,1778414810190,-0.89272485,0.1955703566666666,-0.4846827433333333,-0.4958552688888888,-1.7546672444444442,0.2199559133333333
432,1778414810200,-0.890838566,0.173321086,-0.448410318,-0.653209508,-1.78808736,0.179314212
433,1778414810210,-0.89435095,0.15205155,-0.40877387,-0.76951486,-1.8286476,0.15927842
434,1778414810220,-0.8723985,0.14766106,-0.33947104,-0.85503346,-1.91241,0.15011571
435,1778414810230,-0.83951548,0.151344193,-0.263896507,-0.858820712,-2.00929044,0.1211615539999999
436,1778414810240,-0.8216333,0.15668598,-0.22208612,-0.8446491,-2.0742846,0.09513946
437,1778414810250,-0.7946042839999999,0.140852721,-0.2159394349999999,-0.79517045,-2.1772123999999997,0.0392469359999999
438,1778414810260,-0.7866685411111111,0.1161382144444444,-0.2124107833333333,-0.7319137777777778,-2.389413933333333,-0.0674816553333333
439,1778414810270,-0.7869667,0.08247432,-0.18424855,-0.72192983,-2.5206916,-0.1204896196
440,1778414810280,-0.7808687555555556,0.0613348772222222,-0.1662258222222222,-0.71582814,-2.5866495333333335,-0.14024035
441,1778414810290,-0.750620025,0.01297941595,-0.1028444147999999,-0.683079959,-2.758861,-0.172472718
442,1778414810300,-0.748675188888889,-0.0073717040555555,-0.0361775853333333,-0.5857855444444444,-2.8884760444444444,-0.1764160755555555
443,1778414810310,-0.7650142,-0.021220751,0.00804925,-0.5092939,-2.920308,-0.15836215
444,1778414810320,-0.7762885111111112,-0.0457479269999999,0.0325493211111111,-0.4408789955555555,-2.915557022222222,-0.1032501544444444
445,1778414810330,-0.77940524,-0.076986196,0.0412310646,-0.370509399,-2.8762049,0.02049392557
446,1778414810340,-0.7636556555555556,-0.0810379251111111,0.0491390455555555,-0.31443363,-2.836622,0.18432316
447,1778414810350,-0.707946799,-0.0712541561,0.0359502679,-0.261717516,-2.86276616,0.3064926019999999
448,1778414810360,-0.64884883,-0.052472573,0.017318083,-0.19592926,-2.9551263,0.43477052
449,1778414810370,-0.612801012,-0.03401417925,0.0318585647,-0.15805673,-3.0464480000000003,0.451568825
450,1778414810380,-0.5710936444444444,-0.0203873692777777,0.0580555555555555,-0.0273354139999999,-3.362561566666667,0.4587971866666667
451,1778414810390,-0.601449726,-0.0555032399999999,0.0567655094,0.0142632833,-3.54575465,0.517967932
452,1778414810400,-0.6258088455555555,-0.0969771988888888,0.0457479266666666,-0.0321543208888888,-3.607239688888889,0.6531145155555556
453,1778414810410,-0.62710977,-0.11323831,0.023172084,-0.1537808,-3.644162,0.8654178399999999
454,1778414810420,-0.5898921333333332,-0.1420238655555555,0.0415505284444444,-0.2933254577777777,-3.641990088888889,1.0418849155555554
455,1778414810430,-0.4581602055555555,-0.1322875307777778,0.0584654704444444,-0.6034322733333334,-3.6091401666666663,1.3317743444444443
456,1778414810440,-0.168070788,-0.0213853942,0.1383251512,-0.86297446,-3.6466055000000006,1.4506859
457,1778414810450,-0.06078268,0.0628593587777777,0.2489711977777777,-0.87912798,-3.661130077777778,1.3904750222222222
458,1778414810460,-0.054972718,0.089133251,0.230812256,-0.917462032,-3.77305076,1.0370659
459,1778414810470,-0.08485251,0.086376995,0.17790672,-0.90573376,-3.9367578,0.9539907
460,1778414810480,-0.0878709814,0.0361240584,0.21343319,-1.00702752,-4.38110362,0.96266472
461,1778414810490,-0.040700208,-0.0041770733333333,0.2955998977777778,-1.162705388888889,-4.620575988888889,1.0137858333333334
462,1778414810500,-0.0272576879999999,-0.06100966,0.4483188399999999,-1.3755517,-4.6515255,1.0865445
463,1778414810510,0.0115792657777777,-0.0996297933333333,0.5524441822222221,-1.5514756,-4.4462047,1.184891
464,1778414810520,0.0176046858,-0.131775974,0.644122962,-1.65263192,-4.132961979999999,1.29099516
465,1778414810530,0.0907912033333333,-0.1240248555555555,0.6499600444444444,-1.7047983555555557,-3.861284211111111,1.4545545555555557
466,1778414810540,0.292166439,-0.070217511,0.593549902,-1.77248016,-4.00834912,1.5524530799999998
467,1778414810550,0.6315205666666667,0.0191169689999999,0.5966811766666668,-1.8645009222222224,-4.310808533333333,1.5102095777777778
468,1778414810560,0.7478485,0.0573509069999999,0.68016165,-1.9937291,-4.66924,1.2631558
469,1778414810570,0.8601314888888889,0.0471301208333333,0.8179542055555555,-2.1020527,-4.854055555555556,0.9409762888888888
470,1778414810580,0.8871859000000001,0.0131715004999999,0.9244442000000002,-2.21711603,-4.9810776,0.5778920700000001
471,1778414810590,0.7776401866666667,-0.0819966552777777,1.0619182666666669,-2.317003022222222,-4.985251755555556,0.2069245137777778
472,1778414810600,0.60633107,-0.202865493,1.1956124,-2.38784772,-4.821463400000001,0.018905722
473,1778414810610,0.5189327,-0.2891937,1.2773306,-2.4152138,-4.641141,0.036498122
474,1778414810620,0.5614555,-0.3304156022222222,1.347388911111111,-2.3951237555555553,-4.367413533333333,0.1521518713333333
475,1778414810630,0.631055087,-0.343666396,1.40947556,-2.33867457,-4.14273545,0.239910258
476,1778414810640,0.7136697000000001,-0.3138496066666666,1.4934713333333334,-2.2011456000000003,-3.929224055555556,0.2404532277777778
477,1778414810650,0.71835292,-0.285339804,1.5637925,-1.95341319,-3.69968819,0.1540862251999999
478,1778414810660,0.692205,-0.28651062,1.5743297,-1.5795747,-3.5452049,0.052380152
479,1778414810670,0.71747479,-0.2813883769999999,1.5893762,-1.31831531,-3.54349438,0.01304158889
480,1778414810680,0.7273832166666667,-0.2729326033333333,1.6416065555555557,-0.9650029333333332,-3.528983355555555,-0.0276408394
481,1778414810690,0.711011054,-0.251310392,1.70977049,-0.6656708,-3.470070600000001,-0.042301174
482,1778414810700,0.6991973133333333,-0.1954077366666666,1.7125389333333334,-0.1059989633333333,-3.0003289888888887,-0.0371429064444444
483,1778414810710,0.684326518,-0.183882679,1.6276254599999995,0.155796596,-2.66747843,-0.03295521
484,1778414810720,0.68805844,-0.16522306,1.481367,0.30313295,-2.4866066,-0.014813046
485,1778414810730,0.733429984,-0.124729837,1.38356855,0.302888608,-2.46693724,-0.01615691
486,1778414810740,0.7415067,-0.10372557,1.3485848,0.26159534,-2.444458,-0.023975754
487,1778414810750,0.6982216277777779,-0.0981696833333333,1.3567999888888889,-0.027946262,-2.2813618,-0.020310672
488,1778414810760,0.67805785,-0.10445731,1.3795927,-0.22402823,-2.1213198,0.0047340663
489,1778414810770,0.6559156722222222,-0.1218024922222222,1.4628766111111111,-0.4216712466666666,-1.8846589,0.0460680658444444
490,1778414810780,0.6505867700000001,-0.128653841,1.49847762,-0.545761466,-1.68803058,0.078585502
491,1778414810790,0.6044153733333333,-0.16099517,1.6690404333333335,-0.7332712333333333,-1.2733875,0.1444144666666666
492,1778414810800,0.59140646,-0.17351623,1.7056483,-0.71356123,-0.70279503,0.218897105
493,1778414810810,0.5733769777777777,-0.1739769488888888,1.6940995222222224,-0.6066221888888889,-0.453630431111111,0.2516520977777777
494,1778414810820,0.5606425,-0.17132097,1.6751282,-0.4811949,-0.31191388,0.2673984
495,1778414810830,0.5639252,-0.16302442,1.6643145444444445,-0.40219201,-0.27472007,0.2609505566666666
496,1778414810840,0.60872761,-0.130873489,1.64585511,-0.12207783,-0.196463752,0.188476922
497,1778414810850,0.61399922,-0.1135364388888889,1.638970977777778,0.0538393988888888,-0.17786684,0.0914743720444444
498,1778414810860,0.55552024,-0.12738548,1.6380224,0.20112146,-0.1427092,-0.0025961008
499,1778414810870,0.50237687,-0.1456216388888889,1.6444963888888888,0.3013004066666667,-0.0270554466666666,-0.0176636669333333
500,1778414810880,0.4594407833333334,-0.1573364233333333,1.614663966666667,0.4022259566666666,0.14242073,0.0033087557777777
501,1778414810890,0.4295494459999999,-0.1439962159999999,1.51971062,0.450224988,0.378099168,0.0994153912
502,1778414810900,0.44047287,-0.1213146755555555,1.4667251444444445,0.4219087977777777,0.5024133933333333,0.1585997
503,1778414810910,0.4828025699999999,-0.08640748,1.4171863,0.3672719,0.63306683,0.20325942
504,1778414810920,0.48280257,-0.08640748,1.4171863,0.2657355177777777,0.7666387766666667,0.18588422
505,1778414810930,0.525198321,-0.066183742,1.34402962,0.150787648,0.8477262019999999,0.146328462
506,1778414810940,0.5279576,-0.07320549,1.351024,0.050649418,0.9002870555555555,0.115568906
507,1778414810950,0.491485972,-0.1054817659999999,1.42223546,-0.014507622,1.0143119,0.103080474
508,1778414810960,0.46074163,-0.1385006266666666,1.4600073,-0.0002545197777777,1.1900322222222224,0.1359983488888888
509,1778414810970,0.45206907,-0.1513198,1.4591401,0.050242186,1.3154596,0.18920994
510,1778414810980,0.4911533322222222,-0.1466040822222222,1.4428788555555556,0.1278876562222222,1.4169959555555556,0.2331909444444444
511,1778414810990,0.5186888,-0.14302665,1.4288944,0.20173231,1.5127633,0.25395975
512,1778414811000,0.5284183666666666,-0.1586915033333333,1.3676916888888888,0.27686653,1.69785,0.24846213
513,1778414811010,0.51849368,-0.166832898,1.34902384,0.305515265,1.7954023,0.253226736
514,1778414811020,0.5186888,-0.17424797,1.327364,0.33367532,1.8768282,0.26190075
515,1778414811030,0.511685343,-0.17632126,1.32265642,0.343571048,1.90724838,0.26556585
516,1778414811040,0.4891172888888889,-0.1783945555555555,1.3007974444444443,0.3782671733333334,2.013114988888889,0.2838233977777777
517,1778414811050,0.48987612,-0.18010198,1.2914778,0.3825431,2.0668018,0.2985516
518,1778414811060,0.479509676,-0.187346294,1.29177053,0.35621558,2.1857336700000003,0.31846522
519,1778414811070,0.46377704,-0.19400522,1.2900143,0.3086306,2.385664,0.3541387
520,1778414811080,0.450504937,-0.199343955,1.2650586,0.2752783159999999,2.52848003,0.382787432
521,1778414811090,0.4216845122222222,-0.21615083,1.2023567666666668,0.2107592766666666,2.7485751333333335,0.4417613466666666
522,1778414811100,0.4005690869999999,-0.220110415,1.17353185,0.17057909,2.817533,0.47814068
523,1778414811110,0.35224617,-0.21989086,1.1618971,0.14553437,2.8676224,0.52212167
524,1778414811120,0.34761176,-0.2115977299999999,1.1008874,0.1314237909999999,2.89669879,0.547349691
525,1778414811130,0.3133279022222222,-0.2174517211111111,1.0722407333333337,0.0770515911111111,2.9086171666666667,0.5820525977777778
526,1778414811140,0.253103192,-0.2304280739999999,1.07333395,-0.0025350166,2.97702517,0.618818796
527,1778414811150,0.20678036,-0.2423312,1.0642694,-0.07314896,3.1241784,0.6882722
528,1778414811160,0.141334466,-0.254652038,1.00606784,-0.131301616,3.24927984,0.784541696
529,1778414811170,0.1340627,-0.25602102,0.999601,-0.14583978,3.2805552,0.80860907
530,1778414811180,0.0704461838,-0.241358598,0.93986275,-0.2160872159999999,3.4718343500000004,0.982822694
531,1778414811190,0.13894441,-0.1690139395555555,0.8393342222222222,-0.2088927911111111,3.526921866666667,1.0496222266666666
532,1778414811200,0.18580353,-0.117384896,0.7811736,-0.15500249,3.394173,0.96804017
533,1778414811210,0.160042871,-0.088163677,0.782130973,-0.118290571,3.29881972,0.923631573
534,1778414811220,0.13894103,-0.09299323,0.8741668,0.2121167,2.4406402,0.5239542
535,1778414811230,0.075574531,-0.137065916,0.99460376,0.38547518,2.235029079999999,0.425729976
536,1778414811240,0.0378985533333333,-0.1640847766666666,1.1176396888888889,0.67941487,2.0680234,0.34741938
537,1778414811250,0.0349227676,-0.14717323,1.15765292,0.97616444,2.20974004,0.352917004
538,1778414811260,-0.008201698,-0.14717323,1.179703,1.154654,2.3545108,0.36391225
539,1778414811270,0.0162631447,-0.131580859,1.13494124,1.3079767,2.5829675,0.35902548
540,1778414811280,0.01911697,-0.13421515,1.0877159,1.3982463666666665,2.7316749555555555,0.3533242288888888
541,1778414811290,0.0545153735999999,-0.107427004,1.01606536,1.48140389,2.87947286,0.341433088
542,1778414811300,0.05256404,-0.07540074,0.9930152,1.5823234666666668,2.9533446666666667,0.2486657433333333
543,1778414811310,0.0130922262,-0.0476186318,0.927980995,1.67431712,2.93102834,0.146206292
544,1778414811320,-0.06286953,-0.049301658,0.8931923500000001,1.7295376,2.8743417,0.09147438
545,1778414811330,-0.0962827233333333,-0.0500605085555555,0.8548466222222222,1.7242436,2.8482789,0.0788502033333333
546,1778414811340,-0.133074841,-0.0397157302999999,0.850427682,1.68494588,2.8626134999999997,0.074981503
547,1778414811350,-0.17318083,-0.033447072,0.8629467,1.6116441,2.9946787,0.087809294
548,1778414811360,-0.204774147,-0.0120494835,0.81134615,1.49391862,3.33259944,0.115908266
549,1778414811370,-0.2187221211111111,0.0241545241111111,0.7000205288888889,1.4533583,3.4821348,0.11102149
550,1778414811380,-0.26446667,0.046374656,0.62866473,1.4099882,3.4552574,0.11163234
551,1778414811390,-0.2826248777777778,0.0526351842222222,0.6370934188888888,1.3495821777777777,3.4748894000000004,0.0986688044444444
552,1778414811400,-0.274759946,0.0642842407999999,0.618609226,1.3045559,3.5317509900000004,0.0732100423
553,1778414811410,-0.25544173,0.097871564,0.57936305,1.2923661333333334,3.604719999999999,0.0094851004444444
554,1778414811420,-0.317704517,0.1119455616999999,0.518124766,1.31384084,3.60700723,-0.07394306
555,1778414811430,-0.35648423,0.110067405,0.47149092,1.3556228,3.5591779,-0.15530792
556,1778414811440,-0.427146878,0.103628001,0.444538128,1.38152264,3.4633358999999997,-0.185117264
557,1778414811450,-0.4726664744444445,0.0787952458888888,0.4912922144444444,1.408359211111111,3.3913899222222224,-0.1707827077777778
558,1778414811460,-0.4640819699999999,0.058570493,0.51640207,1.4472499,3.4906867,-0.13331741
559,1778414811470,-0.4810206099999999,0.0778670103333333,0.50426047,1.5536137,3.6288144999999994,-0.06734591
560,1778414811480,-0.4770400288888889,0.0707934277777777,0.4731848088888889,1.6048569777777777,3.733676666666667,-0.0184781288888888
561,1778414811490,-0.447230348,0.0804559118,0.376275007,1.68964933,3.89380012,0.0350320905
562,1778414811500,-0.4484170666666666,0.1082244741111111,0.2842306755555556,1.7572294666666668,3.921274688888889,0.0249598976666666
563,1778414811510,-0.456740061,0.1067745205,0.255014873,1.86868872,3.88488152,-0.050853034
564,1778414811520,-0.4636787844444444,0.0889787677777777,0.2237630566666666,1.956162,3.8804836,-0.1217113099999999
565,1778414811530,-0.5014317,0.06271707,0.17863847,2.07710967,3.88103341,-0.175588037
566,1778414811540,-0.5210839155555556,0.0455311129444444,0.1443783435555555,2.1906595222222225,3.8863205777777776,-0.18890451
567,1778414811550,-0.57908564,-0.00941518355,0.0149185546,2.35370145,3.88066678,-0.171617543
568,1778414811560,-0.6071086,-0.025123417,-0.044179406,2.5009698222222223,3.843493411111111,-0.1104445811111111
569,1778414811570,-0.608425738,-0.0367033606,-0.1031950544,2.63237,3.7967974999999994,-0.07406523
570,1778414811580,-0.60247417,-0.0387319363333333,-0.1854884666666666,2.695898,3.7609611666666662,-0.06551337
571,1778414811590,-0.59888862,-0.03515449,-0.325936693,2.7701769900000004,3.60663313,-0.0668572305
572,1778414811600,-0.6149138999999999,-0.02685116,-0.4050338,2.8237688,3.264469633333333,-0.0972774266666666
573,1778414811610,-0.634969952,-0.0097078834,-0.417219456,2.8174568,3.07360012,-0.12562074
574,1778414811620,-0.6460573355555556,-0.0063960373333333,-0.4612227088888889,2.756372,2.9225986,-0.16080554
575,1778414811630,-0.65494674,0.002927,-0.4961570199999999,2.6299265,2.83683571,-0.181696511
576,1778414811640,-0.6540794777777778,0.0098650742222222,-0.5019026111111111,2.4908569333333332,2.8057233,-0.1966419166666666
577,1778414811650,-0.6454068666666667,0.022873963,-0.5175403333333334,2.3057702888888887,2.8239130222222224,-0.2219581388888888
578,1778414811660,-0.655776052,0.0279528498,-0.6235546839999999,2.0017923800000004,2.9097710300000004,-0.274178793
579,1778414811670,-0.70116218,0.0143910835555555,-0.7550068333333333,1.6826976222222223,2.952190933333333,-0.3136531044444444
580,1778414811680,-0.7186395,-0.0078053335,-0.835872,1.4252594,2.9299288,-0.32939938
581,1778414811690,-0.7547594733333334,-0.0253876598333333,-0.8869522000000001,1.1765767333333337,2.882146933333333,-0.3044225088888889
582,1778414811700,-0.798314876,-0.0440330587,-1.0045434009999998,0.91691228,2.77507901,-0.247668019
583,1778414811710,-0.8342356888888889,-0.0637198451111111,-1.1377527111111112,0.65559185,2.5750265,-0.17118995
584,1778414811720,-0.843585786,-0.055960584,-1.20276231,0.3929275,2.2463908,-0.06429167
585,1778414811730,-0.82821906,-0.054423906,-1.2431823,0.25670856,2.097955,-0.026419144
586,1778414811740,-0.8142975,-0.0572045543999999,-1.3203453,0.114747657,1.92606251,-0.0063222690899999
587,1778414811750,-0.80531801,-0.0620937283333333,-1.4546953333333337,-0.0693481308888888,1.695474477777778,0.0055485294777777
588,1778414811760,-0.8415917439999999,-0.060765744,-1.54785256,-0.31980908,1.253519628,0.0159736552
589,1778414811770,-0.8894996888888888,-0.0385659355555555,-1.6176418444444447,-0.4952444,0.84205294,0.029167956
590,1778414811780,-0.8994731999999999,-0.0248795,-1.6104598000000003,-0.6760552,0.3795652,0.05054761
591,1778414811790,-0.8970882377777778,-0.0233888982222222,-1.601160488888889,-0.735511,0.2203376853333333,0.0521765356666666
592,1778414811800,-0.8666084869999999,-0.00697601707,-1.48022363,-0.8845984400000001,-0.1923099952,0.051036287
593,1778414811810,-0.7942842,0.0184292604444444,-1.1701461444444443,-1.113574577777778,-1.0703147333333334,-0.020650031
594,1778414811820,-0.7727111222222223,0.0229552692222222,-1.0100589155555555,-1.1440406,-1.287437,-0.04963134
595,1778414811830,-0.7640385,0.021220751,-0.89249104,-1.1599226,-1.4474789,-0.056961507
596,1778414811840,-0.7740932533333333,0.023876733,-0.7840938311111111,-1.1696962,-1.5032696333333333,-0.0459662556666666
597,1778414811850,-0.7895521719999999,0.0322030982,-0.7069681,-1.1970620799999998,-1.5414271899999998,-0.0182948754
598,1778414811860,-0.7913300688888889,0.0437728785555555,-0.6476055444444445,-1.2381110666666666,-1.5301469,0.0075846866666666
599,1778414811870,-0.7920889,0.056863073,-0.6079318,-1.2601016,-1.5110071,0.014507622
600,1778414811880,-0.81212056,0.06418057,-0.57643604,-1.2552148,-1.5189481,0.020616096
601,1778414811890,-0.816218367,0.0759617492,-0.558508172,-1.22400047,-1.56042457,0.0261748050999999
602,1778414811900,-0.8194922322222222,0.0877591851111111,-0.5339132444444444,-1.160126188888889,-1.6455291777777776,0.028557109
603,1778414811910,-0.81943804,0.097871564,-0.51469463,-1.11773595,-1.7055619,0.0251974495
604,1778414811920,-0.8061547533333333,0.1217483033333333,-0.4817083311111111,-0.8869332666666667,-2.0489003777777777,-0.0093154208888888
605,1778414811930,-0.7937963,0.12348281,-0.4656368999999999,-0.7560762,-2.2660906,-0.028862532
606,1778414811940,-0.7842564777777778,0.1293368188888889,-0.4281279666666666,-0.6844034533333333,-2.3779434000000004,-0.0391790635555555
607,1778414811950,-0.782746912,0.133971233,-0.390220949,-0.5871158519999999,-2.51898136,-0.0523190688
608,1778414811960,-0.77761652,0.1372844333333333,-0.3472187733333333,-0.5085473077777778,-2.6266942444444448,-0.0584546885555555
609,1778414811970,-0.76150177,0.144535868,-0.298441191,-0.41436825,-2.73729824,-0.0662463825
610,1778414811980,-0.7650142,0.13616648,-0.26943645,-0.36818817,-2.7504926,-0.07284354
611,1778414811990,-0.7731447333333333,0.12673504,-0.2582162833333333,-0.3417181233333333,-2.752528666666666,-0.0659206026666666
612,1778414812000,-0.7881374400000001,0.1128480432,-0.2490937999999999,-0.3135173519999999,-2.76038815,-0.0474933734
613,1778414812010,-0.784554551111111,0.0949106866666666,-0.2406474988888888,-0.2762896122222222,-2.8057403,-0.0093154202222222
614,1778414812020,-0.778722256,0.0828158092,-0.230818328,-0.229159354,-2.88243552,0.029167958
615,1778414812030,-0.7789174,0.079303406,-0.2394042,-0.19837265,-2.9459636,0.063375406
616,1778414812040,-0.77191698,0.0811815648,-0.255133781,-0.1903094599999999,-3.0123016399999996,0.1062568803999999
617,1778414812050,-0.74229944,0.094456725,-0.26821688,-0.2091642777777777,-3.1776105444444447,0.18676655
618,1778414812060,-0.72351784,0.1144579,-0.25187445,-0.2637333,-3.3362951,0.2356343299999999
619,1778414812070,-0.6892881711111111,0.11939044,-0.2070445911111111,-0.3859027666666667,-3.4899570555555557,0.2687558322222222
620,1778414812080,-0.655824844,0.114213984,-0.1506246379999999,-0.48547086,-3.5769689999999996,0.27595025
621,1778414812090,-0.64470226,0.1112869799999999,-0.11958014,-0.5555146644444444,-3.6176921111111113,0.2726923922222222
622,1778414812100,-0.6245689688888889,0.1029396083333333,-0.0525877537777777,-0.6259657,-3.641718599999999,0.25701398
623,1778414812110,-0.609986796,0.06222924,0.0387888491999999,-0.594323866,-3.6320672,0.234901312
624,1778414812120,-0.62832934,0.03881324,0.07783991,-0.4853351111111112,-3.658686555555556,0.2502267911111111
625,1778414812130,-0.651288,0.042228073,0.056131326,-0.35230616,-3.7699966,0.31809872
626,1778414812140,-0.6471685111111111,0.0467811841111111,0.0493965144444444,-0.3085287733333333,-3.828230666666667,0.3655411866666667
627,1778414812150,-0.59772086,0.0607169568999999,0.0300749251999999,-0.184200991,-4.026796829999999,0.534399726
628,1778414812160,-0.4906112833333333,0.0788697788888889,0.0253402313333333,-0.19891562,-4.2450323222222215,0.6692680133333334
629,1778414812170,-0.4173871489999999,0.082693847,0.0441580652,-0.308569489,-4.35702105,0.723029354
630,1778414812180,-0.37672928,0.07125416,0.06637583,-0.47019967,-4.3900065,0.7664606
631,1778414812190,-0.341358344,0.046667357,0.139505087,-0.673000974,-4.337718100000001,0.80604352
632,1778414812200,-0.3192157877777777,0.0526622865555555,0.1838894555555555,-0.85808766,-4.276389,0.86175275
633,1778414812210,-0.2650256277777778,0.0419231776666666,0.23683292,-1.0296678733333335,-4.251412111111112,0.9584023944444444
634,1778414812220,-0.116860482,0.0239648134,0.335940328,-1.33681628,-4.22410037,1.0990669299999998
635,1778414812230,-0.05067369,0.032471407,0.37093627,-1.5258201,-4.1658254,1.1280822
636,1778414812240,0.039916966,0.0730591374,0.43069587,-1.63271836,-4.09698292,1.07548826
637,1778414812250,0.0770912166666666,0.0754007366666666,0.50225153,-1.7556344777777777,-4.007751888888889,0.9454388444444444
638,1778414812260,0.0749068128,0.0363679756,0.56163639,-1.76374512,-3.98177728,0.8015232190000001
639,1778414812270,0.056954544,0.00219525,0.62159115,-1.6999116,-3.9953992,0.6601732
640,1778414812280,-0.002859923,-0.0633543027,0.62210338,-1.58721018,-4.07456482,0.64313053
641,1778414812290,-0.007469948,-0.099822894,0.6201277,-1.4512967,-4.22691,0.7420267
642,1778414812300,0.0303066447999999,-0.0995301936,0.5999131,-1.40084077,-4.3644805,0.8733588620000001
643,1778414812310,0.17336378,-0.08174257,0.6240303,-1.3343534333333331,-4.688719444444445,1.1961661666666668
644,1778414812320,0.434735714,-0.022662907,0.6710361300000001,-1.3663889,-4.805459,1.2814811
645,1778414812330,0.68391186,0.060033992,0.67747855,-1.4359577,-4.931904266666667,1.2043786444444444
646,1778414812340,0.8051445420000001,0.0815474408,0.770365075,-1.6033977,-5.1353164,1.0114104
647,1778414812350,0.8553852799999999,0.0605218239999999,0.8833544,-1.7267888999999998,-5.163415466666667,0.8982
648,1778414812360,0.8996256600000001,0.034666654,1.0591471,-1.8978261,-5.0589604,0.71392775
649,1778414812370,0.851287473,0.0113024876,1.1881394,-1.90766075,-4.65675585,0.576853606
650,1778414812380,0.7682562000000001,-0.0249641933333333,1.2997980666666669,-1.8556776,-4.1988115,0.46225867
651,1778414812390,0.7617518,-0.04320374,1.258793,-1.7504897200000002,-4.06925095,0.498604063
652,1778414812400,0.7851169555555555,-0.0458292322222222,1.3043545555555558,-1.7054092,-4.013725,0.51418066
653,1778414812410,0.844497484,-0.0184644921999999,1.36495772,-1.5093272,-3.7962630000000006,0.54960984
654,1778414812420,0.8828191066666666,0.0304624821111111,1.4262654666666663,-1.317181788888889,-3.4848666555555554,0.3294333077777777
655,1778414812430,0.8186148400000001,0.0302456669999999,1.4579204,-1.1727504,-3.2972007,0.15316994
656,1778414812440,0.7688863422222222,0.0067212593333333,1.3968091555555555,-1.0125811444444444,-3.2249850444444443,-0.0221432135555555
657,1778414812450,0.738277848,-0.0114976220999999,1.3819099,-0.942628948,-3.206551,-0.0901915962
658,1778414812460,0.6943190022222221,-0.0506567493333333,1.4112442555555558,-0.8096950077777778,-3.1750991444444443,-0.1491994422222222
659,1778414812470,0.652172218,-0.0919504864,1.47325064,-0.66499885,-2.93466295,-0.1217723979999999
660,1778414812480,0.6302197,-0.1171409859999999,1.4889284,-0.5935908,-2.7315562,-0.07345438
661,1778414812490,0.6393259,-0.1151896486666666,1.4609388666666667,-0.5422796666666667,-2.5625550666666665,-0.033952926
662,1778414812500,0.62307904,-0.120214334,1.42204632,-0.485837386,-2.36132173,0.0242811787999999
663,1778414812510,0.5974501777777779,-0.1157045868888888,1.4096282888888887,-0.452485111111111,-2.2105035111111113,0.1224918444444444
664,1778414812520,0.62478035,-0.0930359155999999,1.4156191,-0.44393325,-2.1420887,0.14767233
665,1778414812530,0.6770618533333334,-0.077595994,1.3885464,-0.4635482377777778,-2.0792392333333334,0.15988927
666,1778414812540,0.68439966,-0.077595994,1.421089,-0.5325061,-1.9942635,0.17943639
667,1778414812550,0.6849688144444444,-0.0789239811111111,1.492634522222222,-0.5657633333333334,-1.8883154666666668,0.19939073
668,1778414812560,0.700790899,-0.0873800986999999,1.57516506,-0.54948767,-1.60581048,0.2195079599999999
669,1778414812570,0.7018804,-0.0985762116666666,1.627676211111111,-0.4785479388888888,-1.3854439555555556,0.2202952822222222
670,1778414812580,0.6819605,-0.1198240699999999,1.6648837,-0.335568934,-1.07962668,0.218225193
671,1778414812590,0.6819605,-0.11982407,1.6648837,-0.19043164,-0.8971056,0.220974
672,1778414812600,0.6819605,-0.1198240699999999,1.6648837,-0.0732711308,-0.78764177,0.2367949449999999
673,1778414812610,0.6530191177777778,-0.0971635298888888,1.677486111111111,0.0705358896666666,-0.6556851555555556,0.2568782433333333
674,1778414812620,0.66022146,-0.073937245,1.6626884,0.24326992,-0.46645823,0.26495498
675,1778414812630,0.6649046399999999,-0.044618454,1.59176976,0.3801608019999999,-0.2128344589,0.229892365
676,1778414812640,0.6397324,-0.03369099,1.538474,0.42469156,-0.013820419,0.20020519
677,1778414812650,0.6020473120000001,-0.0260563979999999,1.48066568,0.425607825,0.1624090192,0.1734500809999999
678,1778414812660,0.5338420933333333,-0.0137406388888888,1.3996243555555554,0.3894660377777778,0.3527558211111111,0.1463148777777777
679,1778414812670,0.48577835,-0.007122367,1.32584568,0.33966164,0.4116957839999999,0.1480388309999999
680,1778414812680,0.46548447,-0.005366167,1.2592808,0.2121167,0.45897534,0.16783029
681,1778414812690,0.4571425319999999,-0.0058052167,1.24147187,0.1637376039999999,0.465816828,0.1776038419999999
682,1778414812700,0.46109397,-0.0006504443999999,1.2238823666666667,0.01929259,0.4919611,0.1995943433333333
683,1778414812710,0.469460323,0.00558569144,1.21534531,-0.087687124,0.50149032,0.206680172
684,1778414812720,0.4851604066666666,0.0020326389,1.226972,-0.2581677977777777,0.4903321722222222,0.1946396933333333
685,1778414812730,0.50148962,0.00109762503,1.23062057,-0.325856482,0.491044855,0.182918212
686,1778414812740,0.5313725,-0.0043905,1.3395599,-0.4121692,0.5267794,0.17027368
687,1778414812750,0.5515362666666667,-0.013984556,1.3678745666666667,-0.3953369333333333,0.6190852311111111,0.1664728444444444
688,1778414812760,0.574716486,-0.0219037168,1.3999841400000002,-0.3766178759999999,0.672161092,0.164531708
689,1778414812770,0.5924905111111111,-0.0342059253333333,1.4416321888888888,-0.2711992199999999,0.8852788955555556,0.1408172577777778
690,1778414812780,0.587845272,-0.0502285412,1.44313902,-0.1449845995999999,1.08138294,0.119939858
691,1778414812790,0.58823556,-0.05588741,1.4279187,-0.046271678,1.1908467,0.11407573
692,1778414812800,0.6063829760000001,-0.0646684068,1.39140438,0.0583053716,1.29102566,0.119939858
693,1778414812810,0.6227599377777778,-0.0822371822222222,1.3587445444444444,0.1312812542222222,1.3824491,0.1235099217777777
694,1778414812820,0.611602796,-0.086358696,1.34307222,0.194157806,1.54159516,0.137654438
695,1778414812830,0.6072339522222223,-0.0881928117777777,1.3128611777777777,0.2263019366666666,1.701718577777778,0.1605679922222222
696,1778414812840,0.61287117,-0.081010826,1.2865994,0.23960483,1.7729841,0.1757713
697,1778414812850,0.6126543077777779,-0.0736391228888889,1.2996083777777778,0.27381227,1.8528015222222225,0.1779431933333333
698,1778414812860,0.615481053,-0.0714736805,1.29867335,0.302766454,1.91891557,0.1737554969999999
699,1778414812870,0.60604143,-0.08003516,1.2844043,0.3440597,2.033205,0.16783029
700,1778414812880,0.6112179377777778,-0.0836363133333333,1.2390629,0.3817965,2.1461439111111114,0.1729206788888889
701,1778414812890,0.6178958,-0.079108274,1.21700394,0.396836933,2.1895208800000003,0.166791847
702,1778414812900,0.6155542,-0.07637641,1.2197357,0.41003123,2.232952,0.140953
703,1778414812910,0.5885496,-0.0717175989999999,1.24344755,0.459815279,2.2973353800000003,0.0958113913999999
704,1778414812920,0.53072202,-0.0790865944444444,1.2570585333333333,0.5442818666666667,2.385799711111111,0.0548914113333333
705,1778414812930,0.51410318,-0.080766904,1.2401516,0.6221784400000001,2.4527349999999997,0.0422400856
706,1778414812940,0.5152739,-0.07101024,1.1968076,0.7675126111111111,2.5138740555555557,0.00982446
707,1778414812950,0.515298372,-0.0631805187,1.13918845,0.8187491,2.47154916,-0.0050394899
708,1778414812960,0.5130787,-0.0585704929999999,1.1465304,0.8217423,2.4424727,-0.009315421
709,1778414812970,0.5182280499999999,-0.046184946,1.1634961666666666,0.8046385666666667,2.476205088888889,-0.0319846412222222
710,1778414812980,0.516094123,-0.0343007822,1.1958838,0.76108514,2.62804814,-0.0997208125
711,1778414812990,0.4969497599999999,-0.04198416,1.2233945,0.7392779,2.72896,-0.14248012
712,1778414813000,0.42496383,-0.07125416,1.2461092,0.7268777080000001,2.9008524899999997,-0.167708113
713,1778414813010,0.3676467955555555,-0.0946125688888888,1.2227508222222223,0.7199343800000001,3.1630689000000003,-0.1654887033333333
714,1778414813020,0.30621298,-0.1073843172,1.13857252,0.75039533,3.47543064,-0.077241634
715,1778414813030,0.2931065388888889,-0.1017437427777777,1.0888508444444445,0.7869239666666668,3.5353548777777775,-0.0034784361111111
716,1778414813040,0.297529563,-0.0576923875,1.0524638,0.8566827079999999,3.54415098,0.060809844
717,1778414813050,0.28660208,-0.04198416,1.0647572,0.92069954,3.5402417,0.052991
718,1778414813060,0.259009,-0.027105242,1.0669525,1.007012204,3.61665872,0.0211047730999999
719,1778414813070,0.2564072222222222,-0.0186223602222222,0.9398448555555556,1.086103388888889,3.742432166666667,-0.0356497258888888
720,1778414813080,0.2424734888888888,-0.0167760466666666,0.8971289,1.089021888888889,3.755395644444445,-0.0540430151111111
721,1778414813090,0.19336495,-0.00804925,0.8241334,1.042869,3.738156,-0.06734591
722,1778414813100,0.19238928,0.00804925,0.786052,0.9820557611111111,3.6835192111111112,-0.0877753555555555
723,1778414813110,0.175485848,0.0135129838,0.8337316109999999,0.91483541,3.64359696,-0.126353756
724,1778414813120,0.15577129,0.01243975,0.8807526,0.8504520999999999,3.678293133333333,-0.1832032755555555
725,1778414813130,0.1079331283499999,0.00490272505,0.935545442,0.8455653,3.7760286,-0.2157817999999999
726,1778414813140,0.0131545610555555,-0.0219253992222222,0.9733596022222222,0.9847027444444444,4.139754333333332,-0.2384510088888889
727,1778414813150,0.0127751349999999,-0.024391668,0.9173706,1.0960127,4.308077,-0.22922044
728,1778414813160,-0.0559822649999999,-0.0367772137777777,0.8047895333333333,1.266507011111111,4.391695044444444,-0.1798096844444444
729,1778414813170,-0.1108022,-0.0440086648,0.7720480700000001,1.36191454,4.447899560000001,-0.1181684052
730,1778414813180,-0.1106805766666666,-0.0423093788888888,0.6892814222222222,1.4560054,4.547596688888889,-0.0374822673333333
731,1778414813190,-0.1006339169999999,-0.0263643428999999,0.55464519,1.5019818,4.61447748,0.0285571083999999
732,1778414813200,-0.0942026522222222,-0.0077240274444444,0.5237670444444444,1.5163010666666663,4.6098349333333335,0.0279462603333333
733,1778414813210,-0.09021868,0.015610667,0.50002915,1.5420076,4.597618,-0.007482879
734,1778414813220,-0.1195923419999999,0.0262637272,0.453776468,1.6241665099999998,4.51692525,-0.0871373627
735,1778414813230,-0.1809455111111111,0.0163966203777777,0.4216201244444444,1.7581118,4.392034277777778,-0.1547649444444444
736,1778414813240,-0.2815408,0.0046344167,0.38804093,1.9372256999999995,4.234775,-0.15286453
737,1778414813250,-0.31928692,0.0161798055666666,0.3613523966666667,2.037404633333333,4.204639866666667,-0.1455343633333333
738,1778414813260,-0.357133648,0.0142691249999999,0.306496569,2.1632391400000004,4.19006086,-0.157995648
739,1778414813270,-0.3800628155555555,0.0039568704222222,0.2012007666666666,2.1897770000000003,4.138057399999999,-0.1761446
740,1778414813280,-0.474750228,0.019107822,0.0088206361999999,2.0656868800000003,3.93271094,-0.0953838026
741,1778414813290,-0.50135038,0.0451821744444444,-0.0462730245555555,1.9161175,3.7115333666666666,-0.0241114999333333
742,1778414813300,-0.5172863,0.07003457,-0.1039694799999999,1.74822955,3.3959442199999996,0.00143549077
743,1778414813310,-0.5441374800000001,0.083714234,-0.1244788066666666,1.6525708,3.0105608,-0.033749312
744,1778414813320,-0.601373502,0.1019205804,-0.110235093,1.6417588200000002,2.6078902499999996,-0.0632532354
745,1778414813330,-0.6209305444444444,0.11141911,-0.0515172288888888,1.7674101666666666,1.8633895000000005,-0.10094251
746,1778414813340,-0.6085599,0.0819377059999999,0.078291148,1.94272336,1.41624932,-0.097521763
747,1778414813350,-0.5702737777777778,0.0882808991111111,0.1420882288888889,2.1688726,1.2239003333333334,-0.073115025
748,1778414813360,-0.5285369,0.1171409859999999,0.22598879,2.3703165,1.2348278,-0.08689302
749,1778414813370,-0.4756497119999999,0.1339712362,0.255819816,2.60359907,1.4111793899999998,-0.157995642
750,1778414813380,-0.3877529588888889,0.1452523822222222,0.2257109888888889,2.9402369555555556,1.7298176333333335,-0.3236302755555555
751,1778414813390,-0.333257234,0.143919991,0.1341938042,3.12660629,1.95782655,-0.4964050359999999
752,1778414813400,-0.3009220166666666,0.1195801433333333,-0.0116470223333333,3.4185302,2.4064329,-0.94391173
753,1778414813410,-0.30010897,0.10201815,-0.095920235,3.51284524,2.62438314,-1.2302769059999998
754,1778414813420,-0.36149465,0.0516900077777777,-0.2473382838888889,3.572735388888889,2.774909422222222,-1.461748977777778
755,1778414813430,-0.441208653,-0.0023964810999999,-0.416347456,3.66060922,2.96389192,-1.89971962
756,1778414813440,-0.5814532888888889,-0.1062528108888888,-0.6913784444444445,3.677665222222222,2.8840475,-2.4137544444444448
757,1778414813450,-0.6642216320000001,-0.192011198,-0.8900885799999999,3.62731796,2.75473792,-2.58924412
758,1778414813460,-0.69839436,-0.2435507899999999,-1.0015829,3.5608578,2.6232836,-2.7172778
759,1778414813470,-0.748912566,-0.351392453,-1.1649918500000005,3.35799546,2.41162493,-2.9415808400000003
760,1778414813480,-0.9035960333333332,-0.5218359933333333,-1.3466266666666664,3.011163022222222,2.199219922222222,-3.113038766666667
761,1778414813490,-1.12462048,-0.657013948,-1.45275851,2.70109027,2.03008978,-3.08213662
762,1778414813500,-1.3796571111111111,-0.7632660555555556,-1.5201835444444445,2.4216274777777778,1.8643397666666663,-2.8410082777777776
763,1778414813510,-1.7067764,-0.8717277,-1.6080207,2.0551193,1.5982819,-2.3501585
764,1778414813520,-1.92882602,-0.935444865,-1.7314759499999997,1.63039722,1.2097830200000002,-1.6752944200000002
765,1778414813530,-1.9459367,-0.9120045,-1.7920558,0.9481198111111112,0.5082588511111111,-0.663269831111111
766,1778414813540,-1.5867084,-0.7409274,-1.5853364,0.02519745,-0.4218664,0.39078954
767,1778414813550,-1.2462956222222223,-0.5581863166666667,-1.2538943111111112,-0.47691901,-0.7283759777777777,0.7239049133333333
768,1778414813560,-1.0759164,-0.45466065,-1.0457623,-1.052948,-0.987511,1.0456178
769,1778414813570,-0.9469014222222224,-0.3593604111111111,-0.8332904333333333,-1.465957,-0.96246624,1.1873344
770,1778414813580,-0.8769749600000001,-0.278988826,-0.67967682,-1.59777786,-0.915919672,1.21117272
771,1778414813590,-0.8430438,-0.2035145822222222,-0.5452621622222222,-2.1250613,-0.7297334,1.306526
772,1778414813600,-0.81801728,-0.1483867132,-0.460776884,-2.393834,-0.5651711639999999,1.3038382
773,1778414813610,-0.800626,-0.109335646,-0.4021881,-2.5282204,-0.46401486,1.278427
774,1778414813620,-0.7831452822222222,-0.0644820831111111,-0.3586388188888889,-2.6210692,-0.3485647,1.2056597
775,1778414813630,-0.7672093720000001,-0.01926941668,-0.346398268,-2.67042568,-0.217232558,1.06394316
776,1778414813640,-0.75940406,0.0031709166,-0.35556954,-2.6723804,-0.16592139,0.9271134
777,1778414813650,-0.7995771360000001,0.02573930626,-0.367939139,-2.5809365,-0.269093506,0.753938215
778,1778414813660,-0.8091631,0.040032823,-0.36438102,-2.4836285,-0.38399386,0.67422265
779,1778414813670,-0.811120528,0.0432037404,-0.362374804,-2.44038052,-0.430784758,0.649300088
780,1778414813680,-0.8213081022222223,0.0579471499999999,-0.3544583466666666,-2.0290224666666665,-0.86065835,0.4469874933333333
781,1778414813690,-0.8417808600000001,0.074181154,-0.35469142,-1.7718694199999998,-1.1240964,0.360980186
782,1778414813700,-0.8482203,0.07320549,-0.3521547,-1.4293063,-1.4774104,0.27595025
783,1778414813710,-0.8448054,0.05905832,-0.34288585,-1.26877558,-1.63280998,0.25689182
784,1778414813720,-0.8391681911111112,0.0506025466666666,-0.3307442233333333,-0.943954148888889,-1.9270618777777777,0.23875644
785,1778414813730,-0.8240694339999999,0.0450331174,-0.315128138,-0.6632274469999999,-2.13659095,0.2458965619999999
786,1778414813740,-0.7955850400000001,0.0359675466666666,-0.3418390566666667,-0.4154270366666666,-2.3017233333333333,0.2519235999999999
787,1778414813750,-0.79574764,0.03320316,-0.35925877,-0.34864107,-2.35222,0.25273806
788,1778414813760,-0.81504756,0.021220751,-0.40462726,-0.2637333,-2.4945476,0.28083703
789,1778414813770,-0.8230154966666667,0.0083202687666666,-0.4200177244444444,-0.2594573888888889,-2.589093022222222,0.3240714488888889
790,1778414813780,-0.8328046709999999,-0.00787850825,-0.431293449,-0.285357292,-2.73424384,0.424263956
791,1778414813790,-0.8336665000000001,-0.0115453892777777,-0.4113180244444445,-0.3119902377777778,-2.856440488888889,0.5449945133333333
792,1778414813800,-0.8328047,-0.0059515665999999,-0.383357716,-0.313334115,-2.96795408,0.71514943
793,1778414813810,-0.8316339,-0.006341833,-0.36950326,-0.30649263,-3.036369,0.8605311
794,1778414813820,-0.8188739979999999,-0.0111226007,-0.351797974,-0.300994992,-3.09097866,0.97634772
795,1778414813830,-0.7904052111111111,-0.0114911852222222,-0.3258930033333333,-0.28999972,-3.204963,1.200773
796,1778414813840,-0.71667899,-0.0025855171,-0.319372279,-0.294764351,-3.3388605900000004,1.4684004700000002
797,1778414813850,-0.6534832,0.0141471659999999,-0.32995826,-0.32291762,-3.4239176,1.6476501666666663
798,1778414813860,-0.6009869333333334,0.0453956033333333,-0.3488211666666667,-0.39078954,-3.5091648,1.7817651
799,1778414813870,-0.55430674,0.0753702491999999,-0.3642224719999999,-0.466656756,-3.5799008999999997,1.84443804
800,1778414813880,-0.4707016022222222,0.1100945011111111,-0.3926482333333333,-0.6399473444444445,-3.7123055,1.9171696
801,1778414813890,-0.4042918999999999,0.10323773,-0.3716985,-1.0382876,-3.9514182,1.9124864
802,1778414813900,-0.3666101444444444,0.0679511165555555,-0.2787560966666667,-1.420482911111111,-4.137794666666667,1.929454411111111
803,1778414813910,-0.3354281,0.0455880253999999,-0.2081767779999999,-1.5649143,-4.195757,1.9589108
804,1778414813920,-0.2991333,0.026830835,-0.14863673,-1.5649143,-4.195757,1.9589107999999995
805,1778414813930,-0.245075286,0.003122133506,-0.0335507393,-1.82153123,-4.25690275,2.05847888
806,1778414813940,-0.188910084,0.0072158683755555,0.0033707923333333,-1.9674627,-4.264172,2.1207852
807,1778414813950,0.0178364053999999,0.0369838667,0.0849866665,-2.01950684,-4.319881,2.11577648
808,1778414813960,0.09061504,0.05149691,0.078327745,-2.0835238,-4.388785,2.0884104
809,1778414813970,0.09061504,0.0514969099999999,0.078327745,-2.0835238,-4.388785,2.0884104
810,1778414813980,0.2206158577777777,0.0446333622222222,0.0966824733333333,-2.2722754,-4.5690613,1.9509698
811,1778414813990,0.3828780366666666,-0.0335046658888888,0.2666347855555555,-2.520415155555556,-4.879778711111111,1.7147076666666667
812,1778414814000,0.4370681829999999,-0.0590583261,0.412929582,-2.7768352,-5.221446,1.4036506
813,1778414814010,0.5130787,-0.063448824,0.5644842,-2.774663466666667,-5.284974266666667,1.2613232222222224
814,1778414814020,0.5666611,-0.0657904236,0.57502137,-2.74727032,-5.351923080000001,1.16473298
815,1778414814030,0.6814727,-0.08835881,0.5961933,-2.737062355555556,-5.550488966666666,1.0571559777777777
816,1778414814040,0.7271095000000001,-0.120568008,0.6396836520000001,-2.84396727,-5.84121174,1.0126320569999998
817,1778414814050,0.9418672555555556,-0.2538020711111111,0.8681468688888889,-3.112258211111111,-5.9811362444444445,0.976184821111111
818,1778414814060,1.0546042,-0.26919252,1.0589032,-3.341258,-5.7858686,0.9063446
819,1778414814070,1.1103527333333334,-0.2431476577777777,1.1623780444444445,-3.3770944,-5.6561654,0.8554406666666666
820,1778414814080,1.08642316,-0.240184742,1.2703485,-3.43465664,-5.2349456000000005,0.66438802
821,1778414814090,1.0569892,-0.2442893122222222,1.3643987444444443,-3.386460811111111,-4.829485666666667,0.4377569088888889
822,1778414814100,1.0339255333333333,-0.2590022288888889,1.4802862333333335,-3.2313734333333333,-4.568645555555555,0.2687558227777777
823,1778414814110,1.06260468,-0.266704578,1.51451514,-2.9163528399999996,-4.23521768,0.0587329627999999
824,1778414814120,1.0653365,-0.27626613,1.5252719,-2.7096422,-4.1071844,-0.082006246
825,1778414814130,1.02628554,-0.28172985,1.57976294,-2.52620475,-4.06827322,-0.1632489278
826,1778414814140,0.9967587666666669,-0.2428732266666666,1.7065731222222222,-2.126079411111111,-3.9465314,-0.28813327
827,1778414814150,0.941997025,-0.215915026,1.75994727,-1.69294792,-3.7675532,-0.399524644
828,1778414814160,0.8798142555555555,-0.1983144144444444,1.7653265444444444,-1.0741834666666668,-3.503938666666667,-0.4736950777777778
829,1778414814170,0.8813319,-0.16815005,1.7097949,-0.7505786,-3.3766109999999996,-0.5212054
830,1778414814180,0.8629297866666666,-0.1871213488888888,1.6503672333333332,-0.5039998977777778,-3.2773142888888893,-0.5625394355555556
831,1778414814190,0.8391038999999999,-0.18790731,1.6360711,-0.21608722,-3.1420455,-0.5945071
832,1778414814200,0.7823491522222222,-0.17871978,1.6269073,-0.0890309883333333,-2.881417466666667,-0.5636253911111111
833,1778414814210,0.709425529,-0.167223178,1.54087955,-0.0446834752,-2.43541742,-0.43617548
834,1778414814220,0.6858632,-0.15253939,1.4833182,-0.084755056,-2.2355483,-0.3501682
835,1778414814230,0.7010104100000001,-0.129586827,1.38403809,-0.2824252366,-1.86139662,-0.217431084
836,1778414814240,0.7222169333333334,-0.11705968,1.2649619333333333,-0.5358318188888889,-1.6023626333333334,-0.1475705097777777
837,1778414814250,0.7499705999999999,-0.121263175,1.2351117,-0.845137744,-1.40068801,-0.1158471858
838,1778414814260,0.7684729777777778,-0.1289336766666666,1.2584711333333334,-1.0029348688888888,-1.3096989,-0.1161458222222222
839,1778414814270,0.7539464,-0.14522189,1.3222418,-1.2185639,-1.1359469,-0.1253764
840,1778414814280,0.7214818,-0.1672285988888888,1.3991229555555558,-1.2808024555555555,-1.0105195544444443,-0.1225257744444444
841,1778414814290,0.6895456055555556,-0.2002962411111111,1.483511377777778,-1.2656586111111112,-0.8459301388888889,-0.1208289806666666
842,1778414814300,0.64095205,-0.23696505,1.5533528,-1.1244171,-0.68086565,-0.103996746
843,1778414814310,0.6025758211111111,-0.2473721611111111,1.556035877777778,-0.8429522555555555,-0.5648046944444444,-0.0590655363333333
844,1778414814320,0.59799224,-0.25208786,1.5348152,-0.6265766,-0.5299864,-0.024586603
845,1778414814330,0.6318424266666667,-0.2505702066666667,1.49858,-0.4161057722222223,-0.5451897,-0.0013065347666666
846,1778414814340,0.684835725,-0.22930605,1.4720707000000002,-0.12201674,-0.55991787,0.0053449133
847,1778414814350,0.69415635,-0.21330512,1.4579204,0.0450839222222222,-0.5105749977777778,-0.0191568492222222
848,1778414814360,0.6403392099999999,-0.20161237,1.40255133,0.240582202,-0.403052294,-0.041690326
849,1778414814370,0.6136029,-0.19546872,1.3656895,0.30801973,-0.35955995,-0.03191677
850,1778414814380,0.5980166039999999,-0.189761077,1.3320289200000002,0.33807342,-0.289190364,0.0052838283
851,1778414814390,0.6044695577777778,-0.1754133488888888,1.3201481777777777,0.3504396777777778,-0.1735909063888888,0.0657509222222222
852,1778414814400,0.6078877944444444,-0.1579292633333333,1.295597222222222,0.3721587,-0.0052685575,0.12873606
853,1778414814410,0.63826895,-0.12884897,1.2739158,0.37582377,0.086969376,0.18187977
854,1778414814420,0.7013891722222222,-0.0902559424444444,1.2290079777777776,0.3530188188888888,0.1776462684444444,0.1802508455555555
855,1778414814430,0.730813972,-0.0693607534,1.21195482,0.3109517979999999,0.257151422,0.147061474
856,1778414814440,0.7351343422222222,-0.0561042215555555,1.2062391,0.20600824,0.42232454,0.043217443
857,1778414814450,0.7148892,-0.06222924,1.2143697,0.14553437,0.5426614,-0.019699825
858,1778414814460,0.6813608777777778,-0.0971669183333333,1.2159144,0.1202181388888889,0.6471163111111111,-0.0554004548888888
859,1778414814470,0.6531479,-0.122751065,1.2146136,0.1229330099999999,0.720418,-0.062459134
860,1778414814480,0.6402473666666667,-0.13660011,1.2240992222222222,0.1446520233333333,0.7801452888888889,-0.0472558237777777
861,1778414814490,0.64646454,-0.1434321479999999,1.2243702600000002,0.175038281,0.866097406,-0.0379030728
862,1778414814500,0.6517114611111111,-0.1525936033333333,1.2010084111111112,0.2022752877777777,0.978679077777778,-0.0287946615555555
863,1778414814510,0.64378144,-0.160003236,1.1974906,0.1992889139999999,1.036058,-0.0134691818
864,1778414814520,0.6492452,-0.1615643,1.2031494,0.19684553,1.0888352,0.004123219
865,1778414814530,0.662221576,-0.17668714,1.201686,0.19153116,1.1638473,0.0234259918
866,1778414814540,0.6616307322222222,-0.1937138844444444,1.2113072,0.1719365411111111,1.2705283777777778,0.0618822191111111
867,1778414814550,0.6562374722222223,-0.2000523277777778,1.233910111111111,0.1582264055555555,1.394869711111111,0.1157725222222222
868,1778414814560,0.6616605900000001,-0.199718974,1.24020041,0.157079369,1.47922771,0.146389542
869,1778414814570,0.6592458,-0.20696329,1.242176,0.15103199,1.6227157,0.19531842
870,1778414814580,0.651733148,-0.2096951589999999,1.24405424,0.152498022,1.7268041,0.231480564
871,1778414814590,0.637100208888889,-0.2168825655555555,1.2470782333333337,0.1544934633333333,1.829928688888889,0.2725566555555556
872,1778414814600,0.617901872,-0.224232604,1.24732274,0.1672805279999999,1.91494506,0.315288812
873,1778414814610,0.6258562977777777,-0.2192133422222222,1.2121202111111111,0.20722993,2.1181128,0.42316443
874,1778414814620,0.6299758,-0.21964696,1.2038811,0.22066857,2.1767542,0.47203222
875,1778414814630,0.6350980111111111,-0.2082641977777778,1.1981897888888888,0.2244693988888888,2.2480198,0.4972126822222222
876,1778414814640,0.6415343640000001,-0.197374316,1.1888559600000002,0.225738606,2.3299546999999996,0.512103804
877,1778414814650,0.6140907,-0.19717614,1.2075399,0.2231119599999999,2.4009352,0.52151084
878,1778414814660,0.5918841333333333,-0.1989750266666666,1.2099791,0.2396727055555555,2.4909333555555557,0.5369177622222223
879,1778414814670,0.512807333,-0.2049113649999999,1.21278423,0.306187188,2.7494847200000003,0.59725592
880,1778414814680,0.49499843,-0.1952248,1.2094914,0.34528142,2.8242524,0.62902
881,1778414814690,0.538638128,-0.173784526,1.14096294,0.432021733,2.89407212,0.646734535
882,1778414814700,0.5466579444444445,-0.1593114622222222,1.1190727777777778,0.48821968,2.8847263,0.6406261
883,1778414814710,0.5320066800000001,-0.139434968,1.11459544,0.5936519299999999,2.85729922,0.57764771
884,1778414814720,0.5228354,-0.13982524,1.1001556,0.6574244,2.8523512,0.51112646
885,1778414814730,0.5159996359999999,-0.14134362,1.10561934,0.6608451399999999,2.85161818,0.5064229339999999
886,1778414814740,0.4851604277777778,-0.1451371955555555,1.1413064000000002,0.7108395555555556,2.8676902888888893,0.4525529755555555
887,1778414814750,0.4963534788888888,-0.1353805266666666,1.1769149666666667,0.8035525933333333,2.981647333333333,0.3960835266666667
888,1778414814760,0.483851395,-0.141901574,1.2081498700000002,0.900969151,3.0903985300000003,0.336729554
889,1778414814770,0.4613616277777777,-0.1530543255555555,1.1980814777777775,0.97628665,3.2041993,0.300995
890,1778414814780,0.41667065,-0.16302781,1.1965637,1.0422581,3.3599653,0.29427567
891,1778414814790,0.4132558088888889,-0.1575261211111111,1.178327611111111,1.094044411111111,3.4997052888888884,0.2980764988888889
892,1778414814800,0.405182161,-0.142709546,1.14199036,1.2003454,3.71360014,0.271063466
893,1778414814810,0.3904868755555555,-0.1446798466666666,1.0826138777777778,1.280149188888889,3.8221136,0.2426930155555555
894,1778414814820,0.37810132,-0.14424622,1.0066745,1.3849435,3.87804,0.1965401
895,1778414814830,0.3211637322222222,-0.1476610611111111,1.0177016,1.4224087666666667,3.9045102666666662,0.1896171666666666
896,1778414814840,0.2657912677777778,-0.1548972577777777,1.0094457,1.4748058444444443,3.980730466666666,0.1986441355555555
897,1778414814850,0.196462682,-0.151682633,1.0013297,1.5265454200000002,4.14125426,0.2711856529999999
898,1778414814860,0.1923079711111111,-0.1272770788888889,0.9424601444444444,1.5780475,4.410699,0.36757734
899,1778414814870,0.200316567,-0.096331842,0.8355244000000001,1.58537764,4.57342878,0.406427226
900,1778414814880,0.20799993,-0.07149807,0.8063275,1.5891785333333337,4.777478944444444,0.4306982166666666
901,1778414814890,0.1996579919999999,-0.0451550727,0.805229905,1.62618235,4.94195292,0.364034436
902,1778414814900,0.1866436855555555,-0.0294292238888888,0.7564533411111111,1.7118230777777776,5.081273644444445,0.2641405311111111
903,1778414814910,0.158088492,-0.0094639676,0.6466779920000001,1.88176076,5.1738916,0.109921968
904,1778414814920,0.1282087,0.011220166,0.537135,2.0964532333333334,5.119146,-0.0448803033333333
905,1778414814930,0.0347174733333333,0.0069380743333333,0.4449785422222223,2.336176877777778,4.9360275555555555,-0.1783164944444444
906,1778414814940,-0.0627353679999999,0.0113665166,0.42360396,2.5138655,4.829129,-0.26526043
907,1778414814950,-0.1576040466666666,0.0045802126888888,0.3866519777777777,2.758747377777778,4.784198,-0.38016758
908,1778414814960,-0.210445208,-0.01498867804,0.2534660119999999,2.9990004499999996,4.69681974,-0.459937445
909,1778414814970,-0.2428935866666667,-0.0296765253333333,0.1202238155555555,3.127563388888889,4.531307377777777,-0.4717946733333333
910,1778414814980,-0.269345,-0.017074168,0.0102445,3.1161609,4.27448,-0.43324342
911,1778414814990,-0.2769064055555555,0.0233380828888888,-0.0340975177777777,3.0339,4.111315922222222,-0.4489218177777778
912,1778414815000,-0.303164038,0.0536921608,-0.08406588,2.9107941100000003,3.91969995,-0.527374985
913,1778414815010,-0.36428955,0.063448824,-0.09518848,2.7557611,3.695397,-0.63237965
914,1778414815020,-0.4089568066666667,0.0700887773333333,-0.0743742584444444,2.6415326777777777,3.531341955555556,-0.7451148944444443
915,1778414815030,-0.433696052,0.0648147588,-0.06830277,2.58698384,3.4544633399999993,-0.81190765
916,1778414815040,-0.47704002,0.04978949,-0.054423906,2.5468514,3.452814,-0.838846
917,1778414815050,-0.479430408,0.0372033899999999,-0.097145912,2.48033008,3.54090595,-0.848008697
918,1778414815060,-0.4811866,0.04539899,-0.16741832,2.4301794,3.6043806,-0.85900396
919,1778414815070,-0.510822457,0.0524237906,-0.266698472,2.30978154,3.5928354899999997,-0.87989494
920,1778414815080,-0.57853985,0.06027791,-0.39755368,2.151633,3.4809132,-0.926808
921,1778414815090,-0.63069533,0.066473391,-0.4495109819999999,2.05542476,3.31812241,-0.947149216
922,1778414815100,-0.7236059222222222,0.0746689911111111,-0.5412408888888889,1.9176785999999997,3.0942469,-0.94452256
923,1778414815110,-0.7634042799999999,0.08443175,-0.596516512,1.71468641,2.84856403,-0.914896486
924,1778414815120,-0.7905440666666667,0.0961099466666666,-0.6280414311111111,1.5150539,2.6605453,-0.8901571599999999
925,1778414815130,-0.809407,0.09567632,-0.636714,1.2047435,2.481567,-0.8400677
926,1778414815140,-0.81887401,0.101383967,-0.6130053,1.0175799,2.42830116,-0.80390554
927,1778414815150,-0.8233678177777777,0.1072759088888888,-0.6149240777777778,0.7986658444444444,2.4035821222222227,-0.7487121111111111
928,1778414815160,-0.830219149,0.1088478129999999,-0.621033144,0.628531285,2.43856326,-0.660661863
929,1778414815170,-0.84382975,0.11323831,-0.65552604,0.50288,2.5023358,-0.58473355
930,1778414815180,-0.86841345,0.102969417,-0.716901572,0.365072856,2.51925624,-0.539164339
931,1778414815190,-0.89191175,0.09201756,-0.7651056,0.26281703,2.5273805,-0.49738237
932,1778414815200,-0.913766755,0.075501353,-0.8343383320000001,0.1558576765,2.49604408,-0.4463766429999999
933,1778414815210,-0.9191762711111112,0.0699532683333333,-0.8864508244444446,0.0315774095555555,2.423400811111111,-0.3946921622222222
934,1778414815220,-0.90508324,0.061497495,-0.96691614,-0.103080474,2.2512777,-0.3697153
935,1778414815230,-0.90508324,0.0586436678999999,-0.998116224,-0.1454121864,2.12483211,-0.372464107
936,1778414815240,-0.932212271111111,0.0414150195555555,-1.0538623666666669,-0.1695949522222222,1.9207413111111111,-0.3817964966666667
937,1778414815250,-0.96877911,0.0163729069,-1.1056225000000002,-0.167708117,1.7487335600000002,-0.364950693
938,1778414815260,-1.0132028333333334,-0.0226876377777777,-1.183585322222222,-0.1509301788888889,1.4281948555555557,-0.26906124
939,1778414815270,-1.0424999,-0.0519847399999999,-1.2573295,-0.16233265,1.0595145,-0.11865708
940,1778414815280,-1.049139811111111,-0.0527435927777777,-1.2706263222222225,-0.1913139622222222,0.7144622122222222,-0.0175957949555555
941,1778414815290,-1.044939,-0.05052124,-1.2609882,-0.228915,0.32581067,0.08353336
942,1778414815300,-1.0051468,-0.0413879153333333,-1.1908147333333334,-0.29074632,-0.1666679766666666,0.1849340133333333
943,1778414815310,-0.942253142,-0.0267546078999999,-1.08125515,-0.36916554,-0.5863064689999999,0.24357534
944,1778414815320,-0.8690039977777778,-0.0023307594444444,-0.956766537777778,-0.44698748,-0.9129876,0.2777828
945,1778414815330,-0.8391954,0.018537667,-0.86489797,-0.5019637266666667,-1.0705862000000002,0.2875563533333333
946,1778414815340,-0.821438152,0.0392461918,-0.797162346,-0.5758762340000001,-1.24663238,0.288533706
947,1778414815350,-0.8091664222222222,0.0654543603333333,-0.71320556,-0.6744262777777777,-1.4056698666666667,0.2589143866666667
948,1778414815360,-0.8070897589999999,0.084675669,-0.620005649,-0.76328419,-1.50428778,0.228426332
949,1778414815370,-0.803553,0.09811548,-0.5481417,-0.83854055,-1.5555989,0.20203774
950,1778414815380,-0.8082544800000001,0.0970910339999999,-0.51021876,-0.8898517399999999,-1.55193386,0.19360804
951,1778414815390,-0.8075166577777778,0.1067880775555555,-0.4396428555555556,-0.9499862666666667,-1.546232577777778,0.1846625177777777
952,1778414815400,-0.8001381999999999,0.117140986,-0.4004807,-0.9613209,-1.5409386,0.17760384
953,1778414815410,-0.7834434444444445,0.1201763939999999,-0.3794496511111112,-0.9261632333333334,-1.5441285444444444,0.15371292
954,1778414815420,-0.7793564799999999,0.122068102,-0.373991336,-0.797369496,-1.56134083,0.076264281
955,1778414815430,-0.771356,0.12811723,-0.3626736,-0.71820366,-1.5855304,0.04382829
956,1778414815440,-0.7819799311111111,0.1256509588888889,-0.3858185866666667,-0.5951518577777778,-1.6829266888888887,0.0029693957777777
957,1778414815450,-0.780941902,0.114653029,-0.404971806,-0.476185972,-1.81381174,-0.0341158202
958,1778414815460,-0.7700821666666666,0.0955103144444444,-0.4209459822222222,-0.2992303133333334,-2.039670055555556,-0.0871645111111111
959,1778414815470,-0.772234088,0.0545641588,-0.417530488,-0.101370106,-2.2616926399999997,-0.1151141659999999
960,1778414815480,-0.79818684,0.020976834,-0.41340828,0.04718795,-2.38093,-0.10094251
961,1778414815490,-0.8286520079999999,0.0030245668,-0.413822912,0.196845521,-2.46302782,-0.02696890659
962,1778414815500,-0.8870301133333334,-0.0281588244444444,-0.4451479299999999,0.46731512,-2.5649986444444446,0.1008407007
963,1778414815510,-0.92193792,-0.02593139217,-0.576808056,0.7407439210000001,-2.76411436,0.328422017
964,1778414815520,-0.86700183,0.0065857503,-0.69650406,0.8877138,-2.9856687,0.5044071
965,1778414815530,-0.8051201819999999,0.04553924192,-0.738677242,0.913796936,-3.25554111,0.5718446800000001
966,1778414815540,-0.72937185,0.095920235,-0.79559517,0.91031516,-3.624615,0.6180247
967,1778414815550,-0.7111492333333334,0.1041320966666666,-0.8030041266666667,0.8587324666666666,-3.8097694888888887,0.6096085800000001
968,1778414815560,-0.64229358,0.1212875659999999,-0.799070964,0.633356947,-4.2966155399999995,0.585344372
969,1778414815570,-0.5882423111111111,0.1162466188888888,-0.74753682,0.2732693133333333,-4.696864,0.5877538444444445
970,1778414815580,-0.5230671259999999,0.100798564,-0.625463328,-0.250416826,-4.9911563999999995,0.68100308
971,1778414815590,-0.49923643,0.0910419,-0.54326344,-0.6143596,-5.1231,0.797003
972,1778414815600,-0.43444912,0.070598634,-0.407295094,-0.97617212,-5.19408007,0.91569057
973,1778414815610,-0.3795716011111111,0.0340670269666666,-0.24023421,-1.3248514,-5.2171702,1.0175189
974,1778414815620,-0.341379681,-0.00876575541,0.044164162,-1.71383892,-5.0557843,1.1840510600000005
975,1778414815630,-0.31465251,-0.0475942413333333,0.3281492299999999,-1.9335266666666664,-4.734388622222223,1.3705970555555558
976,1778414815640,-0.29056573,-0.06613191,0.48612595,-1.99434,-4.2782216,1.5801855
977,1778414815650,-0.25690526,-0.08787098,0.5666794,-1.9504946666666667,-3.9548797111111114,1.7129429444444444
978,1778414815660,-0.139715466,-0.036166741,0.569886914,-1.8262347599999995,-3.48045508,1.91480764
979,1778414815670,0.0997077188888888,0.0972583805555555,0.4344088233333333,-1.7052734333333337,-3.3231279444444444,1.988774466666667
980,1778414815680,0.22899507,0.18757802,0.41966474,-1.68183056,-3.44111646,1.83270978
981,1778414815690,0.34907523,0.26333854,0.5110359,-1.690138,-3.6307235,1.4842825
982,1778414815700,0.34005034,0.25306356,0.6103405,-1.6829435777777777,-3.791444122222222,0.8652142533333333
983,1778414815710,0.2148692469999999,0.1737814808,0.73591186,-1.6577631,-3.8365787999999994,0.58442813
984,1778414815720,0.0433358644444444,0.0810887413333333,0.8818366777777779,-1.3498790888888887,-3.811873533333334,0.2821944644444444
985,1778414815730,-0.0311359649,0.0529847996,0.91022687,-1.0176410260000002,-3.745073880000001,0.312845424
986,1778414815740,-0.0123957115555555,0.0540173795555555,0.9277471444444444,-0.6971633488888889,-3.678776755555555,0.4502453288888888
987,1778414815750,0.12796478,0.08003516,0.8956315,-0.4164450999999999,-3.6136196,0.58381724
988,1778414815760,0.3200423944444444,0.13215541,0.800036548888889,-0.2598646077777778,-3.619388722222222,0.5857855755555555
989,1778414815770,0.43955613,0.17658958,0.712017154,-0.19837265,-3.7131877,0.5172349
990,1778414815780,0.48166426,0.1820262111111111,0.7099567666666666,-0.4643626966666667,-3.962006155555556,0.2661088261111111
991,1778414815790,0.46865538,0.17400406,0.8448969,-0.8348754599999999,-3.9984534,-0.019699825
992,1778414815800,0.3739411955555555,0.1250343933333333,0.9447333111111108,-0.9845330377777776,-3.885446677777778,-0.0780696722222222
993,1778414815810,0.2549630459999999,0.0307274001,1.06056493,-1.21891514,-3.57293728,-0.060993096
994,1778414815820,0.1485554125555555,-0.0341788226666666,1.1188558777777775,-1.250803033333333,-3.028020777777778,0.2343447688888888
995,1778414815830,0.0205804695555555,-0.0688962933333333,1.0709872333333332,-1.1924247111111113,-2.6497703999999995,0.4975520711111111
996,1778414815840,0.022531802,-0.06564408,0.9898443,-1.1054808,-2.4743896,0.7896728
997,1778414815850,0.0845679424444444,-0.0524183706666666,0.8937411266666666,-1.0148039111111111,-2.3929431999999995,1.0470432
998,1778414815860,0.239989606,-0.00112201697,0.71628269,-0.998704694,-2.42888138,1.11019208
999,1778414815870,0.4102238,0.035049469,0.687028588888889,-0.95582324,-2.8439522,1.3889903
1000,1778414815880,0.6524161,0.08174257,0.7453179,-1.0407311,-3.3454578,1.3517287
