id,timestamp,acc_x,acc_y,acc_z,gyro_x,gyro_y,gyro_z
0,1778414750120,0.16604628,0.006829667,1.1016192,0.19806722,0.1504975,-0.08872557
1,1778414750130,0.17965682,0.0245928976,1.07366026,0.150421148,0.208833403,-0.0785854969999999
2,1778414750140,0.1646539233333333,0.026607241,1.0688327,0.0879111006666666,0.2148400666666666,-0.08628218
3,1778414750150,0.1182792616666666,0.0161798056666666,1.0808862333333331,0.0173243064444444,0.2322152822222222,-0.0718933311111111
4,1778414750160,0.092078543,0.0123421842,1.08030086,-0.0337493115,0.24243,-0.037719818
5,1778414750170,0.08549279,0.010000584,1.0823498,-0.056656085,0.23907034,-0.021532366
6,1778414750180,0.084712256,0.0033904416,1.11284244,-0.07925743,0.22257747,0.014507622
7,1778414750190,0.1081567099999999,0.0166405364444444,1.142573422222222,-0.0587601131111111,0.2250887377777778,0.0400274642222222
8,1778414750200,0.117232452,0.0233184338,1.15414048,-0.0060779306,0.2567849199999999,0.044561306
9,1778414750210,0.1071404,0.0225216396666666,1.1498638333333335,0.0249259617777777,0.2862413233333333,0.04919017
10,1778414750220,0.1030548,0.027074749,1.1418959,0.0539072699999999,0.3251998,0.06154286
11,1778414750230,0.0942737944444444,0.0314381481111111,1.1136828333333333,0.0754905393333333,0.3577783333333333,0.06656538
12,1778414750240,0.088200266,0.035788674,1.07458409,0.088114722,0.361484126,0.0722937729999999
13,1778414750250,0.1052127788888888,0.0407916762222222,1.0641881,0.08397453,0.28094732,0.05835288
14,1778414750260,0.1117443294999999,0.026358246,1.07891965,0.080173702,0.222333132,0.0443169684
15,1778414750270,0.1137905222222222,0.0109762505555555,1.0921877111111111,0.0773230822222222,0.1788000844444444,0.0362266348888888
16,1778414750280,0.114476192,-0.013540424,1.13379474,0.086037831,0.12355912,0.0402242931
17,1778414750290,0.1242247299999999,-0.0449111546666666,1.1750686,0.1117341466666666,0.0914489233333333,0.0556380053333333
18,1778414750300,0.1265554855555555,-0.0557518988888888,1.1939382,0.1361680377777777,0.0736664788888888,0.0690766468888888
19,1778414750310,0.12333036,-0.06637583,1.2155892,0.18035266,0.03993414,0.08903099
20,1778414750320,0.0929491955555555,-0.0930711544444444,1.2197087555555557,0.2134741533333333,-0.0105625675555555,0.1145508299999999
21,1778414750330,0.0729554779999999,-0.095237262,1.23778554,0.2586632839999999,-0.1009272351999999,0.157323706
22,1778414750340,0.084029295,-0.078327745,1.2485484,0.3460279977777777,-0.2797425988888888,0.1969473322222222
23,1778414750350,0.096566608,-0.0626682924,1.27553788,0.399952234,-0.424187592,0.1828571229999999
24,1778414750360,0.0861703388888888,-0.0501147163333333,1.3173363777777778,0.4464784466666666,-0.5707094866666667,0.1704772866666666
25,1778414750370,0.0878587835,-0.0321512687,1.3438314400000002,0.4447273519999999,-0.598279086,0.180230477
26,1778414750380,0.1018148844444444,0.0063418333333333,1.4310997444444444,0.3921809066666666,-0.5463434855555556,0.2029200688888889
27,1778414750390,0.1373433839999999,0.033666598,1.49669098,0.320480996,-0.374159217,0.24381969
28,1778414750400,0.2930489511111111,0.0962556166666666,1.5940055222222222,0.1065080077777777,0.1108603044444444,0.2787329977777777
29,1778414750410,0.384845632,0.1290929,1.7187648599999998,-0.0275797537999999,0.42238562,0.27063587
30,1778414750420,0.4066700633333333,0.1453641733333333,1.8346497333333336,-0.1686447488888889,0.8484413666666666,0.2627830888888889
31,1778414750430,0.4179715255555555,0.1636782466666666,1.915240511111111,-0.2659052111111111,1.2906183777777778,0.2651586111111111
32,1778414750440,0.44107453,0.194151568,1.99565304,-0.299406792,1.86302308,0.2765611
33,1778414750450,0.5026614533333333,0.2041785866666666,2.0599067333333334,-0.2744570694444444,2.1454653777777777,0.2696381644444444
34,1778414750460,0.593903555,0.212890473,2.14316476,-0.0312448344999999,2.80830926,0.19409672
35,1778414750470,0.62192655,0.21306121,2.1783588,0.16630317,3.0233886,0.14706148
36,1778414750480,0.615096861,0.200789154,2.16383956,0.48156146,3.2994991999999996,0.0626423867
37,1778414750490,0.6318458066666667,0.1800206633333333,2.0306164333333334,0.94289365,3.647072,-0.0838387888888888
38,1778414750500,0.63357962,0.174247984,1.89037238,1.17933224,3.78384748,-0.172900322
39,1778414750510,0.6193823222222222,0.17142938,1.7705267666666666,1.4879985,3.9853456,-0.3017076433333334
40,1778414750520,0.640897134,0.176101737,1.69151323,1.6391323,4.154754,-0.38437563
41,1778414750530,0.5242107777777778,0.1504999755555555,1.4681006333333333,1.8847607333333332,4.58689461111111,-0.4945996266666667
42,1778414750540,0.464084987,0.146956747,1.255887385,1.95671169,4.71538962,-0.483638309
43,1778414750550,0.426346,0.1646539166666666,0.9302982333333334,2.001025322222222,4.728203866666667,-0.46561832
44,1778414750560,0.4221181266666667,0.1712667633333333,0.7863128444444444,1.9644423333333332,4.541012844444444,-0.5157078066666667
45,1778414750570,0.42398815,0.16314976,0.683561235,1.92708558,4.40214718,-0.6099004600000001
46,1778414750580,0.41447538,0.15522248,0.66281307,1.9109591999999995,4.343506,-0.6678088
47,1778414750590,0.360929594,0.1091405127999999,0.5574471639999999,1.92598608,4.2130285,-0.8667006520000001
48,1778414750600,0.2948715411111111,0.0912790377777777,0.503667588888889,1.9818175333333332,3.960097333333333,-1.015584466666667
49,1778414750610,0.1121467864,0.005421048,0.53962292,2.06513716,3.668031,-1.15746392
50,1778414750620,0.045883438,-0.0382441011111111,0.5273918666666666,2.1906595111111113,3.5366020555555555,-1.1374823888888888
51,1778414750630,0.0409292176,-0.0302700584,0.4515690539999999,2.25474412,3.47718695,-1.1167203799999998
52,1778414750640,0.091102876,0.024391668,0.28114447,2.2866304,3.421661,-1.1106731
53,1778414750650,0.17311986,0.13275166,0.094670154,2.13141407,3.07738743,-1.33262437
54,1778414750660,0.0996602873333333,0.1129842433333333,0.0990708193333333,1.8596481333333332,2.7509506666666663,-1.5969837666666666
55,1778414750670,-0.146228049,0.0221964185,0.14593839,1.5089836,2.7201028000000003,-1.6941085
56,1778414750680,-0.2605978688888888,-0.0354017944444444,0.1889676555555555,1.3180896222222225,2.815768333333333,-1.6136633666666669
57,1778414750690,-0.385656668,-0.0880661168,0.22403135,1.12527227,2.98991407,-1.35189667
58,1778414750700,-0.3829085344444444,-0.0551251699999999,0.1517906988888888,1.0441585333333334,2.9507655333333336,-1.0547465555555555
59,1778414750710,-0.3560607533333333,0.0017074172222222,0.0722264355555555,1.00866154,2.749932577777778,-0.8361989844444444
60,1778414750720,-0.3432090479999999,0.0303035987,0.0280016351,0.973843248,2.57911932,-0.8051883160000001
61,1778414750730,-0.3556203244444444,0.0488646424444444,-0.0013008888888888,0.9139802,2.3991027,-0.82785076
62,1778414750740,-0.426274856,0.0289132734,0.0402218612,0.803783378,2.28151449,-0.913491523
63,1778414750750,-0.4689196311111112,0.020641448,0.0281588262222222,0.7329658,2.2598294,-0.9414683133333333
64,1778414750760,-0.529750416,0.0173302794,-0.0006951636,0.639709792,2.17626543,-0.93865842
65,1778414750770,-0.5819750066666667,0.043122436,-0.0622394066666666,0.53708744,2.0924573,-0.9292513999999998
66,1778414750780,-0.56097785,0.087367905,-0.10201815,0.392011225,1.6465387500000002,-1.01721335
67,1778414750790,-0.5622855333333333,0.1104197255555555,-0.0384914066666666,0.3505754311111111,1.463691811111111,-1.0697461888888888
68,1778414750800,-0.63190883,0.093789016,0.152258888,0.288350448,1.27630425,-1.2030330800000002
69,1778414750810,-0.7696384000000001,0.05019602,0.1980806666666666,0.2148315822222222,1.4719043555555558,-1.1982956333333332
70,1778414750820,-0.86511148,0.035691106,0.063003682,0.05647283,1.6448284000000002,-1.05814014
71,1778414750830,-0.8831308,0.037593655,-0.050033405,-0.094528615,1.7082343,-0.94818765
72,1778414750840,-0.8399575211111111,0.1121339138888889,-0.1296755861111111,-0.4212640216666666,1.5521968666666668,-0.8999985899999999
73,1778414750850,-0.793034078,0.160588636,-0.0801510128,-0.739338959,1.24570078,-0.956800628
74,1778414750860,-0.7581845,0.17376013,-0.023202572,-0.91978323,1.0088142,-1.0410365
75,1778414750870,-0.8276184179999999,0.093057257,0.1955967826,-1.073747326,1.01321232,-1.11824754
76,1778414750880,-0.8758708866666667,0.053553262,0.2850234133333333,-1.1525924,1.0851701,-1.1351069
77,1778414750890,-0.948774868,0.0095127498,0.348154472,-1.26877562,1.41044629,-1.03572207
78,1778414750900,-0.9494117888888888,-0.011626695,0.371397,-1.3908228666666669,1.7353151666666669,-0.85208101
79,1778414750910,-0.8814081249999999,-0.00353679165,0.36813123,-1.5004699499999998,1.9406617,-0.7285880650000001
80,1778414750920,-0.84187835,0.0017074167,0.37922946,-1.5441455,2.0075495,-0.7007945
81,1778414750930,-0.77057545,-0.0213945411,0.4252138099999999,-1.54616128,2.1591007,-0.7729355600000001
82,1778414750940,-0.8107417522222222,-0.0542104804444444,0.4222705799999999,-1.480345866666667,2.2185632111111113,-0.8172626888888889
83,1778414750950,-0.906607782,-0.135739628,0.341221148,-1.34158852,2.2660601,-0.7850914339999999
84,1778414750960,-0.9349258,-0.1758740888888889,0.2543305777777778,-1.1684659444444443,2.122320966666667,-0.6430354988888889
85,1778414750970,-0.940085312,-0.176095638,0.218744474,-1.00175894,1.86827634,-0.466473504
86,1778414750980,-0.91898656,-0.13372731,0.23281845,-0.9020687,1.8707197,-0.3965926
87,1778414750990,-0.86651397,-0.05417999,0.10689648,-0.7566870333333333,1.906963366666667,-0.37826716
88,1778414751000,-0.7769752,-0.125443297,-0.011497623,-0.479362384,1.75710212,-0.463297108
89,1778414751010,-0.8872773999999999,-0.1678248333333333,-0.11194759,-0.1978296648888888,1.7066054,-0.6367234555555554
90,1778414751020,-1.08073996,-0.200987336,-0.303749432,-0.0096208428,1.802427,-0.689799294
91,1778414751030,-1.2591894,-0.2406237999999999,-0.44100136,0.16630317,1.8762174,-0.64826167
92,1778414751040,-1.29043508,-0.27147924,-0.61223698,0.520655666,1.85214999,-0.4262186739999999
93,1778414751050,-1.266019,-0.2172078,-0.7094621,0.7262465222222222,1.6978499444444444,-0.3298066166666666
94,1778414751060,-1.219809,-0.1381178,-0.967745476,0.92864058,1.246891944,-0.2884726199999999
95,1778414751070,-1.1947648,-0.14268108,-1.1292122,1.1643597777777777,0.3042273935888889,-0.3450778
96,1778414751080,-1.20786932,-0.1473896994,-1.12451992,1.22343551,-0.022616618586,-0.40636614
97,1778414751090,-1.3126376,-0.107628234,-0.9856978,1.2982031,-0.22273017,-0.51082104
98,1778414751100,-1.40597222,-0.0650708678,-0.950281038,1.4675605,-0.538293864,-0.398669448
99,1778414751110,-1.3343935777777778,-0.0887246877777777,-0.941697888888889,1.5222229,-1.0053612555555556,-0.1329101828888889
100,1778414751120,-1.2085969,-0.0691402143333333,-0.9028880333333332,1.4051014666666668,-1.27522,0.033036656
101,1778414751130,-1.1138942200000002,-0.0386668904,-0.844494392,1.1800652800000002,-1.45224348,0.1298355848
102,1778414751140,-1.0461587,-0.03320316,-0.75214756,0.8433934,-1.5893990444444444,0.1889384466666666
103,1778414751150,-0.993579332,-0.0463014839,-0.6470438799999999,0.5676297979999999,-1.62828974,0.22500559
104,1778414751160,-0.93209704,-0.0716708533333333,-0.4751700166666667,-0.05075123,-1.6205523,0.3107685433333333
105,1778414751170,-0.912937398,-0.093017624,-0.303133537,-0.4809506019999999,-1.56915966,0.36818819
106,1778414751180,-0.9243527444444444,-0.11779143,-0.1763483733333333,-0.6207396,-1.5206448888888888,0.3935044244444444
107,1778414751190,-0.9233771,-0.12299499,-0.14912456,-0.642886206,-1.50459319,0.400807436
108,1778414751200,-0.9315787133333332,-0.1241332638888888,-0.0771217088888888,-0.5946089233333334,-1.4841298,0.38875336
109,1778414751210,-0.8967359244444444,-0.1192549277777777,-0.1356955944444444,-0.4858781,-1.540124066666667,0.33153734
110,1778414751220,-0.8475036899999999,-0.10116444,-0.2061095899999999,-0.356154502,-1.70503503,0.244430525
111,1778414751230,-0.81724274,-0.08860273,-0.2443130299999999,-0.27961534,-1.8684290999999995,0.17516045
112,1778414751240,-0.788478914,-0.080821786,-0.278363804,-0.172778146,-2.1785561400000004,0.0286181956
113,1778414751250,-0.81914331,-0.0962725566666666,-0.2428359866666667,-0.0752529888888888,-2.4457476444444444,-0.0657848522222222
114,1778414751260,-0.876331632,-0.143642526,-0.12559879,0.085793496,-2.6762134800000004,-0.0528077432
115,1778414751270,-0.9065467866666668,-0.1651417466666666,-0.0821795933333333,0.2014608244444444,-2.6843174444444444,0.0667011253333333
116,1778414751280,-0.8817465800000001,-0.1792726459999999,-0.097237376,0.269536364,-2.68610928,0.163920856
117,1778414751290,-0.8585460177777777,-0.1792347022222222,-0.090306753,0.35593731,-2.742687244444445,0.3051351622222222
118,1778414751300,-0.819941092,-0.148139746,-0.0564728060999999,0.459754192,-2.7713835799999997,0.4497974
119,1778414751310,-0.7974008666666667,-0.13459458,-0.0684491122222222,0.5682406622222222,-2.7449948333333336,0.6098122
120,1778414751320,-0.75436722,-0.131727194,-0.1042743739999999,0.613382258,-2.7264251,0.72730525
121,1778414751330,-0.705468,-0.12397064,-0.14131922,0.618941,-2.740108,0.8098307
122,1778414751340,-0.6492207999999999,-0.11951917,-0.2273394759999999,0.563109512,-2.91859768,0.959244
123,1778414751350,-0.5507740155555555,-0.01715886,-0.2140131688888888,0.4617496233333333,-3.1298286,1.1223809
124,1778414751360,-0.495321616,0.0503748899999999,-0.1190008508,0.401784775,-3.2718505999999996,1.22371795
125,1778414751370,-0.4797027833333333,0.0453888263333333,-0.0151431599999999,0.3511862666666666,-3.230211166666667,1.2871824666666667
126,1778414751380,-0.5074564149999999,-0.0191505079,0.0304408006,0.290916,-3.0998971,1.3401226
127,1778414751390,-0.4980643155555556,-0.0669517344444444,0.0428344777777777,0.1006031486666666,-2.932321322222222,1.510277433333333
128,1778414751400,-0.4240694466666667,-0.0925053946666666,0.13829059,-0.1066776899999999,-2.816803344444444,1.7053413444444443
129,1778414751410,-0.311377926,-0.0728335178,0.16198506,-0.34992386,-2.64005139,1.90191877
130,1778414751420,0.0196793344444444,0.0645295083333333,0.0610198244444444,-0.8301923400000001,-2.5094114666666667,2.0617368333333332
131,1778414751430,0.21338135,0.160451435,0.170939865,-1.16732918,-2.6559334,1.93753114
132,1778414751440,0.2769809199999999,0.1872839655555555,0.2651306666666667,-1.3351000444444443,-2.8174821111111115,1.7638469222222222
133,1778414751450,0.25609421,0.1644333665,0.405712712,-1.4554505,-3.0663005,1.43784282
134,1778414751460,0.1731368041111111,0.1210165455555555,0.4754545722222222,-1.534711333333333,-3.2944859777777777,1.0714769288888888
135,1778414751470,0.0145221892999999,0.096228169,0.627003061,-1.54750516,-3.57079926,0.678804002
136,1778414751480,-0.018964522,0.07076632,0.7472692,-1.502608,-3.696084,0.6253549
137,1778414751490,0.0164880882222222,-0.0201231266666666,0.909873511111111,-1.3329280666666667,-3.6133482,0.6556936111111111
138,1778414751500,0.072894496,-0.061936544,0.9600621,-1.26120104,-3.4975587599999995,0.680453332
139,1778414751510,0.1904379422222222,-0.0660777066666666,0.9588805044444446,-1.1711214222222222,-3.1858909555555552,0.7151494333333334
140,1778414751520,0.197325535,-0.040051117,0.889262248,-1.14660612,-3.01767714,0.72742746
141,1778414751530,0.3892605222222222,0.0754888211111111,0.7425196133333333,-1.3266160333333332,-3.2534234000000004,0.7583838555555555
142,1778414751540,0.538958272,0.101551656,0.695875938,-1.6064520000000002,-3.74373,0.6723901
143,1778414751550,0.5419625144444444,0.0682932797777777,0.8419868055555555,-2.0043849666666667,-4.154694622222222,0.3941831377777778
144,1778414751560,0.407688424,-0.0274894085999999,1.04074974,-2.40317993,-4.19477953,0.065207941
145,1778414751570,0.2567629577777778,-0.1506117722222222,1.1608366444444445,-2.6443492666666666,-3.894134244444445,-0.0877074888888888
146,1778414751580,0.212731922,-0.217793198,1.20344218,-2.6568037500000004,-3.6038461,-0.0233649099999999
147,1778414751590,0.21556135,-0.22940363,1.2060765,-2.6302319,-3.4584644,0.02367033
148,1778414751600,0.2541398259999999,-0.2300378139999999,1.21385738,-2.48197939,-3.1285458000000004,0.0506697802
149,1778414751610,0.3043537933333333,-0.2486323999999999,1.1730257444444443,-2.3396722666666667,-3.007251966666667,-0.0019852529999999
150,1778414751620,0.3704586066666666,-0.2657777166666666,1.1504329666666666,-2.1676169666666665,-3.124941833333333,-0.0960557299999999
151,1778414751630,0.4625575,-0.28431535,1.1787273,-2.0523705,-3.3546205,-0.1693574
152,1778414751640,0.5047211933333333,-0.2609027511111111,1.3031451777777778,-1.814275722222222,-3.5598651999999995,-0.3361865777777778
153,1778414751650,0.470164635,-0.251063433,1.40340197,-1.38782969,-3.675498549999999,-0.55315275
154,1778414751660,0.3546480677777778,-0.2744062611111111,1.4541261888888888,-1.02164205,-3.5714712,-0.6203663333333334
155,1778414751670,0.287120404,-0.314573238,1.38070862,-0.5672022099999999,-3.31955772,-0.5916972
156,1778414751680,0.3399588666666667,-0.32719388,1.1980983666666667,-0.3018773266666666,-3.201772911111111,-0.47797098
157,1778414751690,0.429656178,-0.304898874,1.0391125,-0.20020519,-3.29982745,-0.384742131
158,1778414751700,0.4797976088888889,-0.2828789511111111,0.9921987955555556,-0.1988477466666666,-3.5478517555555555,-0.3067980333333333
159,1778414751710,0.543406692,-0.248816346,0.945372262,-0.318465225,-3.79253688,-0.294947615
160,1778414751720,0.5850748266666668,-0.2273709899999999,0.93477001,-0.5129589933333334,-3.967164555555556,-0.3292636499999999
161,1778414751730,0.6574672666666667,-0.2196469666666666,1.0215636533333334,-0.81702515,-4.03401838888889,-0.4383338055555555
162,1778414751740,0.7251338,-0.22501312,1.1528721,-1.004691,-4.032661,-0.52181625
163,1778414751750,0.72635335,-0.29138896,1.3576096,-1.134267,-3.9117131,-0.5505261
164,1778414751760,0.75292198,-0.322055378,1.58751336,-1.074510818,-3.710011329999999,-0.53427757
165,1778414751770,0.7673619,-0.34410545,1.6656156,-0.8918879,-3.3872668,-0.5047125644444445
166,1778414751780,0.7567271,-0.359825878,1.76430424,-0.4563945159999999,-2.9157877,-0.429333992
167,1778414751790,0.7435393,-0.38112996,1.9072962333333332,-0.1252745933333333,-2.610608533333333,-0.38559733
168,1778414751800,0.75570263,-0.374326712,1.88832964,0.169601748,-2.33303954,-0.352733744
169,1778414751810,0.8180423277777779,-0.3536182,1.8176534444444443,0.36849362,-2.1512513,-0.33367532
170,1778414751820,0.86674575,-0.34300782,1.7594532099999998,0.696762936,-1.92681076,-0.346625286
171,1778414751830,0.8713822,-0.3543228333333333,1.7252428444444443,0.8935507477777779,-1.7950509666666667,-0.3779278222222222
172,1778414751840,0.8347134,-0.3697167,1.7180880000000005,0.910742697,-1.6765467299999997,-0.359575247
173,1778414751850,0.7236397999999999,-0.3685479344444444,1.7507254222222222,0.8651124,-1.4016654,-0.26281703
174,1778414751860,0.66799626,-0.3611796,1.75918192,0.767376878,-0.973827972,-0.1030193839999999
175,1778414751870,0.6523890266666666,-0.3408803144444444,1.7243620999999998,0.6486010222222222,-0.5319546455555556,0.0771534066666666
176,1778414751880,0.6779206799999999,-0.28920895,1.6618195,0.506178576,-0.0887102979999999,0.249439484
177,1778414751890,0.6958638,-0.26016763,1.6365589,0.42591324,0.12972869,0.3205421
178,1778414751900,0.7214242111111111,-0.2295764033333333,1.6196202444444443,0.3351006133333333,0.37203143,0.3514916999999999
179,1778414751910,0.74601913,-0.196709643,1.59299537,0.232519008,0.70051966,0.354871716
180,1778414751920,0.7291380766666667,-0.1776628,1.5979386999999998,0.2418446066666666,0.8787037999999999,0.31748786
181,1778414751930,0.6882901780000001,-0.169174508,1.61660654,0.363484652,1.0281169799999998,0.270086122
182,1778414751940,0.6425104111111111,-0.1705621333333333,1.621137977777778,0.4907309155555555,1.1373636111111112,0.2435074777777778
183,1778414751950,0.61457855,-0.1744919,1.6180212,0.554802,1.1932901,0.23319094
184,1778414751960,0.6192197055555556,-0.1862540922222222,1.557140311111111,0.7069030000000001,1.3263869444444445,0.2239603522222222
185,1778414751970,0.646367002,-0.1760529529999999,1.50455423,0.82534625,1.40305505,0.21504878
186,1778414751980,0.6615765555555555,-0.1541113022222222,1.446076877777778,0.9462193666666666,1.5185323888888889,0.2120149044444444
187,1778414751990,0.6711977,-0.14205098,1.4206011,0.9768975,1.5671287,0.21608722
188,1778414752000,0.6817166,-0.14031307,1.3952034,0.9695673,1.6648642,0.22952586
189,1778414752010,0.7013925333333333,-0.1269247533333333,1.3760693999999998,0.9090255488888888,1.784183088888889,0.2463580844444444
190,1778414752020,0.71493808,-0.110408884,1.395496,0.8508797109999999,1.96961594,0.272468402
191,1778414752030,0.7059456666666667,-0.0975463413333333,1.3977239,0.82710416,2.1563248,0.2921716222222222
192,1778414752040,0.69522962,-0.0915785152,1.3997403,0.8152672620000001,2.29599166,0.29635254
193,1778414752050,0.6926929,-0.08396832,1.3993499,0.8058602,2.430256,0.2997733
194,1778414752060,0.69701022,-0.0672356312,1.33980073,0.77238578,2.7189423,0.29720774
195,1778414752070,0.7198218277777778,-0.0473503234444444,1.2648637777777776,0.7134865333333333,2.842781411111111,0.2629867111111111
196,1778414752080,0.7137184700000001,-0.0573021218,1.24718256,0.64820054,2.9108094099999997,0.213888168
197,1778414752090,0.6860156133333333,-0.079232262,1.2581426,0.6074027333333334,2.9637290666666667,0.1715632455555555
198,1778414752100,0.66778284,-0.084456146,1.2739158,0.6097783,3.0007873,0.16111097
199,1778414752110,0.5932765044444444,-0.1097421795555555,1.3002283444444445,0.63909894,3.0905817,0.1861557
200,1778414752120,0.56889908,-0.11260413,1.28025762,0.661822458,3.15783597,0.214926606
201,1778414752130,0.5828694111111111,-0.0901068855555555,1.2205522111111111,0.7178303733333333,3.340282511111111,0.2812442533333333
202,1778414752140,0.5824628466666667,-0.071091551,1.1743367999999998,0.7156584933333333,3.388268,0.2686200733333333
203,1778414752150,0.578283723,-0.0564972009,1.16270204,0.7078193,3.4208057000000003,0.237650121
204,1778414752160,0.5853898322222222,-0.0363740715555555,1.1830975333333331,0.7534631,3.4205748666666667,0.1599571466666666
205,1778414752170,0.5548616479999999,-0.030715204,1.22647408,0.84538204,3.39221803,0.091230036
206,1778414752180,0.4945275022222222,-0.0348563697777777,1.2218667111111112,1.0816238333333332,3.4503368111111112,0.0039874755555555
207,1778414752190,0.435952277,-0.0446916322999999,1.16810473,1.27572394,3.5650421000000003,-0.047615542
208,1778414752200,0.38468707,-0.049301658,1.1147907,1.3780205,3.674560155555555,-0.0657848522222222
209,1778414752210,0.3774457969999999,-0.0430543413,0.991286473,1.42874116,3.79398754,-0.081456479
210,1778414752220,0.3805032388888889,-0.0027372872222222,0.7811634611111111,1.3867760333333332,3.773517488888889,-0.1398331222222222
211,1778414752230,0.313981748,0.0005853998,0.722331752,1.24915213,3.5864217499999995,-0.232091421
212,1778414752240,0.2400546533333333,-0.0110575561666666,0.7043906600000001,1.0915331333333331,3.4785205666666665,-0.2353289133333333
213,1778414752250,0.1746883755555555,-0.014526593,0.7117894666666666,0.9181204,3.4044214222222227,-0.2069584544444444
214,1778414752260,0.123525496,-0.0165863332,0.69561376,0.70018366,3.3778631700000004,-0.1016755239999999
215,1778414752270,0.1899399433333333,0.0218813576666666,0.6647745333333334,0.4732878444444444,3.2975231444444444,-0.0329348499999999
216,1778414752280,0.31732949,0.096097068,0.65180628,0.2484621199999999,3.14036575,-0.0893364125
217,1778414752290,0.3662307188888889,0.1430672877777777,0.6441398833333333,0.1445841577777777,2.954634255555556,-0.2260304533333333
218,1778414752300,0.35322183,0.15229547,0.66354483,0.1082726799999999,2.8328042,-0.30985227
219,1778414752310,0.1725405519999999,0.1007071,0.84430739,0.1215755711111111,2.6643460666666665,-0.6333298411111111
220,1778414752320,0.0916577896,0.0267515588,0.936585182,0.1188403319999999,2.77367411,-0.737628605
221,1778414752330,0.0862042144444444,-0.0129817867777777,1.0179287333333331,0.1092907533333333,3.1467797333333336,-0.7360200333333333
222,1778414752340,0.135004827,0.01536675,1.05539996,0.214804436,3.4213784699999996,-0.73268072
223,1778414752350,0.08768804,0.0102445,1.0967407,0.36788276,3.6459181,-0.7343911
224,1778414752360,0.0308463136,-0.012299498,1.0263312299999998,0.667747696,3.88543147,-0.7309092859999999
225,1778414752370,-0.0296155499999999,-0.0470251013333333,0.8790553666666666,1.0831849333333334,4.081248866666666,-0.75902863
226,1778414752380,-0.0276642153333333,-0.0401886595555555,0.7507416244444445,1.2725476,4.1089406,-0.78753483
227,1778414752390,-0.0221354385,-0.01158604225,0.5220121449999999,1.81933218,3.7674769,-0.979829576
228,1778414752400,-0.0276100126666666,-0.0143097783888888,0.3956328455555555,1.914217133333333,3.693496511111111,-1.0872572555555555
229,1778414752410,-0.0568966125,-0.01614728424,0.215250368,1.8382685,3.65752438,-1.1580747800000002
230,1778414752420,-0.15316951,0.0019513332866666,0.1267248733333333,1.6604440333333337,3.6094710111111112,-1.2413943444444446
231,1778414752430,-0.264070296,-0.0154704146719999,0.07988881,1.47382172,3.5354617000000004,-1.25971974
232,1778414752440,-0.4466825666666667,-0.0855808733333333,0.06158896,1.1422334666666665,3.470732333333333,-1.1371430666666666
233,1778414752450,-0.47300017,-0.088587485,0.0279284574999999,0.92314296,3.4938936,-0.964069692
234,1778414752460,-0.4638075777777778,-0.0785716577777777,0.0143910820444444,0.65844245,3.584833533333333,-0.7767431866666666
235,1778414752470,-0.41237164,-0.061497495,0.0024391667,0.2353289049999999,3.7277718,-0.5914528499999999
236,1778414752480,-0.4122022288888889,-0.0089469996666666,-0.0878709843666666,-0.0800718933333333,3.7436537666666663,-0.4876088199999999
237,1778414752490,-0.3966085,0.00500029165,0.0145130419999999,-0.343143448,3.75635934,-0.438252368
238,1778414752500,-0.4406083677777778,-0.0127785235,0.0848287938888888,-0.4697245555555555,3.7184054,-0.4113207811111111
239,1778414752510,-0.4850859022222222,-0.0336367868888888,0.1550361377777777,-0.5204248488888888,3.663632855555556,-0.3655751044444444
240,1778414752520,-0.4473004879999999,-0.0594485916,0.231940356,-0.52151084,3.6489725,-0.29824618
241,1778414752530,-0.3976925811111111,-0.0109355966666666,0.2255653266666666,-0.3725998566666667,3.6634970888888887,-0.3239017666666666
242,1778414752540,-0.34925209,0.0500151148,0.207664552,-0.077119465,3.62453865,-0.42438614
243,1778414752550,-0.32084188,0.08515741,0.20620105,0.06734591,3.6086566,-0.48821968
244,1778414752560,-0.293889092,0.0853281514,0.0841268614,0.42847881,3.7629566,-0.779838152
245,1778414752570,-0.3380075133333333,0.022135438,-0.0076630486666666,0.7769468266666667,3.939532166666667,-1.0915330666666665
246,1778414752580,-0.4392939,-0.0880417199999999,-0.1886085599999999,1.15221065,4.22530675,-1.41796735
247,1778414752590,-0.5320432355555557,-0.2209918911111111,-0.4095428511111111,1.4364836666666667,4.451218433333334,-1.656236
248,1778414752600,-0.664554052,-0.380125841,-0.782353565,1.70058348,4.418395739999999,-1.83264864
249,1778414752610,-0.7974551,-0.45734373,-1.064056,1.8981315,4.2567654,-1.9378365
250,1778414752620,-1.0616991800000002,-0.633649743,-1.20756133,2.1273826500000004,3.85818762,-1.97577015
251,1778414752630,-1.5703558333333334,-0.7552371666666667,-1.4483568333333332,2.8274337444444444,2.5548686444444444,-1.7885183666666664
252,1778414752640,-1.7809728500000002,-0.7667825500000001,-1.59022995,3.16234094,1.7778708799999996,-1.46598766
253,1778414752650,-1.847364,-0.7692217,-1.67711,3.3250706,1.2794195,-1.1796988
254,1778414752660,-1.7277776500000002,-0.7333080080000001,-1.86200809,3.15708776,0.572608216,-0.662555498
255,1778414752670,-1.5689838333333332,-0.6309412933333333,-1.9345641,2.641532688888889,-0.0823031822222222,-0.1578870522222222
256,1778414752680,-1.4248831888888889,-0.4879790266666666,-1.8561583666666668,1.820206,-0.4822723888888889,0.2011554
257,1778414752690,-1.2804406,-0.33386096,-1.6910132,0.414918,-0.8238039,0.5801522
258,1778414752700,-1.162324,-0.2406237999999999,-1.3940142,-0.60702944,-0.94658417,0.81471753
259,1778414752710,-1.0611808,-0.172979613,-1.002811623,-1.45337364,-0.971506707,1.02271105
260,1778414752720,-0.9837565666666666,-0.1548972533333333,-0.6764215866666666,-2.0059460111111114,-0.9167205522222224,1.1871477222222222
261,1778414752730,-0.8807983500000001,-0.15644206,-0.4197653600000001,-2.3023291,-0.8185505880000001,1.2752506
262,1778414752740,-0.7543428,-0.1380568413333333,-0.2172992766666666,-2.403404,-0.74419012,1.2871570333333335
263,1778414752750,-0.64225088,-0.0688698716,-0.076303234,-2.2793612800000003,-0.741095144,1.18489098
264,1778414752760,-0.6284411444444444,-0.0231449812222222,0.0212512399999999,-2.0985913000000003,-0.7716782222222222,1.060549651111111
265,1778414752770,-0.70171473,-0.006463792,0.10163093,-1.46589595,-0.91885171,0.7200362200000001
266,1778414752780,-0.7623141333333333,-0.0100005838888888,0.1029057288888888,-1.1678636,-0.9923977000000002,0.60458606
267,1778414752790,-0.8578701750000001,-0.0141471674999999,0.0124397474999999,-0.3144336159999999,-1.201674,0.376740032
268,1778414752800,-0.9098532611111112,-0.0137948427777777,-0.1248209638888888,0.1990852977777777,-1.423452311111111,0.2766968311111111
269,1778414752810,-0.9183090111111112,-0.0103258055222222,-0.2297627177777778,0.5292821733333333,-1.6365107666666665,0.2201595322222222
270,1778414752820,-0.89805846,0.00160985018,-0.330885156,0.8323099389999999,-1.98723888,0.154086224
271,1778414752830,-0.8753966,-0.010813639,-0.3529677333333333,0.9642733166666666,-2.2264534111111107,0.10362345
272,1778414752840,-0.8630991299999999,-0.035992956,-0.370341715,0.97701966,-2.32644228,0.0779135676
273,1778414752850,-0.8836863877777779,-0.0768811811111111,-0.3999928577777777,0.90122028,-2.3953866666666666,0.0945964899999999
274,1778414752860,-0.9047906,-0.10323773,-0.409164132,0.810869192,-2.4258883,0.1460841279999999
275,1778414752870,-0.9309486333333332,-0.1355262,-0.39470799,0.7053419511111111,-2.4695705666666665,0.2373311266666666
276,1778414752880,-0.94267695,-0.14802693,-0.369747175,0.555412876,-2.56259586,0.4149791019999999
277,1778414752890,-0.9067669644444444,-0.1340965777777777,-0.3798561711111111,0.4185152111111111,-2.696534322222222,0.6072331066666666
278,1778414752900,-0.841085642,-0.1126041343999999,-0.4017978239999999,0.312906502,-2.8481059600000003,0.737262108
279,1778414752910,-0.8062361,-0.096651986,-0.39974892,0.26342788,-2.9349685,0.78417516
280,1778414752920,-0.714678861,-0.0722786065,-0.367420811,0.15286453,-3.1420455,0.8379296999999999
281,1778414752930,-0.6611124166666666,-0.0892904411111111,-0.3140901411111111,0.077933932,-3.2326545666666666,0.8338574
282,1778414752940,-0.6312834444444444,-0.1168225355555555,-0.2475788188888888,-0.1197769626666666,-3.4505235333333335,0.8371152666666667
283,1778414752950,-0.61686525,-0.16205215,-0.1277666049999999,-0.23086972,-3.53958498,0.8947385000000001
284,1778414752960,-0.6100356,-0.16741832,-0.10835998,-0.2365166711111111,-3.5606795222222223,0.9499862555555556
285,1778414752970,-0.58641526,-0.14816413,-0.0409505621,-0.203503772,-3.6074501,1.0945466700000002
286,1778414752980,-0.5631730888888888,-0.1402588599999999,0.0011653794444444,-0.1196412222222222,-3.649116688888888,1.2519823333333333
287,1778414752990,-0.53252497,-0.13694701,0.00809803332,-0.0212269419999999,-3.693152,1.41647844
288,1778414753000,-0.5055511622222222,-0.1313152466666666,0.0094314443444444,0.0490883644444444,-3.7299522444444446,1.528535
289,1778414753010,-0.480110363,-0.126019551,0.0285656904,0.101125763,-3.78196915,1.6949636900000002
290,1778414753020,-0.45944756,-0.13128816,0.0573509069999999,0.1251727811111111,-3.787643233333333,1.8919891
291,1778414753030,-0.405480964,-0.127970874,0.07471777,0.1236660243999999,-3.7764716,2.07338358
292,1778414753040,-0.31207782,-0.1074520677777777,0.0908623455555555,0.1170960255555555,-3.789950955555556,2.2231361888888888
293,1778414753050,-0.13862393792,-0.041874394,0.114360331,0.1110825734999999,-3.82246846,2.32841231
294,1778414753060,-0.0033233648,0.020489,0.13250773,0.103385895,-3.8579586,2.346799
295,1778414753070,-0.0033233648,0.020489,0.13250773,0.108028334,-3.88214816,2.32541932
296,1778414753080,0.1812504033333333,0.1993815533333333,0.17334345,0.1121413724444444,-4.100668544444444,2.123975344444444
297,1778414753090,0.3012878999999999,0.2876217844444444,0.2190100777777778,-0.0299145477777777,-4.348400888888889,1.8245243666666664
298,1778414753100,0.364807875,0.2550301199999999,0.14923127,-0.254570595,-4.51954425,1.7072417000000002
299,1778414753110,0.4125918444444444,0.1705045277777778,0.1183605622222222,-0.5931835866666666,-4.758423799999999,1.6589847999999998
300,1778414753120,0.4688383619999999,0.129995385,0.21497291,-1.060041414,-5.02682992,1.65037191
301,1778414753130,0.5473896733333333,0.15634042,0.5616181333333333,-1.8480759666666668,-5.0354768000000005,1.6082844777777778
302,1778414753140,0.52857962,0.171711236,0.842244268,-2.2181543699999997,-4.43349109,1.41782225
303,1778414753150,0.4656877577777777,0.1190685955555555,0.8688548833333334,-2.297388055555556,-3.9517575,1.2648185666666667
304,1778414753160,0.4296958079999999,0.066375822,0.79251572,-2.3105145200000003,-3.79766792,1.21366187
305,1778414753170,0.4466724,0.04735032,0.70991945,-2.3070939,-3.866510400000001,1.2337588
306,1778414753180,0.6177677380000001,0.0518627823,0.5068649319999999,-2.4433126,-4.2440143,1.3211863
307,1778414753190,0.7749808555555555,0.0248490117777777,0.5415458200000001,-2.8713808000000003,-4.576526866666666,1.3592623555555556
308,1778414753200,1.0201876,-0.032837282,0.7066143520000001,-3.51285277,-4.735761309999999,1.26766835
309,1778414753210,1.043628,-0.06466841,0.84071976,-3.864219700000001,-4.6637425,1.1103677
310,1778414753220,0.92584671,-0.131437546,1.22913571,-4.2731818,-4.137054539999999,0.7536939229999999
311,1778414753230,0.8212166666666667,-0.1731909966666666,1.3843084,-4.2360218666666665,-3.5826701666666665,0.4868961733333333
312,1778414753240,0.8323564900000001,-0.196371202,1.35421311,-4.0769701,-3.2565795,0.275033966
313,1778414753250,1.0407721333333333,-0.2067803533333333,1.1719891,-3.675188066666667,-3.3153225333333336,-0.1913479
314,1778414753260,1.0961006,-0.2376968,1.2029055,-3.506187,-3.6142306,-0.40392274
315,1778414753270,1.0216175,-0.3135457339999999,1.3881633,-3.14615345,-4.09759386,-0.655103155
316,1778414753280,0.9991234,-0.3562301266666666,1.5278025,-2.652426033333333,-4.4154585,-0.85147019
317,1778414753290,0.988612586,-0.377845208,1.7100753400000002,-2.2408778,-4.48297748,-0.9605268
318,1778414753300,0.917719507777778,-0.3807505377777778,1.9063849222222224,-1.7099566,-4.279035888888888,-1.0633663333333334
319,1778414753310,0.819352686,-0.409273888,2.0030376199999997,-1.2374773099999998,-3.96021432,-1.11201692
320,1778414753320,0.74540937,-0.4451479299999999,2.018258,-0.8397623,-3.6343884000000006,-1.1051754
321,1778414753330,0.6900098,-0.45295325,1.9445646,-0.26678753,-3.160982,-1.0404255
322,1778414753340,0.70945198,-0.4470077666666667,1.7158013666666667,0.4045335944444444,-2.8185679666666665,-0.8844559444444445
323,1778414753350,0.76541054,-0.4185305,1.5667683,0.84788654,-2.7419406200000003,-0.7814263699999999
324,1778414753360,0.76541054,-0.4185305,1.5667683,0.9952229,-2.7822566,-0.7704311
325,1778414753370,0.9142423,-0.36596648,1.22754112,1.032118037,-2.98621839,-0.756870305
326,1778414753380,0.9135051444444444,-0.3883119466666666,1.249886577777778,0.8746144833333332,-3.161389011111111,-0.6726276722222222
327,1778414753390,0.92856025,-0.36912213,1.4131465,0.495061172,-3.13117244,-0.47307066
328,1778414753400,0.9344277844444444,-0.3509351,1.5179340555555556,0.3705976533333333,-3.0009398111111114,-0.4004612977777777
329,1778414753410,0.954537418,-0.3386417,1.6501389,0.1230551783999999,-2.51983656,-0.219813398
330,1778414753420,0.95258605,-0.3363001,1.7659261,-0.035276428,-2.081004,-0.07711947
331,1778414753430,0.951909167,-0.307853334,1.86862435,-0.131607041,-1.497812755,0.0630699798999999
332,1778414753440,0.9815071333333332,-0.2601540655555555,1.9330836666666669,-0.1761106577777777,-0.70278827,0.2063136644444444
333,1778414753450,0.9832688,-0.2342819633333333,1.9414649,-0.0829225146666666,-0.3131355853333333,0.23339456
334,1778414753460,0.971642115,-0.195605925,1.8815884,0.1379598536,0.1249640744,0.2342904679999999
335,1778414753470,0.9535515944444444,-0.1743292688888889,1.8333183444444443,0.3105988611111111,0.2960827555555556,0.1932822544444444
336,1778414753480,0.91635527,-0.163881508,1.80951416,0.41882742,0.416887975,0.149627034
337,1778414753490,0.8387142,-0.1611035722222222,1.7744767888888888,0.5330151444444444,0.6441299444444444,0.11427934
338,1778414753500,0.769270464,-0.1542955859999999,1.72139312,0.59352975,0.8377846699999999,0.1181073179999999
339,1778414753510,0.736232,-0.13558718,1.6415083333333331,0.6481937777777778,1.178154688888889,0.1559526988888888
340,1778414753520,0.74379953,-0.122751064,1.5915501200000002,0.653576014,1.29328582,0.170273672
341,1778414753530,0.7731955155555555,-0.1037526711111111,1.5122901444444443,0.6365877,1.4522893444444445,0.1866986777777778
342,1778414753540,0.795979346,-0.0910419,1.48751358,0.58571092,1.60695586,0.184445328
343,1778414753550,0.79579506,-0.0907166777777777,1.4996335333333333,0.5588743466666667,1.7371477666666668,0.18187977
344,1778414753560,0.7953451599999999,-0.090212583,1.50897824,0.553335992,1.83467972,0.182124108
345,1778414753570,0.79300356,-0.089822315,1.5062464,0.5523586,1.8664438,0.18310146
346,1778414753580,0.7827286,-0.0864074772,1.4866356,0.5590779539999999,2.1807858,0.202770749
347,1778414753590,0.7839481222222222,-0.0854318131111111,1.490148,0.5738061555555556,2.3086971777777783,0.2035309111111111
348,1778414753600,0.7858995,-0.09323715,1.490148,0.6036698,2.469961,0.20081604
349,1778414753610,0.8075471200000001,-0.1057582,1.4464564,0.6671300666666666,2.6479211777777776,0.1974903133333333
350,1778414753620,0.82739586,-0.11153089,1.4086188,0.727061,2.8083704,0.19470756
351,1778414753630,0.866355448,-0.106945268,1.3590487800000002,0.786190954,2.9032960599999997,0.1695406599999999
352,1778414753640,0.8544672222222222,-0.1131028133333333,1.3308059666666667,0.8107470133333332,2.974317133333334,0.1348445399999999
353,1778414753650,0.8244688,-0.12714157,1.3044358,0.8168555,3.0264428,0.11529742
354,1778414753660,0.7965640777777777,-0.1263556166666666,1.3219165333333334,0.7869239888888888,3.1357165555555557,0.1111572338888889
355,1778414753670,0.759605306,-0.131385718,1.33458392,0.74599724,3.2743245200000004,0.11554176
356,1778414753680,0.7403887677777778,-0.1351366166666666,1.3375543555555556,0.7075817088888888,3.3856972000000005,0.1480795588888889
357,1778414753690,0.7325885000000001,-0.11201873,1.369211,0.656508075,3.7051704,0.2677038049999999
358,1778414753700,0.749041,-0.0856858944444444,1.3906773555555556,0.6882382055555555,3.9271115111111112,0.3161983
359,1778414753710,0.7594345600000001,-0.0754007419999999,1.40083783,0.7506396399999999,4.0852394,0.31394496
360,1778414753720,0.74466741,-0.0771183266666666,1.391941,0.9523956555555556,4.3488676222222225,0.2397745222222222
361,1778414753730,0.72025543,-0.08396832,1.3580976,1.0535587400000002,4.43458296,0.205641732
362,1778414753740,0.6773125722222223,-0.1001210222222222,1.3142874222222225,1.3175466666666666,4.477281333333334,0.1771966133333333
363,1778414753750,0.57017964,-0.120897296,1.24867646,1.54537492,4.4585896,0.191958754
364,1778414753760,0.5286894,-0.1140242648888889,1.1710608333333332,1.8319564,4.493570666666667,0.1896171733333333
365,1778414753770,0.5190106488888888,-0.1035629514444444,1.072857327777778,2.0546440333333336,4.530696644444444,0.150726567
366,1778414753780,0.489333428,-0.09226148,0.97427638,2.2314098099999997,4.52230094,0.0145687071
367,1778414753790,0.4224433444444445,-0.08238286,0.8166601177777778,2.2945713333333333,4.4768742,-0.10440398
368,1778414753800,0.362246735,-0.049789492,0.62181982,2.2295161,4.2537112,-0.2417428
369,1778414753810,0.3092863411111111,-0.0142183095555555,0.5447235111111112,2.0846434666666664,4.003263899999999,-0.3259379133333333
370,1778414753820,0.273863548,0.0074638501999999,0.5494771700000001,1.91242528,3.77505136,-0.397692112
371,1778414753830,0.2404171488888889,0.0250150094444444,0.5518038766666666,1.7124339333333334,3.5540621666666667,-0.4753918733333332
372,1778414753840,0.2042314289999999,0.028440683,0.6000075490000001,1.5826594,3.4329005800000005,-0.5308567799999999
373,1778414753850,0.1265148344444444,0.0211394445555555,0.6677591222222223,1.5043979777777778,3.3781550333333334,-0.5744169822222223
374,1778414753860,0.0528445497999999,0.0047319836,0.69084518,1.49898863,3.4146361900000004,-0.58662716
375,1778414753870,-0.009665198,-0.011951917,0.7079681,1.5156648,3.489465,-0.58106846
376,1778414753880,-0.0837426916,-0.0287791181,0.666392507,1.5647081699999998,3.60136464,-0.5438067679999999
377,1778414753890,-0.07989287,0.0078154966666666,0.4624558366666667,1.6562359666666666,3.6275249333333335,-0.4817039711111111
378,1778414753900,-0.04224026648,0.0842549144,0.345623822,1.66417696,3.32274952,-0.52902426
379,1778414753910,0.008276228,0.1762128555555555,0.2648698044444444,1.6175489666666667,2.9138432,-0.6796184799999999
380,1778414753920,0.0074055812222222,0.2041955222222222,0.2597882055555555,1.5490577444444444,2.669843577777778,-0.8452259888888889
381,1778414753930,-0.0713608675,0.190126941,0.312414571,1.4114542,2.5727665600000003,-1.0446405
382,1778414753940,-0.15381995,0.1449678013333333,0.2825164866666666,1.2246978333333334,2.624708766666666,-1.1632058666666667
383,1778414753950,-0.3115578149999999,0.097612402,0.28381228,0.9515473,2.68253575,-1.1219737
384,1778414753960,-0.3845888311111111,0.0742895622222222,0.3171086022222222,0.7449112555555556,2.754751466666667,-0.9762187377777778
385,1778414753970,-0.38160762,0.07320549,0.30870703,0.6580352,2.8022618,-0.8822161600000001
386,1778414753980,-0.3656920577777777,0.11776432,0.3045062466666666,0.5049161844444445,2.835858366666667,-0.7148440088888889
387,1778414753990,-0.327150182,0.141663752,0.303487222,0.344853824,2.9251642799999997,-0.625599212
388,1778414754000,-0.2866427288888888,0.1534066488888888,0.2758256988888889,0.2231798422222222,2.9893846777777777,-0.6395740311111111
389,1778414754010,-0.321579744,0.1434596,0.258234572,0.072721364,3.0370714399999996,-0.701771888
390,1778414754020,-0.4133303555555556,0.1099589911111111,0.2706933222222222,0.05567194,2.981850888888889,-0.6912924444444445
391,1778414754030,-0.4455747866666666,0.09854911,0.2733120444444444,0.0773909533333333,2.939566644444444,-0.6600713833333334
392,1778414754040,-0.473088562,0.095408008,0.27718995,0.140036736,2.88191634,-0.6219952259999999
393,1778414754050,-0.5117845844444444,0.0953239922222222,0.2320731533333333,0.23919761,2.775180933333333,-0.5965432533333332
394,1778414754060,-0.5187497839999999,0.110652802,0.19459062,0.324146106,2.60495812,-0.5847335279999999
395,1778414754070,-0.5201319888888889,0.1232660011111111,0.1877413044444444,0.35200074,2.5188286,-0.57740337
396,1778414754080,-0.506944184,0.144487086,0.136480523,0.378328256,2.40582202,-0.60171511
397,1778414754090,-0.5010522533333334,0.1806169166666666,0.0823997966666666,0.3743984822222221,2.259354422222222,-0.6515195333333332
398,1778414754100,-0.511310325,0.18607793,0.130678355,0.322069225,2.20784631,-0.73164232
399,1778414754110,-0.521924088888889,0.1711041644444444,0.1456521255555555,0.27231911,2.285077744444445,-0.7965618222222223
400,1778414754120,-0.5937999,0.1559542199999999,0.154597435,0.229037182,2.40777662,-0.8171609440000001
401,1778414754130,-0.6223398333333334,0.1594503577777777,0.1655415013333333,0.1949451155555555,2.617582266666667,-0.7736210911111111
402,1778414754140,-0.6461149233333333,0.1599381988888888,0.0832975468888889,0.1966419133333333,2.7554302,-0.7441646566666666
403,1778414754150,-0.707059582,0.184651024,-0.102219378,0.150543304,2.68058108,-0.690165782
404,1778414754160,-0.7348193066666666,0.20972769,-0.20029624,0.039450551,2.4791236666666667,-0.64235681
405,1778414754170,-0.73860408,0.209000006,-0.197987164,-0.1363105642,2.3058874,-0.661822474
406,1778414754180,-0.7550136,0.20034707,-0.20208496,-0.25029466,2.24578,-0.69041014
407,1778414754190,-0.79045772,0.194736975,-0.215350984,-0.3722197829999999,2.19196424,-0.689310606
408,1778414754200,-0.8566861466666666,0.1736788333333333,-0.1261862333333333,-0.5492704577777778,2.149469688888889,-0.6350266222222222
409,1778414754210,-0.903131988,0.136651259,-0.12907766,-0.623339068,2.2355788,-0.5367820379999999
410,1778414754220,-0.9253284000000002,0.11323831,-0.16205214,-0.64429116,2.3001454,-0.4705051
411,1778414754230,-0.932209914,0.0547867335,-0.2521610589999999,-0.639343266,2.3881074399999997,-0.38309287
412,1778414754240,-0.92838751,0.02561125,-0.3030766533333333,-0.6086583755555556,2.4532644666666665,-0.3357793466666667
413,1778414754250,-0.93631686,0.0063906168,-0.341617508,-0.5224271189999999,2.54924891,-0.3341029
414,1778414754260,-0.9510243166666668,-0.0178194661111111,-0.38012382,-0.3183701944444445,2.7500682777777774,-0.3943528111111111
415,1778414754270,-0.9357375,-0.050862722,-0.547995384,-0.041262734,2.79468728,-0.4887083399999999
416,1778414754280,-0.9209379,-0.080279075,-0.73775643,0.19623469,2.7063587,-0.56457555
417,1778414754290,-0.9589685555555556,-0.0991995588888889,-0.8357669222222222,0.5221556122222223,2.5064081333333332,-0.7051383277777779
418,1778414754300,-1.10294852,-0.1514295699999999,-0.97552335,0.95686172,2.1823740000000003,-0.86511242
419,1778414754310,-1.3048322,-0.2307959933333333,-1.1387250333333332,1.2393582444444444,1.8405846555555552,-0.9147267888888888
420,1778414754320,-1.43118712,-0.287763746,-1.25949428,1.39703824,1.20487336,-0.797369448
421,1778414754330,-1.5061854,-0.3333731,-1.3544693,1.4423631,0.4864634999999999,-0.61222166
422,1778414754340,-1.46551847,-0.334763429,-1.33616948,1.24499837,-0.2493020399999999,-0.352855914
423,1778414754350,-1.345925388888889,-0.2962029277777778,-1.1741403,0.7914034888888888,-0.8308625666666667,-0.0213287511111111
424,1778414754360,-1.273123,-0.2713878,-1.0701538,0.5144861,-1.0198859,0.15072656
425,1778414754370,-1.1545592444444446,-0.2178785688888889,-0.9040940333333334,0.0042250213333333,-1.0571475333333331,0.3964907733333333
426,1778414754380,-1.06321755,-0.157036605,-0.7290974,-0.5926134839999999,-1.06826496,0.6473453960000001
427,1778414754390,-1.009581251111111,-0.1202576926666666,-0.6146564511111111,-0.8495358333333334,-1.0644777666666667,0.72268325
428,1778414754400,-0.96601166,-0.0949343993333333,-0.5038810200000001,-1.0330615111111112,-1.074862166666667,0.7413479777777777
429,1778414754410,-0.930423239,-0.0681808061,-0.367801957,-1.07524392,-1.09080524,0.7286491419999999
430,1778414754420,-0.9221845788888888,-0.0493829621111111,-0.2891936988888889,-1.0309574555555556,-1.1171463222222222,0.7032039911111111
431,1778414754430,-0.9197183,-0.038569324,-0.25504535,-0.9332219,-1.1671001,0.680942
432,1778414754440,-0.9017226544444444,-0.0080763524444444,-0.2034942611111111,-0.62155404,-1.3246986444444446,0.6381147500000001
433,1778414754450,-0.8765847040000001,0.0278156479,-0.195791905,-0.359147648,-1.41937992,0.6032422
434,1778414754460,-0.87027098,0.0616058996666666,-0.2066380777777777,-0.09059204,-1.484536977777778,0.5489989555555556
435,1778414754470,-0.87717922,0.071741991,-0.245904596,0.195623838,-1.5709922200000002,0.491579318
436,1778414754480,-0.8836186,0.07101024,-0.28236404,0.32206923,-1.6289005,0.46958882
437,1778414754490,-0.8742339040000001,0.06925404,-0.3044811799999999,0.369348792,-1.66591786,0.463358192
438,1778414754500,-0.82742636,0.0807736866666666,-0.3637542977777778,0.4569985866666666,-1.7944486777777775,0.4342275566666667
439,1778414754510,-0.8170632266666666,0.0866920522222222,-0.3932716055555555,0.4832650388888889,-1.9604634333333333,0.3614010022222222
440,1778414754520,-0.8295605800000001,0.069668703,-0.40706644,0.467573042,-2.05779174,0.3259175639999999
441,1778414754530,-0.8330974,0.060521826,-0.41218868,0.4485146,-2.1292608,0.3101577
442,1778414754540,-0.8460493550000001,0.0388833675,-0.419463529,0.4119248599999999,-2.23420442,0.306736949
443,1778414754550,-0.8626214466666666,0.0039026666666666,-0.4270167933333333,0.3577019833333333,-2.378079233333333,0.3470121533333333
444,1778414754560,-0.89057025,-0.032212245,-0.41878968,0.301422586,-2.51775962,0.457860556
445,1778414754570,-0.90337586,-0.04539899,-0.41170084,0.26403874,-2.6020565,0.5520532
446,1778414754580,-0.91640098,-0.0910419,-0.4177317,0.186033527,-2.71280327,0.746608051
447,1778414754590,-0.8981926555555556,-0.1078992511111111,-0.4175514688888889,0.0662599604444444,-2.8939058444444448,1.0137858722222224
448,1778414754600,-0.84514688,-0.1036767811999999,-0.3959926079999999,0.006872032,-2.9832253,1.1311364
449,1778414754610,-0.7888468333333334,-0.095757624,-0.33151324,-0.1163154999999999,-3.1229058,1.3635383333333333
450,1778414754620,-0.70716322,-0.0926029664,-0.273387912,-0.2072910079999999,-3.17747484,1.5406026000000002
451,1778414754630,-0.6254125233333334,-0.0798115693333333,-0.2805753066666667,-0.2722851533333333,-3.244464433333333,1.6540980333333333
452,1778414754640,-0.5562885399999999,-0.0515883777999999,-0.282412806,-0.3196869,-3.34729032,1.72458976
453,1778414754650,-0.4889106333333333,-0.0198385566666666,-0.2353592633333333,-0.33438796,-3.4849345,1.7628288
454,1778414754660,-0.4489692733333333,-0.0017074166666666,-0.2069633,-0.3211529399999999,-3.619728133333333,1.7958145666666665
455,1778414754670,-0.385510276,0.0154643167999999,-0.214085656,-0.3209696999999999,-3.75161001,1.82996094
456,1778414754680,-0.37152574,0.0105968243888888,-0.17781186,-0.3809481177777777,-3.8565333,1.877600188888889
457,1778414754690,-0.3679483,0.0065857503,-0.15839338,-0.42438614,-3.8952203,1.9088213
458,1778414754700,-0.3534996088888888,-0.0173485734111111,-0.1402080444444444,-0.558704631111111,-3.9704223333333335,2.01124
459,1778414754710,-0.305023892,-0.0370570395999999,-0.12916608,-0.723090448,-4.0415792,2.1503504
460,1778414754720,-0.1060834272222222,-0.0277116437777777,-0.0645735511111111,-1.028785573333333,-4.147567888888889,2.383313944444444
461,1778414754730,-0.0178939988888888,-0.0089131224444444,-0.0389724644444444,-1.1141090444444446,-4.163449777777778,2.4160282555555557
462,1778414754740,0.202862439,0.071745037,0.0261966505,-1.310191,-4.16888,2.4127703
463,1778414754750,0.3802356033333333,0.1551208433333333,0.0226842496666666,-1.4702330444444445,-4.200372311111112,2.307161588888889
464,1778414754760,0.5325249910000001,0.2017465189999999,0.0937097367,-1.71719856,-4.396382409999999,2.0650760700000004
465,1778414754770,0.7253370444444445,0.2372089511111111,0.3314454966666667,-2.005403,-4.753808577777779,1.6331256
466,1778414754780,0.7581438333333332,0.2280451433333333,0.4185135933333333,-2.065809,-4.8488293,1.4641246
467,1778414754790,0.70783704,0.171195963,0.60217235,-2.186146,-4.9148006,0.98697644
468,1778414754800,0.6553431,0.1437279,0.6230546,-2.2240186,-4.8805933,0.804944
469,1778414754810,0.6753839100000001,0.049496791,0.62083502,-2.45736215,-5.0559062,0.8446490499999999
470,1778414754820,0.7944467866666667,-0.03725827,0.6416837933333333,-2.7021761333333334,-5.2785260888888885,0.9960034111111112
471,1778414754830,1.033026772,-0.1013107849999999,0.82417003,-3.3200007,-5.55814504,1.2524812600000002
472,1778414754840,1.246902,-0.10079856,1.141408,-3.7022688000000006,-5.5592446,1.3364575
473,1778414754850,1.29992347,-0.0597199482,1.43178479,-3.97478324,-4.950581059999999,1.14726274
474,1778414754860,1.1667043333333331,-0.0651664,1.7010748666666666,-4.072519,-4.3044877,0.8990145
475,1778414754870,0.9838562199999998,-0.1101741089999999,1.7637340599999998,-3.94801306,-3.55717738,0.597011592
476,1778414754880,0.7583674222222222,-0.18073887,1.746114711111111,-3.5427019888888887,-2.859698522222222,0.2637333111111111
477,1778414754890,0.6800092,-0.21598822,1.6926901,-3.2001523999999995,-2.7052898,0.14400724
478,1778414754900,0.7189816244444445,-0.2054930266666666,1.5910006,-2.5367724,-2.8187037333333333,-0.021939597
479,1778414754910,0.70854745,-0.1775408399999999,1.5726374,-1.9543295,-2.9887229,-0.17180079
480,1778414754920,0.6733827888888889,-0.1672285944444444,1.4994201,-1.2749909222222222,-3.0928384,-0.3408697277777778
481,1778414754930,0.6475377666666666,-0.1620521433333333,1.3994414,-0.9212085533333334,-3.122023333333334,-0.4312072433333334
482,1778414754940,0.6332900450000001,-0.1490483239999999,1.32460165,-0.449797366,-3.17906298,-0.5670189539999999
483,1778414754950,0.6043916222222223,-0.1361122822222222,1.2118458,-0.1617896841111111,-3.2583780888888887,-0.6122216511111112
484,1778414754960,0.63465895,-0.125873196,1.13608456,0.0137135204,-3.39224868,-0.655225288
485,1778414754970,0.6607092666666667,-0.1247837033333333,1.1109692999999998,0.1287021215555555,-3.5551819888888887,-0.7089391577777778
486,1778414754980,0.6586725959999999,-0.1140188519999999,1.10742434,0.06294780948,-3.61447486,-0.67074082
487,1778414754990,0.6996580177777777,-0.0952697866666666,1.1141402222222223,-0.0780357362777777,-3.5744575000000003,-0.5748921222222223
488,1778414755000,0.7173284,-0.0910419,1.1099124,-0.17271706,-3.5262684999999996,-0.5114319
489,1778414755010,0.80276024,-0.0617414039999999,1.1382371,-0.3518989355555555,-3.412243788888889,-0.3865475444444445
490,1778414755020,0.9929847111111112,0.0061250183333333,1.1918852666666666,-0.5972559,-3.1738095,-0.32145837
491,1778414755030,1.001223008,-0.0182083795999999,1.2497619800000002,-0.8565300199999999,-2.9653885,-0.360796934
492,1778414755040,0.9385506788888888,-0.0577032311111111,1.4112307222222222,-1.254943266666667,-2.6361962555555554,-0.4172935177777777
493,1778414755050,0.90450394,-0.06881499,1.527955,-1.32747797,-2.4403043099999997,-0.384192384
494,1778414755060,0.8493721111111111,-0.0985220077777777,1.6364368666666669,-1.2950555666666663,-2.2333084444444444,-0.33129982
495,1778414755070,0.81271206,-0.1201167659999999,1.7159416,-1.18721986,-2.00048661,-0.242353659
496,1778414755080,0.83724398,-0.09647921,1.7421546,-0.9199868833333332,-1.7239892,-0.14777413
497,1778414755090,0.865038324,-0.0679368908,1.7750792400000002,-0.736590155,-1.6109416800000005,-0.1550635739999999
498,1778414755100,0.8739873777777779,-0.0599526858888888,1.8066908,-0.5761477400000001,-1.523495466666667,-0.1968455311111111
499,1778414755110,0.8485312300000001,-0.0616438408,1.86040116,-0.293909164,-1.29721052,-0.265260436
500,1778414755120,0.8409738533333333,-0.0587331033333333,1.8679138,-0.13850962,-1.1451095,-0.28725094
501,1778414755130,0.8193364066666667,-0.0529604056666666,1.8419672,-0.0218377933333333,-0.9461769233333334,-0.29397025
502,1778414755140,0.732804944,-0.0745409307999999,1.7441505,0.249134056,-0.4342055099999999,-0.293237222
503,1778414755150,0.6947458000000001,-0.0888195422222222,1.6858232777777775,0.3126350233333333,-0.2249020977777777,-0.2544687922222222
504,1778414755160,0.6551967360000001,-0.108018498,1.58703158,0.328055508,-0.0493717292,-0.154330556
505,1778414755170,0.6563187833333334,-0.1136990444444444,1.515366166666667,0.2915947244444444,0.0714945838888889,-0.0547896046666666
506,1778414755180,0.6736002900000001,-0.108896592,1.48135474,0.2343515479999999,0.2107270279999999,0.0251363632
507,1778414755190,0.68781453,-0.10348164,1.4557252,0.19073705,0.3111503,0.06765133
508,1778414755200,0.7317195,-0.09274931,1.3983742,0.0305118178999999,0.532154869,0.106317964
509,1778414755210,0.7419945166666666,-0.1020181499999999,1.3768283666666667,-0.0851622913333333,0.6279764333333334,0.0992117766666666
510,1778414755220,0.724173325,-0.1207997349999999,1.4074144,-0.200083024,0.734589624,0.095383798
511,1778414755230,0.71659666,-0.1381855733333333,1.447269411111111,-0.2452042777777777,0.8487383111111111,0.1143472177777777
512,1778414755240,0.71903586,-0.14741714,1.4671893,-0.2557923,0.9025268,0.12629268
513,1778414755250,0.739896844,-0.155612738,1.5277142,-0.195562748,1.11913328,0.177237338
514,1778414755260,0.7466018377777778,-0.1656024911111111,1.5619170666666666,-0.0959539206666666,1.3130161666666664,0.2124221333333333
515,1778414755270,0.7748378619999999,-0.163661992,1.55827992,0.0353375107999999,1.51728358,0.228548496
516,1778414755280,0.7968249377777777,-0.1643557944444444,1.5281616,0.1925695899999999,1.7194332666666667,0.2272860866666666
517,1778414755290,0.79519886,-0.16815005,1.5055146,0.29152685,1.829793,0.22036316
518,1778414755300,0.7739239066666667,-0.1708060322222222,1.4610371444444443,0.4318859733333333,2.0052418999999997,0.2209061322222222
519,1778414755310,0.7534586400000001,-0.187126774,1.4032526399999998,0.49982578,2.1083393,0.2313584
520,1778414755320,0.7547594844444444,-0.1750068255555555,1.3457830666666668,0.5662723722222222,2.2503951777777775,0.28260171
521,1778414755330,0.76004434,-0.15888122,1.3129729,0.5771318833333333,2.3087650444444443,0.3105649366666667
522,1778414755340,0.7671179,-0.11250656,1.2224189,0.5676298,2.3233576,0.31565532
523,1778414755350,0.8202409688888889,-0.0781922333333333,1.3575825,0.5406167755555555,2.5286022,0.2780542755555555
524,1778414755360,0.823200498,-0.078019792,1.36171669,0.5551074380000001,2.7021438699999996,0.228915007
525,1778414755370,0.7645568044444445,-0.0958118244444444,1.3769638,0.58656608,2.8739345,0.19755818
526,1778414755380,0.736518576,-0.1027498992,1.36596992,0.6425197039999999,3.08129674,0.206924508
527,1778414755390,0.7323462666666667,-0.0971906268888888,1.3460372000000005,0.6769715,3.1809871,0.22524993
528,1778414755400,0.74362879,-0.0742787235,1.31960435,0.73573496,3.33754729,0.244247278
529,1778414755410,0.769259,-0.055751899,1.2645317,0.7698203,3.4381537,0.2392994199999999
530,1778414755420,0.751735955,-0.059790074,1.18727965,0.7576033200000001,3.6324795,0.165386895
531,1778414755430,0.6760929666666667,-0.0828673015555555,1.1737135,0.6985547266666666,3.7230885333333337,0.13932408
532,1778414755440,0.62241435,-0.098603316,1.173849,0.6464291,3.7919106,0.14583978
533,1778414755450,0.55972774,-0.1162141042,1.18875229,0.5869326,3.93509332,0.229037178
534,1778414755460,0.5273884777777779,-0.1067812977777777,1.2011099555555556,0.5725165999999999,4.0865428,0.3347952
535,1778414755470,0.5679782400000001,-0.061741408,1.1164615000000002,0.59841652,4.21596072,0.405816376
536,1778414755480,0.5747286333333333,-0.043366351,1.0721764,0.6046200333333334,4.304275888888889,0.4200423333333333
537,1778414755490,0.5599107,-0.031983573,1.0630498,0.5981722,4.323959,0.4085040999999999
538,1778414755500,0.55625194,-0.030520074,0.973502,0.5780142,4.3520575,0.33825666
539,1778414755510,0.578283766,-0.0032684836,0.93303612,0.5648199199999999,4.1984904499999995,0.269658518
540,1778414755520,0.57132399,0.03863369,1.0250902888888889,0.5900275333333334,3.984531066666667,0.1460433966666666
541,1778414755530,0.530402908,0.0433866776,1.09161244,0.70464284,3.92922918,0.0069331199999999
542,1778414755540,0.3629175266666667,-0.0042719293333333,1.193623111111111,0.9844312333333332,4.029123133333333,-0.1526609066666666
543,1778414755550,0.251441514,-0.040721888,1.22597392,1.25258044,4.2723423,-0.1868887149999999
544,1778414755560,0.1670727533333333,-0.0954357844444444,1.13974464,1.5621655,4.6324368,-0.14675605
545,1778414755570,0.14630732,-0.14150216,0.912925192,1.97216626,4.949099840000001,-0.000885728
546,1778414755580,0.1952654533333333,-0.0998330611111111,0.7155397400000001,2.281064911111111,4.9105756666666665,0.0746421411111111
547,1778414755590,0.22705592,-0.069790654,0.6335431,2.4985943,4.823021,0.09025268
548,1778414755600,0.2758663644444444,-0.0227147393333333,0.5643249222222222,2.6891786555555557,4.674245622222222,-0.025401064
549,1778414755610,0.28050417,0.010000584,0.4846624,2.87573138,4.49536254,-0.2407043564
550,1778414755620,0.1735467166666666,0.010651028,0.4214338044444444,3.113513888888889,4.193033799999999,-0.5998689777777778
551,1778414755630,0.0492711712,-0.009622513,0.351965658,3.3309348,3.86179168,-0.9513641
552,1778414755640,-0.059556324,-0.041577629,0.2319952399999999,3.4068564,3.564633177777778,-1.1120304666666665
553,1778414755650,-0.0802181,-0.04613074,0.19888356,3.4136436,3.4424298,-1.1473238
554,1778414755660,-0.120537516,-0.0375936565,0.186760894,3.34663368,3.2913062,-1.16986409
555,1778414755670,-0.1449678066666666,-0.0240054643333333,0.18010197,3.1811144,3.1194951333333334,-1.2171641
556,1778414755680,-0.182315512,0.0038660806,0.117427582,3.0063305999999996,3.00286412,-1.23980614
557,1778414755690,-0.2172247366666666,0.0443149175555555,0.0304353797777777,2.7120515,2.883165111111111,-1.2278878444444443
558,1778414755700,-0.2222385699999999,0.055155657,0.020001167,2.5260825,2.8590705,-1.2194039
559,1778414755710,-0.20809141,0.0649123216666666,0.0260177783333333,2.1571307,2.9268746,-1.2798777
560,1778414755720,-0.20101783,0.069790654,0.029026084,2.1571307,2.9268746,-1.2798777
561,1778414755730,-0.20101783,0.069790654,0.029026084,2.1571307,2.9268746,-1.2798777
562,1778414755740,-0.311816975,0.0412371599999999,0.0010823795,1.7924167500000003,3.0380488,-1.3101146499999998
563,1778414755750,-0.4319797911111111,0.0125752598444444,-0.0198012916666666,1.3292885222222222,3.040627888888889,-1.291823211111111
564,1778414755760,-0.56156326,0.01966883238,-0.115369534,1.076832084,2.651016,-1.11983574
565,1778414755770,-0.5504894666666666,0.0716606888888889,-0.1187637066666666,0.8917861133333334,2.3925869888888887,-1.0334348222222225
566,1778414755780,-0.54605015,0.0674002716,-0.077480131,0.677948832,2.3210364599999997,-1.021245
567,1778414755790,-0.5419523,0.067839324,-0.07762648,0.51815116,2.3484023,-1.0275978
568,1778414755800,-0.5965151755555556,0.0724466415555555,-0.0694756004444444,0.2162568933333333,2.476001588888889,-1.0156523777777775
569,1778414755810,-0.651873432,0.072522522,-0.08245603,-0.064719266,2.62713182,-0.976347706
570,1778414755820,-0.7050106444444444,0.0793847077777777,-0.0782904751111111,-0.19226417,2.6232836,-0.93291646
571,1778414755830,-0.743177498,0.074034811,-0.0181321561,-0.258052418,2.61741944,-0.8557664619999998
572,1778414755840,-0.75205606,0.07881558,-0.04564291,-0.41155833,2.6037364,-0.6757498
573,1778414755850,-0.7340062,0.13128816,0.01097625,-0.4181554829999999,2.5438124199999996,-0.543806767
574,1778414755860,-0.6997698688888889,0.1418917466666666,0.0337485811111111,-0.3539350722222222,2.551203588888889,-0.5193050077777778
575,1778414755870,-0.70388564,0.153905315,0.0587076926,-0.2052141366,2.56183234,-0.5601163939999999
576,1778414755880,-0.7545054333333333,0.1409838399999999,0.0221964156666666,0.0416903251111111,2.5480136,-0.6191445755555556
577,1778414755890,-0.7833079,0.1247024,-0.010488417,0.23838314,2.517607,-0.6476508
578,1778414755900,-0.83675617,0.1498563,-0.12592198,0.49738237,2.3874965,-0.6293254
579,1778414755910,-0.8267982760000001,0.156783534,-0.1568689039999999,0.6701299940000001,2.25445402,-0.6464291400000001
580,1778414755920,-0.7869667,0.18449247,-0.2806566,0.8722389666666667,2.039788711111111,-0.7503410222222222
581,1778414755930,-0.8106672644444445,0.1804813944444444,-0.3379838,0.9127585122222222,1.877031788888889,-0.8383709
582,1778414755940,-0.8936192399999999,0.16644263,-0.538629,0.86999923,1.7729841,-0.8687775
583,1778414755950,-0.8934024355555555,0.14572327,-0.5789701111111111,0.6870843844444444,1.7449530666666666,-0.9006094322222222
584,1778414755960,-0.906546808,0.097328848,-0.69187572,0.509416065,1.76131697,-0.926991248
585,1778414755970,-0.9231907277777778,0.0735273214444444,-0.7293582777777777,0.2817533,1.8157434,-0.94818765
586,1778414755980,-0.9487322,0.0086773343999999,-0.8120473799999999,-0.0162179919999999,1.94713671,-0.94727139
587,1778414755990,-1.0017352666666666,-0.07752485,-0.9309588466666666,-0.13423368,1.9672335,-0.94513345
588,1778414756000,-1.031981,-0.11640923,-0.96886754,-0.188110407,1.85728113,-0.89455525
589,1778414756010,-1.0833728222222223,-0.1614050866666666,-1.0071149666666668,-0.1564956728888889,1.6865154222222225,-0.8734606911111111
590,1778414756020,-1.15844558,-0.2226776339999999,-1.08108744,0.0076050492,1.40953004,-0.878062394
591,1778414756030,-1.2186754333333334,-0.27301391,-1.10894,0.1527966588888888,1.1582681888888888,-0.8413572344444443
592,1778414756040,-1.2682142,-0.3111462,-1.118236,0.30007872,0.88603395,-0.7710419
593,1778414756050,-1.30511884,-0.335172,-1.13111472,0.447659424,0.55562667,-0.65082722
594,1778414756060,-1.3401696333333333,-0.3574937777777778,-1.1852013,0.546318011111111,0.0986433491111111,-0.44783589
595,1778414756070,-1.2892094,-0.324433544,-1.20716796,0.4360533219999999,-0.61953658,-0.1184127436
596,1778414756080,-1.1553180444444446,-0.2410303288888888,-1.1081405555555557,0.180013292,-1.0940698777777778,0.0503439926666666
597,1778414756090,-1.0932345,-0.2108659599999999,-1.0335358,0.014202199,-1.2703333,0.09880454
598,1778414756100,-1.0277292555555555,-0.1889405644444444,-0.8775647777777777,-0.2889137835555556,-1.4233165111111112,0.1472650966666666
599,1778414756110,-1.00602817,-0.174418713,-0.7286278879999999,-0.55046503,-1.48706184,0.193852386
600,1778414756120,-0.9915111466666668,-0.1674183088888888,-0.5512957511111112,-0.8739018311111111,-1.436823,0.2988909588888889
601,1778414756130,-0.972898264,-0.148212928,-0.4016148969999999,-1.02399378,-1.3556685700000002,0.39622608
602,1778414756140,-0.9611875022222224,-0.1289573993333333,-0.3258083088888888,-1.0505046,-1.3082057,0.43599224
603,1778414756150,-0.94536,-0.110311314,-0.26333854,-0.9863656,-1.2849935,0.45798272
604,1778414756160,-0.924532578,-0.0868495772,-0.215896739,-0.855033461,-1.312726,0.45065256
605,1778414756170,-0.8785166822222222,-0.052906206,-0.1801358477777778,-0.6002422900000001,-1.378860422222222,0.4099293988888888
606,1778414756180,-0.851586273,-0.0262972678,-0.1931820129999999,-0.1971509556299999,-1.50465426,0.31363952
607,1778414756190,-0.8621235,-0.0190255,-0.20964637,-0.0047340663,-1.5959148,0.26800925
608,1778414756200,-0.8761975320000002,-0.0121958336,-0.25942977,0.20051061411,-1.72975144,0.2363673529999999
609,1778414756210,-0.8625604488888888,-0.0028998982444444,-0.2966196022222222,0.41064206,-1.9038582,0.21058959
610,1778414756220,-0.8249017710000001,0.0266936298,-0.328738686,0.5222438420000001,-2.07025299,0.1746717689999999
611,1778414756230,-0.81699889,0.033386092,-0.3397962555555555,0.5654579,-2.1889881666666664,0.1389847199999999
612,1778414756240,-0.8204136999999999,0.028050419,-0.34264195,0.5480827,-2.2709775,0.11346488
613,1778414756250,-0.8332058155555556,0.0109220465555555,-0.3402569722222222,0.4899843355555555,-2.3469939444444443,0.1026053777777777
614,1778414756260,-0.845781,-0.017562,-0.32581168,0.38865158,-2.4255219,0.110410646
615,1778414756270,-0.861294182,-0.0454172839,-0.308466167,0.276316746,-2.4907603600000003,0.1564074416
616,1778414756280,-0.8599824166666666,-0.0796049155555555,-0.2853994277777777,0.14981028,-2.5892289,0.24296449
617,1778414756290,-0.83895135,-0.08396832,-0.27065605,0.084449634,-2.6655848,0.31382278
618,1778414756300,-0.7992471811111111,-0.08025536,-0.2168588588888888,0.0236363957777777,-2.779609511111111,0.3996128777777777
619,1778414756310,-0.7751610720000001,-0.085669632,-0.181425218,0.0096208447,-2.84688417,0.43470945
620,1778414756320,-0.7452027222222222,-0.09006623,-0.1314744744444444,0.0163062283333333,-2.951461277777778,0.4837740588888889
621,1778414756330,-0.7217860399999999,-0.104554881,-0.0751293832,0.044133715,-3.1151683,0.57282203
622,1778414756340,-0.7120538,-0.1144579,-0.038569324,0.0837030388888888,-3.2298041333333334,0.6678426966666666
623,1778414756350,-0.67446005,-0.10909174,0.0078053335,0.13148487,-3.3063636,0.74385923
624,1778414756360,-0.6448411444444445,-0.0941044094444444,0.0448230761111111,0.1766196933333333,-3.337720422222222,0.7838357933333334
625,1778414756370,-0.624524224,-0.076431289,0.1014083588,0.315533155,-3.3479011899999995,0.859003965
626,1778414756380,-0.6166281011111111,-0.0694112333333333,0.1534371444444444,0.4320217344444444,-3.2968615555555556,0.8975212555555555
627,1778414756390,-0.6507513599999999,-0.075699538,0.159899576,0.5267030719999999,-3.23574962,0.95814444
628,1778414756400,-0.6847046,-0.08567573,0.13860564,0.59756136,-3.2269533,1.0505046
629,1778414756410,-0.66689867,-0.07564466,0.13372731,0.6610894844444445,-3.2752780999999995,1.2177410444444443
630,1778414756420,-0.618121412,-0.0389534925,0.149728247,0.7117286899999999,-3.28797707,1.45929117
631,1778414756430,-0.50923705,0.020732917,0.1539724,0.7147761388888889,-3.274463611111111,1.6510437666666666
632,1778414756440,-0.44456863,0.05052124,0.17717497,0.68979925,-3.2782645,1.7194587
633,1778414756450,-0.3983599633333333,0.06808324,0.2134101611111111,0.61541165,-3.2543737444444445,1.7569240333333334
634,1778414756460,-0.416121837,0.073083534,0.2279126859999999,0.53299477,-3.2197454399999996,1.77871086
635,1778414756470,-0.4530244066666666,0.0745876833333333,0.1966883133333333,0.3472496944444444,-3.182700966666667,1.8771930666666663
636,1778414756480,-0.410103208,0.086340402,0.165357208,0.1559187631,-3.21583599,2.0256153500000003
637,1778414756490,-0.35255107,0.1086039,0.14836231,-0.031000499,-3.2917032,2.1641555
638,1778414756500,-0.30669472,0.13397123,0.14616705,-0.240046011,-3.429076,2.289039766666667
639,1778414756510,-0.227769391,0.1428711349999999,0.186824912,-0.49927598,-3.5968823999999997,2.41130435
640,1778414756520,-0.0926070362222222,0.1526206933333333,0.2563970633333333,-0.8156083611111112,-3.727440955555556,2.4847824333333333
641,1778414756530,-0.0083602407999999,0.159320264,0.29431596,-1.20915685,-3.80909077,2.52968638
642,1778414756540,0.1515298511111111,0.2134440155555555,0.30874092,-1.4738301777777778,-3.8692252222222225,2.5304600777777777
643,1778414756550,0.26217994,0.25672227,0.35922828,-1.8495692,-3.9984534,2.4750767
644,1778414756560,0.36565482,0.2636874522222222,0.4210475866666667,-2.1563502666666667,-4.061438466666667,2.3849427444444444
645,1778414756570,0.453630128,0.248575496,0.45959388,-2.55558638,-4.0963112,2.2280499999999996
646,1778414756580,0.4613107844444444,0.2049543722222222,0.5226659844444446,-2.8825119,-4.0968,2.1049032
647,1778414756590,0.49583686,0.1406271109999999,0.634457762,-3.51828168,-4.09851024,1.97858006
648,1778414756600,0.5313725,0.10543298,0.705529,-3.755412600000001,-4.0534296,1.9393637
649,1778414756610,0.6521722,0.07735208,0.8268165599999999,-4.07581716,-3.893082109999999,1.78158184
650,1778414756620,0.75134466,0.0266072453333333,0.8191839399999999,-4.363417555555555,-3.757779633333333,1.5480820666666666
651,1778414756630,0.7648413666666667,-0.062960996,0.9253486666666666,-4.600222822222222,-3.713595022222222,1.3554446777777778
652,1778414756640,0.7729719,-0.14253882,1.0833254,-4.8287477,-3.6337776000000006,1.096929
653,1778414756650,0.7423874733333333,-0.1650875533333333,1.1672733555555554,-4.823046466666667,-3.579005,1.0156863
654,1778414756660,0.7092303879999999,-0.207932878,1.3905322999999998,-4.67750182,-3.3657378600000003,0.702199476
655,1778414756670,0.7317703111111111,-0.2182376811111111,1.4753435333333331,-4.397489566666667,-3.2456861,0.4614441999999999
656,1778414756680,0.728691918,-0.232208667,1.62069819,-3.71594416,-3.25010454,0.079135254
657,1778414756690,0.6961077,-0.2437946999999999,1.7356501,-2.9899530666666667,-3.319191411111111,-0.2290168244444444
658,1778414756700,0.6961077,-0.2437946999999999,1.7356501000000002,-2.1049032,-3.3631723,-0.4912739
659,1778414756710,0.6028705,-0.2415994599999999,1.8218136,-1.2429978,-3.3509552,-0.67391723
660,1778414756720,0.518335148,-0.247160764,1.80214184,-0.647620254,-3.28278471,-0.749845527
661,1778414756730,0.4540813633333333,-0.25086829,1.6521087,0.5009795911111111,-3.117543722222222,-0.8323303144444444
662,1778414756740,0.4731746255555556,-0.2502178544444444,1.4778573222222222,1.3785804888888888,-3.009966833333333,-0.8275792866666667
663,1778414756750,0.431086136,-0.233062382,1.33036732,1.9242758,-2.9322806399999997,-0.7798381799999999
664,1778414756760,0.42545164,-0.21428078,1.228029,2.2634182,-2.897096,-0.6952969
665,1778414756770,0.478747448,-0.172497868,1.05562876,2.44813825,-2.90534234,-0.59633965
666,1778414756780,0.5274901422222222,-0.1152946668888888,0.8319387855555556,2.3462217888888888,-3.0942638,-0.4595098644444444
667,1778414756790,0.54917836,-0.074181154,0.71674913,2.0349612,-3.3106394000000003,-0.3397838
668,1778414756800,0.5748201,-0.02783699,0.6974797,1.6880001,-3.3362951,-0.27625567
669,1778414756810,0.5772105,-0.0028355313,0.70035795,1.1293802,-3.0713094599999997,-0.1601946932
670,1778414756820,0.5867721,0.005610083,0.6760151,0.7111789,-2.856169,-0.034971006
671,1778414756830,0.6534710699999999,0.01049146594,0.68785114,0.196173603,-2.75934978,0.2176754134
672,1778414756840,0.8714939,0.0869562966666666,0.87888255,-0.4088434522222222,-2.707936788888889,0.5211035777777777
673,1778414756850,0.9738373,0.14031307,0.98886865,-0.69499147,-2.5825095,0.5911474
674,1778414756860,0.9983509,0.1494260655555555,1.0259101055555555,-0.7200362066666667,-2.5577362444444445,0.5829349
675,1778414756870,1.1264783555555555,0.1944117522222222,1.244767711111111,-0.9515473222222222,-2.2981940333333335,0.4399966666666667
676,1778414756880,1.14467047,0.199142712,1.37018969,-0.92925137,-2.18698583,0.272162998
677,1778414756890,1.1361333,0.17497973,1.6058254,-0.7395833,-2.0028155,0.03466558
678,1778414756900,1.1366212,0.1483928,1.6841532,-0.59499578,-1.86702413,-0.076386455
679,1778414756910,1.119801088888889,0.1344184111111111,1.7126269777777778,-0.3724641199999999,-1.6490839333333334,-0.20234315
680,1778414756920,1.05206749,0.0855019393,1.76701779,-0.119695522,-1.36880172,-0.308997084
681,1778414756930,0.9743149666666666,0.025621413,1.7542690666666667,0.1339282622222222,-0.9822848444444444,-0.3435167377777778
682,1778414756940,0.903601512,-0.0339836906,1.7413089200000005,0.321947054,-0.5509995,-0.29433675
683,1778414756950,0.8554665733333333,-0.060115298,1.7097848,0.3997825655555556,-0.1972782177777777,-0.1755337553333333
684,1778414756960,0.8369085999999999,-0.065156244,1.6814700000000002,0.4344651,0.07780667,-0.062459134
685,1778414756970,0.8147121833333333,-0.0558603062222222,1.6306032555555556,0.4278136533333334,0.3239102355555555,0.0634432735555555
686,1778414756980,0.816565945,-0.02648630321,1.57060079,0.389384578,0.578579232,0.201915566
687,1778414756990,0.86359715,0.0249709688666666,1.5371629,0.3230872833333333,0.8764131000000001,0.28735273
688,1778414757000,0.91746205,0.07247374,1.5125883,0.2765271466666666,1.1426577222222225,0.2852487044444444
689,1778414757010,0.933798388,0.118799615,1.49502628,0.2761335159999999,1.32278974,0.194707562
690,1778414757020,0.8996256600000001,0.122507155,1.481367,0.3049655,1.3960915,0.12140589
691,1778414757030,0.8332254539999999,0.1071160024,1.46679906,0.371547827,1.46499494,0.059221641
692,1778414757040,0.80007714,0.091529734,1.4281626,0.42102647,1.5463598,0.027335415
693,1778414757050,0.784463454,0.0796479439,1.34842017,0.4184609069999999,1.6156299099999998,0.0029626092
694,1778414757060,0.74370193,0.05417999,1.2697692,0.3422272,1.7155645,-0.019699825
695,1778414757070,0.7437507109999999,0.0512011577999999,1.27018386,0.246018734,1.85807516,-0.0142632836
696,1778414757080,0.74516542,0.0221693157777777,1.266916733333333,0.1643348777777777,2.013454322222222,0.0053449132222222
697,1778414757090,0.748190028,0.015854583,1.24784106,0.0504865263999999,2.10271942,0.044561308
698,1778414757100,0.74662894,0.021708583,1.2695253,-0.026724568,2.1633155,0.0645971
699,1778414757110,0.6961077,-0.005366167,1.3154122,-0.10185878,2.3636734,0.10552386
700,1778414757120,0.691175188888889,-0.01447239,1.3195858333333332,-0.1151616764444444,2.4677210888888887,0.1411566211111111
701,1778414757130,0.71393802,-0.00580521681,1.29894469,-0.098438032,2.64466328,0.196295768
702,1778414757140,0.7136425888888889,-0.0033606297444444,1.2901497555555557,-0.07009472,2.7008612,0.20753536
703,1778414757150,0.7167322222222222,-0.0048512315333333,1.2786043666666669,-0.0164759072222222,2.758552155555555,0.1852733688888889
704,1778414757160,0.7080596,-0.018293751,1.2848921,0.07162184,2.860903,0.1317903
705,1778414757170,0.6651607222222222,-0.034822494,1.2581425333333334,0.1248334211111111,2.926467333333333,0.1165869844444444
706,1778414757180,0.634463836,-0.0385693212,1.2277851400000002,0.181696512,2.9905859300000004,0.1221999939999999
707,1778414757190,0.6500853444444444,-0.0206211218444444,1.195046055555555,0.2529756055555555,3.0284789444444447,0.1290075488888888
708,1778414757200,0.661733724,0.00824438362,1.1978320999999998,0.312723254,3.01825731,0.10277505
709,1778414757210,0.6614681199999999,0.0137135377777777,1.203664411111111,0.33795124,3.0276644,0.07925743
710,1778414757220,0.66412413,0.013903251,1.1994907,0.3733804,3.117459,-0.004428643
711,1778414757230,0.591464058888889,0.0037129538444444,1.2409293666666668,0.3909592122222222,3.2015523333333338,-0.0486132628888888
712,1778414757240,0.5162404690000001,-0.0147569588,1.2581008399999998,0.4766135699999999,3.42681494,-0.0716218415
713,1778414757250,0.48207083,-0.02414775,1.2348586,0.57496,3.5799468,-0.06306998
714,1778414757260,0.4591426299999999,-0.014878917,1.210467,0.6884418311111111,3.644017822222222,-0.0494955951111111
715,1778414757270,0.455557069,0.0030489587,1.19388365,0.8108080980000001,3.6883721,-0.0580610329
716,1778414757280,0.4542371999999999,0.0185376664444444,1.1379932111111113,0.9532780666666666,3.733812344444444,-0.0885219482222222
717,1778414757290,0.43705599,0.0341269914999999,1.06531831,1.03963148,3.74206565,-0.131362699
718,1778414757300,0.3886710433333333,0.0509277693333333,0.9991131666666668,1.142301277777778,3.704423911111111,-0.2217545188888889
719,1778414757310,0.381098454,0.0584241394,0.97811198,1.20187247,3.6557528,-0.292992873
720,1778414757320,0.32904357,0.07466899,0.9866735,1.2639956,3.6233168,-0.3721587
721,1778414757330,0.319994271,0.066985615,0.9783071,1.31432952,3.67707136,-0.42200382
722,1778414757340,0.3574463166666666,0.0837514977777777,0.9134679555555556,1.373065888888889,3.7279754222222223,-0.4887626377777778
723,1778414757350,0.282888466,0.103823128,0.88276492,1.4362546,3.6972294,-0.5822902
724,1778414757360,0.17994952,0.09299323,0.90297955,1.4362546,3.6972294,-0.5822902
725,1778414757370,0.165851137,0.0816754965,0.828648999,1.7014234,3.4964439599999997,-0.78961172
726,1778414757380,0.1817924522222222,0.1276090738888889,0.7674059022222222,1.812748588888889,3.353517488888889,-0.8843201611111111
727,1778414757390,0.21228882,0.1859627555555555,0.7339215133333333,1.8284949,3.253067,-0.94513345
728,1778414757400,0.21876277,0.23208672,0.65988606,1.71634338,3.13266905,-1.1727351250000002
729,1778414757410,0.0948022793333333,0.19742345,0.6914325911111111,1.4539182888888889,3.150037511111111,-1.266981988888889
730,1778414757420,-0.05189327,0.13543473,0.7343416,1.2249014,3.3007130000000005,-1.2358967
731,1778414757430,-0.1367220788888888,0.1115851033333333,0.7330407555555555,1.019656777777778,3.5695538888888887,-1.066488433333333
732,1778414757440,-0.150740498,0.118750838,0.684643608,0.8051272300000001,3.89233408,-0.8504521049999999
733,1778414757450,-0.1362681133333333,0.13237222,0.6216419522222222,0.5653221822222223,4.239526011111112,-0.6479222844444444
734,1778414757460,-0.163213787,0.1127016937999999,0.552831051,0.437519344,4.42535926,-0.549426554
735,1778414757470,-0.18662675,0.096651986,0.46417344,0.36910444,4.4693403,-0.45950985
736,1778414757480,-0.246749155,0.0898009697999999,0.471173832,0.317182431,4.35688321,-0.2964747179999999
737,1778414757490,-0.25335152,0.0941586111111111,0.4823282522222222,0.3099880144444444,4.259073344444444,-0.1646063677777777
738,1778414757500,-0.191797774,0.1369531219999999,0.39945623,0.372647375,4.09947222,-0.150970901
739,1778414757510,-0.2073325688888888,0.1509911922222222,0.43763732,0.4550981822222222,3.942247066666667,-0.2545366577777778
740,1778414757520,-0.2051644,0.12884897,0.42462844,0.5517478,3.893922,-0.3837648
741,1778414757530,-0.248898664,0.116750714,0.353965768,0.6372664,3.8049828,-0.47270416
742,1778414757540,-0.332909,0.0885417488888888,0.3271871188888889,0.7523771955555555,3.694514633333333,-0.53396532
743,1778414757550,-0.35380113,0.06613191,0.27821746,0.8278507600000001,3.6337013,-0.5676298
744,1778414757560,-0.4282262,0.03125182,0.27553436,0.93535984,3.5103102,-0.5786251
745,1778414757570,-0.4409586499999999,6.0977799999999835e-05,0.2783150239999999,0.93535984,3.5103102,-0.5786251
746,1778414757580,-0.4572286011111111,-0.0294021218888888,0.1804847911111111,1.1918478711111111,3.4193617,-0.5459108388888889
747,1778414757590,-0.493675168,-0.0021952500019999,0.123156577,1.42937498,3.21232355,-0.524809416
748,1778414757600,-0.4919731633333334,-0.0020055369688888,0.07986577,1.5848347333333337,3.094789788888889,-0.6000725922222222
749,1778414757610,-0.51387143,-0.014147166,-0.01905599,1.6513492,3.0111716,-0.67941487
750,1778414757620,-0.5613234266666667,-0.0166134347777777,-0.0606268433333333,1.6651951333333337,2.9598603999999997,-0.7128078566666667
751,1778414757630,-0.5893263877777778,-0.0242832589999999,-0.1633293088888888,1.6460552555555557,2.942349422222222,-0.7398208744444444
752,1778414757640,-0.641290475,-0.023659917,-0.270031001,1.52946993,2.92003317,-0.710445922
753,1778414757650,-0.6893999833333333,-0.0179685280222222,-0.3497561866666666,1.3258948333333334,2.934679911111111,-0.6454789311111111
754,1778414757660,-0.7380613200000001,0.00707358372,-0.431683722,1.15123328,2.8822828599999997,-0.589986824
755,1778414757670,-0.7542818,0.027562585,-0.42758593,0.9371924,2.7772171,-0.51815116
756,1778414757680,-0.7419365840000001,0.0311268159,-0.422268555,0.7813041700000001,2.72645559,-0.4877920679999999
757,1778414757690,-0.7526556955555556,0.0381356964444444,-0.4393176444444444,0.6382845,2.6474460333333334,-0.4555054
758,1778414757700,-0.78867406,0.0580826599999999,-0.396578,0.5242597,2.5231047,-0.39903596
759,1778414757710,-0.8310918844444444,0.0481870944444444,-0.440001951111111,0.493853051111111,2.5328781222222223,-0.3903483511111111
760,1778414757720,-0.87825245,0.030489584,-0.532775,0.46073154,2.54143,-0.3672719
761,1778414757730,-0.8942967611111112,0.0322512044444444,-0.6084704666666667,0.4064340111111111,2.4730150666666666,-0.3053727177777777
762,1778414757740,-0.9014516133333332,0.0344498415555555,-0.6765333955555556,0.3727695488888888,2.3845101555555557,-0.2636993811111111
763,1778414757750,-0.911626338,0.0388620212,-0.754794072,0.3306210859999999,2.17296698,-0.209184646
764,1778414757760,-0.92858396,0.0594953411111111,-0.8700778699999999,0.29193409,1.851036922222222,-0.15700471
765,1778414757770,-0.9329202,0.09031015,-0.9193219500000002,0.2677038,1.6410412,-0.15225367
766,1778414757780,-0.94145733,0.112750486,-0.92785907,0.2544009222222222,1.4310454777777777,-0.1997640155555555
767,1778414757790,-0.95670216,0.0976703316,-0.932124527,0.24424728,1.1522412000000002,-0.2947032539999999
768,1778414757800,-0.97755706,0.06637583,-0.9234686,0.23716144,0.8890882,-0.38559732
769,1778414757810,-1.013961616,0.0125647567999999,-0.878822642,0.2438196849999999,0.592575278,-0.423408763
770,1778414757820,-1.0500613,-0.015854584,-0.85465354,0.26403874,0.34108183,-0.40575528
771,1778414757830,-1.0859658600000002,-0.0277821096,-0.842750444,0.282119812,0.2091388299999999,-0.345159248
772,1778414757840,-1.1113386222222223,-0.0303845638888888,-0.85213983,0.2620025766666666,0.0113600588888888,-0.2434056755555555
773,1778414757850,-1.125462,-0.033447072,-0.8727339,0.20356485,-0.13354649,-0.17118995
774,1778414757860,-1.09730489,-0.0297791743,-0.7760483300000001,-0.0592216416,-0.4608384359999999,-0.0331384632
775,1778414757870,-1.077136,-0.026343001,-0.7133648,-0.18432316,-0.5654155,0.023059484
776,1778414757880,-1.05759826,-0.0177815251,-0.657578003,-0.266237776,-0.613794613,0.0708888284
777,1778414757890,-1.020980971111111,-0.0054474722222222,-0.5837536144444444,-0.3679166933333333,-0.67849013,0.1345730444444444
778,1778414757900,-0.975578274,0.0178547002,-0.528472901,-0.4291507499999999,-0.7585654,0.155796595
779,1778414757910,-0.95267755,0.030489584,-0.5059137,-0.4445441,-0.8115869,0.13912046
780,1778414757920,-0.951823835,0.028635817,-0.484360588,-0.4321438999999999,-0.90590173,0.0932458312
781,1778414757930,-0.9626781,0.0219525,-0.45270932,-0.3981197,-1.0760838,0.020616096
782,1778414757940,-0.9787495066666668,0.0132257046111111,-0.4329249833333333,-0.34266834,-1.2237730555555555,0.0172224988888888
783,1778414757950,-0.98028893,0.00802485855,-0.4182164849999999,-0.283463657,-1.34693349,0.0389415126
784,1778414757960,-0.955387722222222,0.0111930653333333,-0.4070935488888889,-0.1708845144444444,-1.5600105666666666,0.0880129133333333
785,1778414757970,-0.9358473,0.01536675,-0.39438277,-0.09269607,-1.7076999000000002,0.12873606
786,1778414757980,-0.912187388888889,0.022738454,-0.3913473655555555,-0.01267508,-1.843308,0.16233265
787,1778414757990,-0.89810732,0.02022069143,-0.398700118,-0.003145863352,-1.91735032,0.1795585449999999
788,1778414758000,-0.8785437666666667,0.0062876294555555,-0.3887184666666667,-0.0289643411111111,-2.0493755555555553,0.2181233755555555
789,1778414758010,-0.8599282,0.011220166,-0.36974716,-0.0603211669999999,-2.1481972,0.25518143
790,1778414758020,-0.8294589555555556,0.0226097202222222,-0.3536825488888889,-0.073963422,-2.249937155555555,0.2656337144444444
791,1778414758030,-0.8018456,0.03222749,-0.33459267,-0.08597675,-2.3943686,0.27106348
792,1778414758040,-0.779551572,0.0271235352,-0.31561598,-0.08426638,-2.56815456,0.247179336
793,1778414758050,-0.7674533,0.024391668,-0.30800578,-0.08536591,-2.6918511,0.2246390699999999
794,1778414758060,-0.76306283,-0.00024391667,-0.26992428,-0.0981937,-2.952683,0.20081604
795,1778414758070,-0.746446,-0.016342416,-0.25065485,-0.10491302,-3.0614138,0.20692451
796,1778414758080,-0.748641235,-0.0367856838,-0.206941949,-0.1085780999999999,-3.1670904,0.24113196
797,1778414758090,-0.7623005700000001,-0.0515782131111111,-0.1400962555555555,-0.0832618755555555,-3.2167725555555555,0.3242071688888889
798,1778414758100,-0.7747708,-0.06100966,-0.1149457399999999,-0.043217445,-3.2425910800000004,0.410092296
799,1778414758110,-0.7747708,-0.06100966,-0.1149457399999999,0.010537115,-3.2831514,0.5312844
800,1778414758120,-0.698943192,-0.0326208065,-0.0558477734,0.1005759975,-3.29579582,0.639526535
801,1778414758130,-0.66104466,-0.01975725,-0.028080907,0.1948093677777777,-3.289531144444444,0.7569585333333333
802,1778414758140,-0.66443509,-0.0232208676999999,-0.0570856482,0.24320884,-3.30098801,0.86260794
803,1778414758150,-0.6574096111111111,-0.0137406385555555,-0.0823964015555555,0.2472743677777777,-3.3651406,1.0000757111111112
804,1778414758160,-0.6177832999999999,0.0171317584444444,-0.0842664335555555,0.2191075155555555,-3.4570390666666664,1.1595153666666669
805,1778414758170,-0.5802473,0.03515449,-0.07494339,0.17241164,-3.504278,1.2643775
806,1778414758180,-0.5134411666666667,0.0531501202222222,-0.0432613322222222,0.0779339297777777,-3.5422863555555555,1.3349643444444446
807,1778414758190,-0.489772474,0.0343434676,0.0254923413,-0.0053449134,-3.53665296,1.3677328599999998
808,1778414758200,-0.4825688044444444,0.0072361947777777,0.0941044042222222,-0.0768140422222222,-3.489074733333333,1.4018859666666668
809,1778414758210,-0.47801572,-0.007073583,0.14811839,-0.0892142445,-3.4472248400000005,1.4341930399999998
810,1778414758220,-0.40795064,0.010732334,0.13031249,-0.068873025,-3.3735566,1.5441455
811,1778414758230,-0.40795064,0.010732334,0.13031249,-0.066918315,-3.40678676,1.5903255399999998
812,1778414758240,-0.2182037877777777,0.1073165613333333,0.0997788611111111,-0.0737598066666666,-3.5421506666666662,1.7011332
813,1778414758250,-0.0150770986,0.236242445,0.151600307,-0.189271029,-3.92869478,1.67437812
814,1778414758260,0.0418926886666666,0.25966962,0.2745485466666666,-0.31972764,-4.212250099999999,1.5558873
815,1778414758270,0.06256463,0.2415994599999999,0.36874104,-0.43660307,-4.3576317,1.4494642
816,1778414758280,0.0449782347999999,0.21915914,0.478284048,-0.578808294,-4.39477114,1.38153796
817,1778414758290,0.0577371115555555,0.2248234155555555,0.5531793111111111,-0.771279511111111,-4.362789955555555,1.3813886666666666
818,1778414758300,0.0789131428,0.22681811,0.59352854,-1.0286591399999998,-4.26924208,1.5426183999999998
819,1778414758310,0.1791195233333333,0.2308671266666666,0.7399550888888888,-1.2570473,-4.2055306,1.7414492
820,1778414758320,0.383522355,0.248920009,0.82238334,-1.4164784,-4.0467105,1.7994796999999998
821,1778414758330,0.48938832,0.28846195,0.9317616,-1.6131712,-3.651492,1.6608174
822,1778414758340,0.482778168,0.300855958,0.959778545,-1.6307636200000002,-3.4909615200000004,1.55416344
823,1778414758350,0.4575063666666667,0.33077132,0.8984975533333333,-1.5875835111111112,-3.2036732333333333,1.1614751155555554
824,1778414758360,0.424134484,0.342373628,0.8657029140000001,-1.5258201,-3.3381276,0.95337987
825,1778414758370,0.4512119533333333,0.3652245733333333,0.8673304777777777,-1.4294420444444444,-3.742983555555556,0.7940844955555555
826,1778414758380,0.5260063,0.3921875,0.83998805,-1.4012072,-4.1230664,0.68277454
827,1778414758390,0.5936932,0.3949519,0.8609852166666667,-1.470097233333333,-4.4124044,0.5711252088888888
828,1778414758400,0.662291681,0.35927401,0.96143722,-1.612316,-4.65358729,0.410275562
829,1778414758410,0.6166314666666667,0.27910164,1.154173033333333,-1.8471257999999997,-4.71994,0.19470756
830,1778414758420,0.59579694,0.24769738,1.2812333,-1.9766253,-4.3991694,0.07681404
831,1778414758430,0.5458787422222222,0.1795667066666666,1.2998488666666668,-2.0075749666666667,-4.0281814,0.0356836596666666
832,1778414758440,0.5231538444444443,0.1407907311111111,1.312376711111111,-2.012054533333333,-3.755539833333333,0.0255028723333333
833,1778414758450,0.50836503,0.0336178147,1.32226621,-1.91224206,-3.4397114199999996,0.1095554524
834,1778414758460,0.5660493044444445,0.0143368803333333,1.3341666,-1.7248205,-3.320345266666666,0.2194808055555555
835,1778414758470,0.6655632380000001,0.0275138019,1.32802267,-1.41684496,-3.23318412,0.23734471
836,1778414758480,0.66436803,0.026830835,1.3159,-1.166642,-3.160371,0.18065807
837,1778414758490,0.6301220780000001,0.01431790823,1.22486104,-0.97214814,-3.13196657,0.154697066
838,1778414758500,0.6243656777777777,-0.0032827120666666,1.1773993333333332,-0.7939487000000001,-3.2034017555555554,0.15826035
839,1778414758510,0.6399763,-0.039301075,1.182386,-0.712706,-3.3155262,0.19531842
840,1778414758520,0.6521722,-0.06296099,1.2355905,-0.69865656,-3.3344624,0.24113196
841,1778414758530,0.616142626,-0.0655952945,1.30721034,-0.6708019279999999,-3.2650701599999996,0.291465768
842,1778414758540,0.6394851711111111,-0.0385693238888888,1.3260089,-0.5742473633333334,-3.085915433333333,0.3686632822222222
843,1778414758550,0.72187138,0.0323982308,1.27240342,-0.386024916,-2.9055256399999996,0.411924856
844,1778414758560,0.7807569277777778,0.0868986991111111,1.2431518666666663,-0.2323086033333333,-2.859698577777778,0.4007667155555555
845,1778414758570,0.8821720888888889,0.19072929,1.2130146333333334,-0.0439640345555555,-2.8082515333333333,0.3411073022222222
846,1778414758580,0.89865,0.20745113,1.2080277,0.018478129,-2.776759,0.2857238
847,1778414758590,0.8973491111111112,0.1950655833333333,1.1922003222222224,0.0412830943333333,-2.753411088888889,0.2140510622222222
848,1778414758600,0.8658675559999999,0.163564431,1.1947587400000002,-0.0247087715,-2.70700024,0.1457787016
849,1778414758610,0.8703014644444445,0.1593419422222222,1.1865293222222222,-0.13606623,-2.6234362,0.110410646
850,1778414758620,0.8952351000000001,0.1747358,1.1277183,-0.3113794,-2.5067644,0.081700824
851,1778414758630,0.8952351,0.1747358,1.1277183,-0.3113794,-2.5067644,0.081700824
852,1778414758640,0.91360206,0.1437339919999999,1.2042593,-0.579785668,-2.48514044,0.0747371644
853,1778414758650,0.932097,0.1207997299999999,1.3888615,-1.0218031888888888,-2.370545422222222,0.0650043304444444
854,1778414758660,0.92965794,0.10299382,1.5303942,-1.1880215,-2.1457536,0.087809294
855,1778414758670,0.921608674,0.078718004,1.80481878,-1.3999856,-1.4224342,0.26495498
856,1778414758680,0.9284383699999998,0.08613308,1.9194107,-1.3914337,-0.827469,0.4109475
857,1778414758690,0.92843837,0.08613308,1.9194107,-1.38379811,-0.7810446040000001,0.41797224
858,1778414758700,0.993601312222222,0.0893615811111111,1.969200211111111,-1.2770695333333333,-0.2470283199999999,0.4794302333333333
859,1778414758710,1.03884104,0.0783826186,1.98246938,-0.797438202,0.65262918,0.33685171
860,1778414758720,1.0071691888888887,0.0487291297777777,1.9628279888888889,-0.4171917288888889,0.9813260888888888,0.2145261577777777
861,1778414758730,0.9508481444444444,0.0159087876666666,1.9051247111111111,-0.0808863611111111,1.1725213333333333,0.1429891651111111
862,1778414758740,0.8959669,-0.007073583,1.8357167999999997,0.18462859,1.2995776,0.110410646
863,1778414758750,0.8751425,-0.0144012463333333,1.7971576666666669,0.2451703433333333,1.3261834,0.1074242802222222
864,1778414758760,0.813955999,-0.0319835737,1.56452414,0.797552704,1.52522449,0.089092071
865,1778414758770,0.8062021988888889,-0.0295918348888888,1.3765165777777777,0.9951550088888887,1.5592554444444444,0.0738276768888888
866,1778414758780,0.79861367,-0.022928167,1.3000149,0.9970554,1.565907,0.063375406
867,1778414758790,0.7845512377777779,-0.0132528058888888,1.2377652222222222,0.9262650222222224,1.6001144444444444,0.062425198
868,1778414758800,0.7622396,0.008537084,1.1777517,0.75332737,1.6587558000000002,0.07437065
869,1778414758810,0.7524829,0.020570306,1.1487256,0.5186262977777777,1.7700656444444445,0.0999583677777777
870,1778414758820,0.75023277,0.0263430009999999,1.14511562,0.280348337,1.91555592,0.123666029
871,1778414758830,0.7303373055555555,0.0228739625555555,1.1572897444444443,0.0863500444444444,2.048408333333333,0.1470614877777777
872,1778414758840,0.733183,0.0141471659999999,1.1684829,-0.05971032,2.1602614,0.16660859
873,1778414758850,0.7349636399999999,0.0098542332,1.18763026,-0.168563295,2.26636555,0.179253122
874,1778414758860,0.72928035,0.0043905,1.2058326,-0.2534846444444444,2.391908322222222,0.1960649988888889
875,1778414758870,0.7083035,-0.017805915,1.2077838,-0.29671904,2.477902,0.2093679
876,1778414758880,0.6859715888888888,-0.0592446438888889,1.2227440666666665,-0.31843808,2.5995284888888888,0.2289150111111111
877,1778414758890,0.65412354,-0.089822315,1.225102,-0.312845424,2.67630524,0.245041384
878,1778414758900,0.6361279222222221,-0.1195259461111111,1.2036372888888889,-0.31076854,2.6916986,0.24846213
879,1778414758910,0.6328021859999999,-0.125214625,1.19531972,-0.225005589,2.78534138,0.340700073
880,1778414758920,0.6143346,-0.1232388999999999,1.1972954,-0.09880454,2.854184,0.40544987
881,1778414758930,0.602087991111111,-0.1233473055555555,1.1787882666666667,-0.0196658891111111,2.8959251333333333,0.4186848888888889
882,1778414758940,0.6255853,-0.1081160699999999,1.1597018,0.07101099,2.9219878,0.4072824
883,1778414758950,0.60823673,-0.10811607,1.1779956,0.12293301,2.9476435,0.37979427
884,1778414758960,0.5298479722222222,-0.1176288086666666,1.1999243333333334,0.2309851022222222,3.0720527111111107,0.3737536844444444
885,1778414758970,0.4688931999999999,-0.11157968,1.19763694,0.3397838,3.1932042,0.40606073
886,1778414758980,0.4103288,-0.10104248,1.2029055,0.4334470466666666,3.2856456,0.4443404766666666
887,1778414758990,0.352858988,-0.0823737062,1.16335449,0.653514954,3.499864619999999,0.51613539
888,1778414759000,0.3544414,-0.051009074,1.1067414,0.8370135,3.6752388,0.5471664
889,1778414759010,0.39815432,0.00224708139,0.99849427,0.99528397,3.72538931,0.47746877
890,1778414759020,0.41496322,0.05979007,0.8558731,1.2810994,3.6098783,0.24601874
891,1778414759030,0.3517244577777778,0.0773520766666666,0.7773793611111111,1.4342270333333331,3.4015707333333336,0.0540090788888888
892,1778414759040,0.24803276,0.07344941,0.74897665,1.5548353,3.157775,-0.13331741
893,1778414759050,0.2309586,0.066863656,0.6008277,1.5762149333333333,2.867486788888889,-0.3114811844444444
894,1778414759060,0.194822324,0.070522408,0.606017076,1.4520144600000002,2.4261021,-0.465923751
895,1778414759070,0.1622825044444444,0.07735208,0.7446742022222222,1.1685677844444444,2.1428860555555556,-0.5371553322222222
896,1778414759080,0.185312635,0.0757422297,0.805504319,0.9329164599999998,2.1553745,-0.55724543
897,1778414759090,0.15674695,0.0612535769999999,0.92761505,0.6720847,2.305643,-0.5425851
898,1778414759100,0.1503776755,0.0583021849,0.935862485,0.648994673,2.33276462,-0.53293371
899,1778414759110,0.1049586983333333,0.0253741094444444,1.029819533333333,0.2759163033333334,2.8444782222222225,-0.3236302644444444
900,1778414759120,0.191779481,0.05764361,1.07479136,0.0531742512999999,3.2183710499999996,-0.173388992
901,1778414759130,0.2048832177777778,0.0706579191111111,1.1358792555555557,-0.004123219,3.3483593,-0.15286453
902,1778414759140,0.17994952,0.060033992,1.1777517,-0.004123219,3.3483593,-0.15286453
903,1778414759150,0.145048096,0.0318646642699999,1.15560105,0.1083337542999999,3.59000287,-0.178092516
904,1778414759160,0.1062562,0.0024391667,1.1186934,0.32756683,3.7234957,-0.14309096
905,1778414759170,0.086962388,-0.017122951066,1.067172,0.465740483,3.73015395,-0.0689341147
906,1778414759180,0.10823125,-0.0009756667377777,1.0199579222222224,0.66149669,3.809761066666667,0.0269281845555555
907,1778414759190,0.07524829,-0.010732334,1.0342677,0.727061,3.8786511,0.04688253
908,1778414759200,0.0496133271111111,-0.030865622,1.0101504444444442,0.7736211111111111,4.036385444444445,0.0891667377777777
909,1778414759210,0.027897969,-0.052960407,0.99155176,0.82357484,4.2885294,0.15683503
910,1778414759220,0.0269765083777777,-0.062368134,0.9398583111111112,0.9287762933333332,4.560085077777777,0.2374668722222222
911,1778414759230,-0.00649428126,-0.0784496984,0.78480795,1.168337,4.69211631,0.415651009
912,1778414759240,-0.0016159479,-0.036861908,0.73287815,1.3000357,4.670309,0.51356983
913,1778414759250,0.00248185234,0.0037502192,0.6801433419999999,1.47889178,4.6224186,0.5130811660000001
914,1778414759260,-0.020184105,0.03369099,0.6357383,1.7270943,4.5860124,0.38223767
915,1778414759270,-0.0697330703333333,0.010325806,0.5248849,1.9108235111111112,4.498661122222222,0.16674434
916,1778414759280,-0.1155402856,-0.0111744327,0.513987265,2.02537102,4.3758198,0.0617871959
917,1778414759290,-0.15025267,-0.030520074,0.50981635,2.1864514,4.2818103,0.031000499
918,1778414759300,-0.166985351,-0.038032705,0.5086211350000001,2.24307691,4.27393032,0.0337493117
919,1778414759310,-0.1783572888888888,-0.025245374,0.4647120666666666,2.507146166666667,4.269661033333333,0.0469503986666666
920,1778414759320,-0.207158424,0.0062442668,0.337946548,2.9166583,4.3394740999999994,0.0181727054
921,1778414759330,-0.21589674,0.024635585,0.1864438,3.267583277777778,4.38979461111111,-0.1137703022222222
922,1778414759340,-0.256716202,0.0385693224,-0.0589302668,3.41352131,4.25456655,-0.270208297
923,1778414759350,-0.30571905,0.04735032,-0.22623271,3.4564028,4.01487,-0.40270105
924,1778414759360,-0.335650672,0.067086236,-0.350959491,3.4234169999999997,3.6294253,-0.55663455
925,1778414759370,-0.3696895966666667,0.1134348044444444,-0.4493825688888889,3.3778071444444446,3.1306940444444447,-0.7648656199999999
926,1778414759380,-0.4306687822222222,0.1646268122222222,-0.49433778,3.337355588888889,2.5752980444444447,-1.0304484333333332
927,1778414759390,-0.5146032,0.15205155,-0.44856274,3.2988042999999996,2.088792,-1.2927055
928,1778414759400,-0.5482840333333334,0.1191837833333333,-0.4087027133333333,3.267243911111111,1.9798576666666667,-1.3541295555555557
929,1778414759410,-0.584271898,0.076577636,-0.37725982,3.09636954,1.80743592,-1.44621142
930,1778414759420,-0.6113636022222222,0.0607115377777777,-0.4073171244444444,2.9060295,1.845675,-1.460154
931,1778414759430,-0.641409394,0.057789957,-0.48689424,2.54489658,2.0661907800000003,-1.44439411
932,1778414759440,-0.65080017,0.057594825,-0.54741,2.2072203,2.2427256,-1.4638191
933,1778414759450,-0.684918012,0.070180926,-0.61974348,1.99171326,2.25555352,-1.50529564
934,1778414759460,-0.7700245877777777,0.0713625666666666,-0.72146825,1.708768833333333,2.1996949333333333,-1.5339307666666668
935,1778414759470,-0.8013577,0.0531494396,-0.769057094,1.37144382,2.04102409,-1.5458558100000002
936,1778414759480,-0.8101387,0.026586918,-0.79169255,1.009747522222222,1.8711948222222223,-1.567934666666667
937,1778414759490,-0.8389239039999999,-0.0019513332,-0.784009151,0.7154549,1.7528262,-1.5994272
938,1778414759500,-0.8861594466666667,-0.039673725,-0.7778434666666666,0.5349155666666667,1.7152929777777777,-1.5942010777777778
939,1778414759510,-0.920916544,-0.0842549162,-0.789082622,0.34149416,1.70291995,-1.56412021
940,1778414759520,-0.9637690166666668,-0.1297772255555555,-0.8204543977777778,0.1717329206666666,1.7137998777777776,-1.5041944555555555
941,1778414759530,-1.00583916,-0.167863446,-0.873983952,-0.0492648306,1.69412379,-1.39068544
942,1778414759540,-1.0495734,-0.20476803,-0.9415488,-0.1861557,1.6440954,-1.2994249
943,1778414759550,-1.0788433555555554,-0.2642024211111111,-1.0059699555555557,-0.3642516111111111,1.5458168222222222,-1.1859429444444445
944,1778414759560,-1.09521018,-0.3020725039999999,-1.0538542,-0.530368146,1.37245161,-1.07414443
945,1778414759570,-1.1159831333333332,-0.3483943022222222,-1.0834067222222223,-0.6593587066666667,1.0817087,-0.94187555
946,1778414759580,-1.1564211400000002,-0.39035814,-1.0822034100000002,-0.727244212,0.7986675480000001,-0.8025616899999999
947,1778414759590,-1.1642481333333334,-0.3998031455555556,-1.0768752,-0.74630266,0.59824854,-0.68674505
948,1778414759600,-1.19135,-0.38657743,-1.0779592,-0.7353074,0.35696387,-0.56579727
949,1778414759610,-1.195713388888889,-0.3882848599999999,-1.0487942666666668,-0.7092445666666667,0.10162971,-0.4520439344444444
950,1778414759620,-1.1785931,-0.391016708,-1.005866599,-0.68338538,-0.220775476,-0.325856476
951,1778414759630,-1.1579232333333334,-0.3827560733333333,-0.9110388866666664,-0.6613949,-0.5574745,-0.19440214
952,1778414759640,-1.1408287,-0.3716985,-0.8436771999999999,-0.638304833,-0.80816617,-0.061909369
953,1778414759650,-1.0912797666666667,-0.3399825944444444,-0.7499760055555555,-0.6269159255555556,-0.9184851888888887,0.0121999777777777
954,1778414759660,-1.0383227,-0.30309695,-0.66991717,-0.626454412,-1.18676932,0.225738612
955,1778414759670,-1.0163703,-0.27797353,-0.61378586,-0.63940436,-1.2813284,0.316877
956,1778414759680,-0.999881506,-0.239382872,-0.546187389,-0.6958466409999999,-1.31761281,0.449369786
957,1778414759690,-0.9805856733333334,-0.21012404,-0.50867803,-0.7825462333333334,-1.306373233333333,0.56956414
958,1778414759700,-0.963458642,-0.18229722,-0.4770003909999999,-0.8610808499999999,-1.30221949,0.645329572
959,1778414759710,-0.9368229,-0.15156372,-0.44026962,-0.9350543999999998,-1.3039298,0.70904094
960,1778414759720,-0.8841065,-0.10518907,-0.41048127,-0.98880898,-1.3266668888888888,0.7268234155555555
961,1778414759730,-0.85041547,-0.07076632,-0.39828545,-1.0034693,-1.3521868,0.7078193
962,1778414759740,-0.81071123,-0.0317396577777777,-0.3818075211111111,-0.9982431777777776,-1.4210768333333332,0.6246761777777778
963,1778414759750,-0.79735748,-0.0047868649999999,-0.386967716,-0.980623648,-1.52188018,0.5241986
964,1778414759760,-0.7865872222222223,0.0011653796,-0.4061178911111111,-0.9619317044444444,-1.6322941666666668,0.4295443999999999
965,1778414759770,-0.7937963,-0.00512225,-0.42026842,-0.956250832,-1.7199779200000005,0.383276116
966,1778414759780,-0.8029025666666667,-0.0007859537066666,-0.42048522,-0.9582666,-1.8763701,0.3504736
967,1778414759790,-0.807406848,0.0102932838,-0.412847276,-0.948615272,-2.05082812,0.331293008
968,1778414759800,-0.805423,0.019377825,-0.3906427,-0.9320002,-2.1866806,0.31565532
969,1778414759810,-0.80413834,0.0229037756,-0.364917652,-0.90530616,-2.3483105799999997,0.30130041
970,1778414759820,-0.7825761666666666,0.0176704074444444,-0.3602886466666666,-0.8975891333333332,-2.46991,0.28959251
971,1778414759830,-0.76366957,0.00702480015,-0.364942045,-0.9096432,-2.5842199,0.281692216
972,1778414759840,-0.7443048999999999,-0.0034148333333333,-0.3538587433333333,-0.9496469066666666,-2.7234116666666663,0.2776470555555555
973,1778414759850,-0.7342501,-0.01536675,-0.3358123,-0.98819816,-2.824405,0.2765611
974,1778414759860,-0.73864066,-0.0322976157,-0.305078776,-1.021428272,-2.8996613200000003,0.27753846
975,1778414759870,-0.7487021944444445,-0.0622360155555555,-0.2566105,-1.0532194777777777,-2.980985588888889,0.2986873488888888
976,1778414759880,-0.7695997699999999,-0.098847229,-0.192538675,-1.0385319389999998,-3.03435319,0.385902761
977,1778414759890,-0.7597767444444444,-0.1129401911111111,-0.1760908933333333,-0.9621353533333332,-3.104173,0.5422796566666667
978,1778414759900,-0.7098585,-0.1144579,-0.17058922,-0.8880192000000001,-3.184805,0.65834063
979,1778414759910,-0.66126828,-0.0970043022222222,-0.1692612266666666,-0.8148532555555555,-3.2731742444444443,0.7172534622222222
980,1778414759920,-0.5790520920000001,-0.0457892568,-0.1289709339999999,-0.6537593,-3.438612,0.76982029
981,1778414759930,-0.5551780466666667,-0.036726398,-0.1060224477777777,-0.4427115666666666,-3.635678044444445,0.7507143122222222
982,1778414759940,-0.5685942,-0.0573021236,-0.0614487066,-0.1945853864,-3.87261886,0.7249229699999999
983,1778414759950,-0.5873514,-0.08344999,-0.031983573,-0.057266932,-3.9899015,0.75668705
984,1778414759960,-0.606010974,-0.118381906,0.0218274945,0.1113269107999999,-4.0655857300000005,0.8880191749999999
985,1778414759970,-0.6126102333333334,-0.1481488888888888,0.08857224,0.3050333688888889,-4.053768911111111,1.1147962333333334
986,1778414759980,-0.59373279,-0.170808754,0.078693615,0.42395854,-3.98293788,1.34403196
987,1778414759990,-0.4937381199999999,-0.1707450622222222,0.0510293995555555,0.5649828,-3.8850393333333337,1.7347298666666666
988,1778414760000,-0.35059974,-0.13884957,0.034880083,0.598783,-3.872008,1.8495692
989,1778414760010,-0.32951924,-0.127769654,0.0398620804,0.598783,-3.872008,1.8495692
990,1778414760020,-0.2015903555555555,-0.0599255828888888,0.06390955,0.6785325333333333,-3.911713111111111,1.9506983666666664
991,1778414760030,-0.1001247465,0.00460697582,0.0367155543,0.778433202,-4.0263691800000005,2.03141837
992,1778414760040,0.044240385,0.11421398,-0.055155657,0.7612684,-4.353356,2.0126653
993,1778414760050,0.17921777,0.19180998,0.05564349,0.6384881,-4.6270914,1.9644084
994,1778414760060,0.2579486588888889,0.22500974,0.1888219966666666,0.4337863933333333,-4.703651044444444,1.8797043111111111
995,1778414760070,0.311140102,0.1646102095,0.145444467,0.030084228,-4.9838266,1.8349088
996,1778414760080,0.33001924,0.112994395,0.28382754,-0.34497598,-5.176854,1.8801114999999995
997,1778414760090,0.343507848,0.101286399,0.4554229,-0.931572598,-5.0311674,2.03019676
998,1778414760100,0.43423265,0.14692931,0.63500655,-1.4684005,-4.6124315,2.2453983
999,1778414760110,0.71868829,0.251764686,0.566465974,-1.81951552,-4.32540938,2.31466824
