id,timestamp,acc_x,acc_y,acc_z,gyro_x,gyro_y,gyro_z
0,1778414935460,0.8949912,-0.10518907,-0.15449072,-0.044439137,0.26533678,0.029778805
1,1778414935470,0.91208667,-0.080751664,-0.18644075,-0.0311837529,0.261060858,0.0554343894999999
2,1778414935480,0.959087122222222,-0.0328813213333333,-0.2170180788888889,-0.0185120658777777,0.2472828477777778,0.0755923473333333
3,1778414935490,0.9814800377777778,-0.0070193795555555,-0.2224926633333333,0.0007635591,0.19142427,0.063375406
4,1778414935500,0.97847176,-0.0024391667,-0.16766222,0.00809372622,0.15379607,0.0286792795999999
5,1778414935510,0.9830248622222224,-0.0007046481577777,-0.1574719266666666,0.0142700706666666,0.1433030733333333,0.0053449136
6,1778414935520,0.995497096,-0.005561300268,-0.162637548,0.0412016468,0.179329482,-0.07858550164
7,1778414935530,0.9838649822222224,-0.0305675015555555,-0.1978503011111111,0.0530249371111111,0.1869447033333333,-0.1119377577777777
8,1778414935540,0.966300344,-0.073790893,-0.229184096,0.041873579,0.0732863984,-0.09581139
9,1778414935550,0.97895956,-0.06393666,-0.24309345,0.0225504446666666,-0.0028251693333333,-0.0846532466666666
10,1778414935560,0.993667756,-0.0487894332,-0.236260749,-0.0237925006,-0.0939635797,-0.086221088
11,1778414935570,1.0103605,-0.0354356724444444,-0.2176143266666667,-0.0394844886666666,-0.0998820133333333,-0.0950376533333333
12,1778414935580,1.02462686,-0.0165375502,-0.2034752839999999,-0.0549457118,-0.074049961,-0.124276878
13,1778414935590,1.014276677777778,-0.0128733793333333,-0.1701318733333333,-0.0406383121111111,-0.0338426354444444,-0.1758052411111111
14,1778414935600,1.00174138,0.00104884176,-0.174784583,0.0042453883,-0.0698351133,-0.201182548
15,1778414935610,0.9933506,0.015610667,-0.16644263,0.04046863,-0.14637427,-0.21761434
16,1778414935620,0.99993638,0.0195621164,-0.14125214,0.062459134,-0.133668646,-0.224455828
17,1778414935630,1.0174882333333333,0.018673176,-0.1292182411111111,0.0903544933333333,-0.039679618,-0.22698066
18,1778414935640,1.0272856,0.0026830835,-0.14058746,0.1241547,0.0533727779999999,-0.21028417
19,1778414935650,1.0135957,-0.020489,-0.12961122,0.13392825,0.0704765,-0.19012621
20,1778414935660,1.0204457,-0.0147976113333333,-0.1286355533333333,0.13392825,0.0904987166666666,-0.1721401488888888
21,1778414935670,1.02813923,-0.00495150848,-0.141465577,0.124948804,0.121054657,-0.1491994489999999
22,1778414935680,1.034901111111111,0.0039297682444444,-0.1781201522222222,0.1001959188888888,0.1329865433333333,-0.1403082322222222
23,1778414935690,1.05611648,0.0214890572999999,-0.2356448689999999,0.067712419,0.093566532,-0.13881505
24,1778414935700,1.0875634,0.037837572,-0.27529046,0.020310672,0.03321482,-0.14003673
25,1778414935710,1.09661272,0.0424475977,-0.279046758,0.0005192207999999,0.01635543542,-0.14883294
26,1778414935720,1.0899212666666669,0.0362927676666666,-0.2933605999999999,-0.0191907844444444,0.0045728703666666,-0.1571404666666666
27,1778414935730,1.07121791,0.02222385763,-0.348255094,-0.029534466,-0.01864611318,-0.153047773
28,1778414935740,1.0424083,0.0065857503,-0.39096794,-0.0172903712222222,-0.1992465007777777,-0.0892685366666666
29,1778414935750,1.0511894,0.020001167,-0.34410545,-0.015729317,-0.22150849,-0.081395395
30,1778414935760,1.052165,0.035886243,-0.37243026,0.0997208173333333,-0.2077304833333333,-0.0115551941111111
31,1778414935770,1.0625558,0.0369106902,-0.410499564,0.185483778,-0.155903486,0.0333217178
32,1778414935780,1.0679654,0.0223895172222222,-0.5128754555555556,0.2286095899999999,-0.07734854,0.051769305
33,1778414935790,1.0877498333333333,0.0068296666666666,-0.6602587111111111,0.1922981122222222,-0.0087978988888888,0.0521086644444444
34,1778414935800,1.08929223,-0.00819864921,-0.701266532,0.137349002,0.0787840236,0.0450499848
35,1778414935810,1.0328957,-0.04613074,-0.7616908,0.08933641,0.10712734,0.036498122
36,1778414935820,1.00331468,-0.0559361896,-0.76198348,0.08933641,0.0939941225,0.049325916
37,1778414935830,0.9581961,-0.05881441,-0.74629354,0.09205129,0.0705443761111111,0.1007049544444444
38,1778414935840,0.9821305,-0.039788906,-0.78925335,0.06795676,0.21036053,0.1091889439999999
39,1778414935850,0.968471148888889,-0.0298154251111111,-0.8879582833333334,-0.0099602034444444,0.3148832777777778,0.0730810858888889
40,1778414935860,0.980325518,-0.0257271111999999,-0.926651616,-0.1238492771999999,0.396058098,0.0136524364
41,1778414935870,0.9881471333333334,-0.0253876593333333,-1.05078288,-0.2533489,0.4021665633333333,-0.0553325786666666
42,1778414935880,0.95669004,-0.0406182229999999,-1.16493994,-0.379916438,0.324100278,-0.108150508
43,1778414935890,0.8746953088888889,-0.033745194,-1.108265911111111,-0.5387503177777778,0.3319870044444444,-0.13637166
44,1778414935900,0.85206187,-0.020976834,-1.006949,-0.55132018,0.420186567,-0.145412194
45,1778414935910,0.845747141111111,-0.0133883148888888,-0.8798142088888888,-0.5177100155555556,0.5235894111111112,-0.16895017
46,1778414935920,0.8212436888888889,-0.0036316480555555,-0.8208134655555556,-0.5021673411111112,0.5817556277777778,-0.1894474877777777
47,1778414935930,0.797394056,0.0219525011,-0.703736198,-0.505017939,0.73428421,-0.257685903
48,1778414935940,0.7407749,0.052472573,-0.67479545,-0.5150630333333334,0.8345785466666666,-0.3925881499999999
49,1778414935950,0.66412413,0.042228073,-0.69723576,-0.51149296,0.7510977879999999,-0.411863768
50,1778414935960,0.80568725,0.07735208,-0.7590077,-0.4589329333333333,0.4443829111111111,-0.3701904111111111
51,1778414935970,0.7657154,0.0180620312,-0.61666406,-0.359025464,0.1435338402,-0.484310232
52,1778414935980,0.7390675,-0.021464668,-0.5217683,-0.2264037366666666,-0.128388214,-0.4741701777777777
53,1778414935990,0.6862656389999999,-0.0069516254,-0.425256535,-0.19806722,-0.156086754,-0.320419922
54,1778414936000,0.7898665933333333,0.0292666115555555,-0.26544231,-0.1211344033333333,-0.0501997685555555,-0.2677038088888889
55,1778414936010,0.80440062,0.0493992228,-0.285638608,-0.081028889,-0.0836402618,-0.2904884179999999
56,1778414936020,0.7978819,0.046374656,-0.4107252,-0.11468657,-0.40842775,-0.3245126
57,1778414936030,0.7976922,0.0137203124444444,-0.3558744288888888,-0.12242397,-0.6183555666666666,-0.3245126
58,1778414936040,0.849253837,-0.0230501256,-0.273878774,-0.110532814,-1.50734192,-0.31669376
59,1778414936050,0.9661099055555556,-0.0397448673333333,-0.1412074203333333,-0.0689409023333333,-1.7259234444444445,-0.3065944188888889
60,1778414936060,1.1727209,-0.046374656,0.13860564,0.051463883,-1.5610965,-0.29946786
61,1778414936070,1.2070216777777778,-0.0359404432222222,0.2145416511111111,0.0725041757777777,-1.1878009833333334,-0.2492426433333333
62,1778414936080,1.35259102,0.0491431134,0.336391588,0.101431186,-0.3470986956,-0.0840831234599999
63,1778414936090,1.4370351,0.06759541,0.35849655,0.1565296,0.7320241,0.06765133
64,1778414936100,1.33298014,0.0560825412,0.231781814,0.1604390239999999,1.06536346,0.090130514
65,1778414936110,1.2847396,0.048813824,0.2962673,0.12354386,1.3447802,0.09636115
66,1778414936120,1.2682020399999998,0.0450087236,0.37035698,0.153231032,1.35504248,0.078402244
67,1778414936130,1.1411912777777775,0.0033674050555555,0.498718111111111,0.2188360355555555,1.3343958333333334,0.0341904783333333
68,1778414936140,1.02526714,-0.0299011347,0.575289645,0.23422939,1.31313832,0.0146297914
69,1778414936150,0.9943263,-0.0014635,0.69065005,-0.15350931,1.4363394444444446,0.0730810881111111
70,1778414936160,0.983789127,0.0885966344,0.746875885,-0.560849419,1.4984083,0.1183516553999999
71,1778414936170,0.9729429844444444,0.1657854146666666,0.9169403422222222,-0.8375224933333334,1.4502532333333331,0.148690402
72,1778414936180,0.9479584688888888,0.2079592777777777,1.1607622311111112,-1.0688978644444442,1.3869966666666669,0.1351160155555555
73,1778414936190,0.867434772,0.231306188,1.43435808,-1.12734915,1.51166372,0.0043675569999999
74,1778414936200,0.80276024,0.2423312,1.7146733,-1.0346226,1.9311936,-0.18523943
75,1778414936210,0.74763205,0.2142289679999999,1.68794914,-0.93639828,2.42378088,-0.343571046
76,1778414936220,0.6956198,0.1849803,1.4627988,-0.9118422,2.6672645,-0.4515688399999999
77,1778414936230,0.71610887,0.164832788,1.31640913,-0.94433928,2.46159225,-0.487914261
78,1778414936240,0.7357576866666666,0.14926006,1.1770807444444449,-0.9913881466666667,1.857077488888889,-0.5404131633333333
79,1778414936250,0.743482382,0.156295709,1.1060127000000002,-0.973904334,1.23433906,-0.509843658
80,1778414936260,0.7798557977777778,0.1421627688888888,0.9917550444444444,-0.8896481088888889,0.3742202966666667,-0.4450531333333333
81,1778414936270,0.7989917400000001,0.140361848,0.88592978,-0.739705468,-0.476292897,-0.37979429
82,1778414936280,0.8336021444444444,0.1405027711111111,0.7694181888888889,-0.6406260533333333,-0.9598192333333332,-0.3361187133333334
83,1778414936290,0.881765541111111,0.1260303944444444,0.6357925000000001,-0.35352784,-1.8989629888888888,-0.1849000777777777
84,1778414936300,0.92648697,0.11787273,0.5317688,-0.0016798299999999,-2.660698,0.034054734
85,1778414936310,0.9682983566666667,0.1177101233333333,0.5050802666666666,0.2026146333333333,-2.891598133333334,0.1476044531111111
86,1778414936320,0.99161884,0.1185069085999999,0.50734974,0.468244958,-2.89104844,0.272407336
87,1778414936330,0.9806669833333334,0.117466198,0.5085967333333333,0.60041194,-2.6067397333333333,0.3392747499999999
88,1778414936340,0.99130172,0.1184337326,0.49339768,0.7062921120000001,-2.1354914000000003,0.405694204
89,1778414936350,0.9756531333333334,0.1146205064444444,0.4630893555555555,0.7210203533333334,-1.3585836555555555,0.4784121711111112
90,1778414936360,0.97925224,0.1064574348,0.42951284,0.714294232,-1.03937191,0.5080111300000001
91,1778414936370,1.0314322,0.08442566,0.33434877,0.7356128,-0.7437829,0.53006274
92,1778414936380,1.0581816888888889,0.0692486255555555,0.2908807922222222,0.7600467,-0.6985801933333333,0.53087718
93,1778414936390,1.06382425,0.043054344334,0.265387437,0.8492303810000001,-0.584718264,0.5241374999999999
94,1778414936400,1.0419205,0.00048783334,0.2982186,1.030652,-0.3174115,0.5270085
95,1778414936410,1.0314322,-0.029544408,0.39974892,1.2157388,-0.017485503,0.536782
96,1778414936420,1.0912222,-0.02783699,0.44417223,1.3427949777777777,0.256174073,0.5438406933333333
97,1778414936430,1.16110436,0.0039941355999999,0.290504734,1.42373225,0.48890686,0.5312843899999999
98,1778414936440,1.1952967666666667,0.0208413241111111,0.1579360288888888,1.4529510555555554,0.7737652666666667,0.5059002833333334
99,1778414936450,1.197387,0.0219525,0.14616705,1.25715418,0.70374185,0.41699487
100,1778414936460,1.2262232666666668,0.0239038333333333,-0.3621010833333333,0.8178057222222223,0.4004697777777777,0.2324443466666667
101,1778414936470,1.21511973,0.0164643753,-0.5235976200000001,0.44106227,0.187270504,0.1157861019999999
102,1778414936480,1.1802924333333331,-0.014980549,-0.5090947466666668,-0.0667011333333333,0.0058624365555555,-0.0290661499999999
103,1778414936490,1.1983108,-0.0293462244699999,-0.488735843,-0.5294518699999999,0.0424996977,-0.1642873749999999
104,1778414936500,1.2740072,-0.0073175007,-0.40609077,-1.0908206,0.42232454,-0.46073154
105,1778414936510,1.2802677666666666,0.0010298703444444,-0.3525679922222222,-1.0908206,0.42232454,-0.46073154
106,1778414936520,1.26008576,-0.0116592164,-0.255136838,-1.3427263100000002,1.053077782,-0.828461602
107,1778414936530,1.2454386,-0.021708583,-0.20037755,-1.4343966333333331,1.3732186000000002,-1.009543888888889
108,1778414936540,1.17735522,-0.0430573896,-0.1905599,-1.30591508,1.5065326,-1.10529764
109,1778414936550,1.0482624,-0.092505395,-0.28602278,-1.03279,0.8787038,-1.0489775
110,1778414936560,0.956446056,-0.1219217555,-0.192450257,-0.90267955,0.424554125,-0.91190336
111,1778414936570,0.9484395,-0.06540016,0.002927,-0.6334994722222222,-0.125809085,-0.6543701111111111
112,1778414936580,1.01346766,0.055241032,0.069882124,-0.541057936,-0.073561282,-0.59548444
113,1778414936590,1.0595096222222222,0.1508997311111111,0.1160501299999999,-0.4300194922222222,0.4536813666666666,-0.5700732
114,1778414936600,0.97115422,0.1177782129999999,0.0805260419999999,-0.29390916,1.2768463,-0.520594584
115,1778414936610,0.9888212311111112,0.1163550233333333,-0.0044142137777777,-0.2338017977777777,1.5723546888888889,-0.4547588111111111
116,1778414936620,0.941030464,0.093871328,-0.1085246186,-0.1314237872,1.6080554,-0.3476026359999999
117,1778414936630,0.9362165177777776,0.0731411221111111,-0.1561303799999999,-0.0920852222222222,1.4525608555555556,-0.2770701444444444
118,1778414936640,0.932205428888889,0.0386777303333333,-0.1854715333333333,-0.0569275711111111,1.054220588888889,-0.16046618
119,1778414936650,0.932804464,0.0521798733,-0.0565307377,0.0325276159999999,0.67193198,0.056045236
120,1778414936660,1.0060343,0.12592198,-0.079333894,0.15408622,0.49745873,0.15439165
121,1778414936670,1.02620312,0.165555399,-0.1309192222,0.187866071,0.403815859,0.180902414
122,1778414936680,1.0675012777777777,0.2121600788888888,-0.1853021355555555,0.2403514233333333,0.1769675411111111,0.2122185255555555
123,1778414936690,0.98231342,0.1926941659999999,-0.194133276,0.29268747,-0.030313297,0.234595891
124,1778414936700,0.936568888888889,0.1581765744444444,-0.15498195,0.37826717,-0.3485647,0.2985516
125,1778414936710,0.962708612,0.151027112,-0.111829698,0.422309247,-0.4193619,0.2943367549999999
126,1778414936720,1.0355787,0.15668598,-0.055155657,0.4815003599999999,-0.44080266,0.25640315
127,1778414936730,1.0451403,0.160198372,-0.00790899804,0.5529694860000001,-0.286319388,0.19263068
128,1778414936740,1.0440616333333332,0.1864438122222222,-0.0731207970333333,0.6076064111111111,-0.1627314155555555,0.1540522811111111
129,1778414936750,1.06667799,0.195102849,-0.192127062,0.65192677,-0.055419119,0.083044686
130,1778414936760,0.9823032222222222,0.1469326888888889,-0.2486967577777777,0.6602749933333334,-0.0694075166666666,0.0373125873333333
131,1778414936770,0.962101884,0.154755985,-0.184937618,0.653514954,-0.179482189,-0.0027182703999999
132,1778414936780,0.9848406266666666,0.1400826988888889,-0.20952442,0.64547892,-0.2137032122222222,-0.0275729668888888
133,1778414936790,0.99725328,0.100356463,-0.250423149,0.5655529269999999,-0.2855252789999999,-0.1266591729
134,1778414936800,0.9811548,0.06198532,-0.20452413,0.4277458,-0.34673217,-0.2408265299999999
135,1778414936810,0.935027136,0.071644426,-0.179909886,0.390361942,-0.363774822,-0.258968685
136,1778414936820,0.8914984888888888,0.0772707711111111,-0.23750369,0.38145714,-0.3813468555555556,-0.2571836511111111
137,1778414936830,0.86465408,0.0803603833333333,-0.2434085099999999,0.3515934955555556,-0.3581346533333333,-0.2254196022222222
138,1778414936840,0.8205661,0.08540133,-0.24013597,0.287617432,-0.232625902,-0.168013544
139,1778414936850,0.9379511,0.17693105,-0.27675393,0.13637166,0.07902836,-0.1681357
140,1778414936860,1.2050399,0.16697925,-0.473741058,-0.035887275,0.25189814,-0.34100547
141,1778414936870,1.2718121,0.1644913,-0.52298784,-0.035887275,0.25189814,-0.34100547
142,1778414936880,1.1917738100000002,0.1166318014999999,-0.421680104,-0.321030781,0.3076684939999999,-0.584550302
143,1778414936890,1.1188491,0.1076824322222222,-0.3016300644444444,-0.4406753955555555,0.2116500888888889,-0.6824691177777777
144,1778414936900,1.03180108,0.125217672,-0.115101229,-0.410703144,0.0465312888,-0.704948252
145,1778414936910,1.0878073,0.18254115,-0.13497739,-0.32176378,0.04665346,-0.6684196
146,1778414936920,1.08580121,0.196834659,-0.1707599649999999,-0.3070423869999999,0.106760828,-0.66609836
147,1778414936930,0.9931067,0.1849803,-0.17668714,-0.2814479,0.21585815,-0.6152759
148,1778414936940,0.9213478333333333,0.1847905922222222,-0.2021323966666666,-0.2678056333333333,0.2071026733333333,-0.5662045066666667
149,1778414936950,0.83781416,0.1935173929999999,-0.193157623,-0.214132515,0.10822686,-0.391094962
150,1778414936960,0.8059582888888888,0.19771817,-0.1093492033333333,-0.0417921337777777,-0.2989503533333333,-0.0990420942222222
151,1778414936970,0.8185660800000001,0.184199774,-0.072821322,0.069178455,-0.49516806,0.052380152
152,1778414936980,0.8703523111111111,0.1554392855555555,-0.0736933266666666,0.1048112122222222,-0.5141721888888889,0.1122431782222222
153,1778414936990,0.8873322760000001,0.1431120099999999,-0.074309214,0.1389372079999999,-0.4892428279999999,0.178092513
154,1778414937000,0.9196538822222222,0.1221819222222222,-0.037353128,0.15225367,-0.3381803,0.2637333
155,1778414937010,0.91784925,0.1184581359999999,0.0267576589,0.156651781,-0.0869388344,0.298918116
156,1778414937020,0.8862102,0.09957898,0.006341833,0.1693574,0.045431767,0.31993124
157,1778414937030,0.8864053679999999,0.0853098519999999,-0.0561496221999999,0.141319511,0.0745691797,0.344120792
158,1778414937040,0.8886798977777778,0.0837785966666666,-0.0722603186666666,0.1295844566666666,0.0723769166666666,0.3466049044444445
159,1778414937050,0.905775423,0.0954781316,-0.0783063976,-0.0150573861999999,0.0199594341999999,0.326161898
160,1778414937060,0.8669137088888889,0.0622292403333333,-0.0300864428888888,-0.1156367831111111,-0.0518286922222222,0.3037777355555555
161,1778414937070,0.847668329,0.0536403270999999,-0.0133208975,-0.15744588,-0.09200887,0.31626618
162,1778414937080,0.79934543,0.029026084,0.018537667,-0.18249062,-0.18791188,0.37857258
163,1778414937090,0.858053127,0.0432921601,-0.0670557448,-0.2069245099999999,-0.2224247499999999,0.399035975
164,1778414937100,0.9155108,0.089822315,-0.090554066,-0.28999972,-0.41148198,0.4201102
165,1778414937110,1.0328957,0.18205331,0.0070735829999999,-0.3447723866666667,-0.4791502966666667,0.3212886955555555
166,1778414937120,1.1261023,0.24745347,0.0263430009999999,-0.37246412,-0.38521555,0.22952586
167,1778414937130,1.1976917666666669,0.27235329,0.0299204456666666,-0.4080968655555555,-0.1329356332222222,0.0342583508888888
168,1778414937140,1.2195833,0.293876904,-0.0018232767999999,-0.41901067,0.0256403137999999,-0.1021642036
169,1778414937150,1.238581744444445,0.3069454222222222,-0.0450466664444444,-0.4201102,0.15538427,-0.2231119599999999
170,1778414937160,1.2183850900000002,0.265847846,-0.1591434304,-0.307897568,0.1825058865,-0.42701279
171,1778414937170,1.1590616,0.22135438,-0.17571147,-0.22158484,0.074752435,-0.44423866
172,1778414937180,1.1284012,0.172156388,-0.141563134,-0.1437629041999999,-0.0372769509999999,-0.387796386
173,1778414937190,1.1074020333333334,0.0981866233333333,-0.0877795126666666,-0.040774056,-0.0844750816666666,-0.2862328466666667
174,1778414937200,1.06097345,-0.007094926,-0.0884533344,0.0447445593,0.05337278,-0.078218991
175,1778414937210,0.9948142,-0.096651986,-0.093481064,0.039246935,0.2812188,0.2313584
176,1778414937220,0.9865446722222224,-0.1074656256666666,-0.1718934959999999,-0.0150505983333333,0.5000378577777779,0.4615799466666666
177,1778414937230,0.9579522,-0.1000668099999999,-0.29016936,-0.07986828,0.6086329,0.6455128
178,1778414937240,0.9441303333333332,-0.061507652,-0.2882180199999999,-0.1401385466666666,0.5544711266666666,0.7501713333333333
179,1778414937250,0.97312697,0.0219768938,-0.2581187159999999,-0.190614895,0.477911624,0.81184656
180,1778414937260,1.0558881777777778,0.1173069844444444,-0.2916396444444444,-0.20570281,0.40155572,0.7524111
181,1778414937270,1.1968992,0.1791263,-0.36194184,-0.19226417,0.27388865,0.49952033
182,1778414937280,1.2012896666666668,0.1953975766666666,-0.4501177033333333,-0.17414237,0.1329865466666666,0.4133908733333333
183,1778414937290,1.33187347,0.234428304,-0.567883749,-0.18407882,-0.0829683289,0.0837777027999999
184,1778414937300,1.273878611111111,0.19338527,-0.8737976444444444,-0.36391225,0.11018158,-0.27075803
185,1778414937310,1.1109642000000002,0.192078279,-0.93078905,-0.56427014,0.12789614,-0.35872006
186,1778414937320,1.0050586,0.2257448899999999,-0.86636156,-0.6522321844444444,0.2164011177777778,-0.3674076688888889
187,1778414937330,0.95331776,0.21110988,-0.91371185,-0.680942,0.20913883,-0.2945811
188,1778414937340,0.95331776,0.21110988,-0.91371185,-0.680942,0.20913883,-0.2945811
189,1778414937350,0.827036033,0.188690889,-0.90427229,-0.5937740779999999,-0.260358382,-0.1760156406
190,1778414937360,0.6721767466666667,0.1339475244444444,-0.7640791222222222,-0.3132119266666666,-0.7239642922222222,0.3187774324444444
191,1778414937370,0.6958638,0.1003107299999999,-0.8353841299999999,0.30313295,-1.1695434,0.96498597
192,1778414937380,0.7419945,0.12689765,-0.8692885,0.7730781166666668,-1.402479866666667,1.3421332566666666
193,1778414937390,0.7899851400000001,0.1892183566666666,-0.9748841666666668,1.3564033222222225,-1.6449183666666665,1.6971288555555557
194,1778414937400,0.903601506,0.235306416,-1.08390779,2.3825333,-1.9930419,2.0157197
195,1778414937410,0.8790078977777778,0.2665839788888889,-1.0742191333333333,3.1365225111111115,-1.865179666666667,1.8023982
196,1778414937420,0.941606749,0.225186917,-0.945579526,3.512601,-1.5555989,1.5624709
197,1778414937430,0.91038847,0.08369391,-0.7211701,3.5058815,-0.91787434,1.2515497
198,1778414937440,0.8941527600000001,0.0445300384999999,-0.7067637999999999,3.35255885,-0.5464792199999999,1.09635632
199,1778414937450,0.8102301833333333,-0.0429022316666666,-0.7250152333333334,3.0425877555555556,-0.0977101119111111,0.8637889222222221
200,1778414937460,0.77504222,-0.086553827,-0.6195514,1.99079692,0.3695472973199999,0.4036784
201,1778414937470,0.8634108222222223,-0.0948903622222222,-0.4006839511111111,1.157716711111111,0.9179252444444445,0.0467467825777777
202,1778414937480,0.8993572999999999,-0.123287686,-0.280278574,0.537148547,1.43817879,-0.2171256614599999
203,1778414937490,0.9800876666666666,-0.1079534539999999,-0.3290740866666666,0.168950176,1.703144,-0.3723623033333333
204,1778414937500,0.98566728,-0.1016766678,-0.479817614,-0.2077186183,1.78929378,-0.540141692
205,1778414937510,0.9721299,-0.10372557,-0.5288723,-0.30282754,1.7803142999999997,-0.5841227
206,1778414937520,0.9629322,-0.0781854606666666,-0.5370841533333333,-1.1558502000000002,0.7358927999999999,-0.93821046
207,1778414937530,0.8931405,-0.0488382197,-0.257423556,-1.36834364,0.214147784,-1.07023494
208,1778414937540,0.8888933700000001,-0.11397006,0.19717614,-1.4684005,-0.07368345,-1.1577083
209,1778414937550,0.881722171,-0.141993041,0.402514336,-1.44531046,-0.007345437,-1.14598004
210,1778414937560,0.9350477866666668,-0.1511842944444444,0.5154772022222223,-1.3926554,0.21769069,-1.042869
211,1778414937570,1.0604582,-0.1159213899999999,0.4034077,-1.45520612,0.3569638659999999,-0.9084826
212,1778414937580,1.1139064,-0.029544408,0.3096827,-1.6608174,0.26716933,-0.7417213
213,1778414937590,1.15169227,0.0045094095,0.439943345,-1.68280782,0.173159929,-0.65485879
214,1778414937600,1.3604553222222222,0.0226029456666666,0.6672204833333333,-1.5545298666666667,0.077195822,-0.6240314
215,1778414937610,1.21468681,0.0301511505,0.943984981,-1.24892302,0.1768250063,-0.6585239049999999
216,1778414937620,1.1875998,0.0585704929999999,1.2138819,-0.54166883,0.8126559,-0.62871456
217,1778414937630,1.19509104,0.1198454063,1.29845382,-0.183223634,1.24978581,-0.726572271
218,1778414937640,1.2082818888888889,0.3218954811111111,1.3254126555555557,0.10827268,1.6367652,-0.9659022
219,1778414937650,1.1804195,0.38926052,1.50209975,0.16660859,1.765654,-1.06485945
220,1778414937660,1.1131747,0.4417331,1.8891652,0.42896748,2.429645,-1.3806676
221,1778414937670,0.7261033539999999,0.186803596,1.76443829,0.701649678,2.59732256,-1.3487812300000002
222,1778414937680,0.4479224700000001,-0.0043905,1.5303942,1.2249014,1.7919203999999995,-0.74416465
223,1778414937690,0.412627728,-0.042996412,1.54679758,1.25245062,1.71703053,-0.6653042712999999
224,1778414937700,0.2405390977777778,-0.2281264511111111,1.5807426111111111,1.6166242666666666,0.7638984377777778,0.388957005
225,1778414937710,0.2273472688888889,-0.2296814288888889,1.3646290555555556,1.806572288888889,0.1427600938888888,1.1954705533333334
226,1778414937720,0.436251072,0.073632334,0.95771132,1.58372844,-0.450576225,1.57700914
227,1778414937730,0.5862842,0.30187738,0.8412076,1.2432269,-0.9710181,1.6907488
228,1778414937740,0.8964548000000001,0.5681429,0.8517265,0.78142637,-1.1585482,1.6803645
229,1778414937750,1.0300398,0.6063768333333334,0.77672214,0.6232847977777778,-1.0774412555555557,1.6257275555555557
230,1778414937760,1.27762326,0.6258840400000001,0.526988072,0.12586508,-0.8693731,1.372864
231,1778414937770,1.3794403,0.61183447,0.3538621,-0.49157932,-0.82441473,0.84648156
232,1778414937780,1.31509201,0.467963269,0.277851574,-1.1739721,-0.92398286,0.3932329
233,1778414937790,1.209670911111111,0.3712682822222222,0.3015216577777778,-1.4487176111111113,-0.9386431622222222,0.1326047533333333
234,1778414937800,1.14056658,0.292065836,0.362356528,-1.58995906,-0.89942679,-0.0085824057
235,1778414937810,1.0623383666666666,0.1809251933333333,0.4597727533333333,-1.6639394333333333,-0.8197315833333333,-0.1243583182222222
236,1778414937820,0.97627646,0.06759541,0.5122555,-1.6501885900000002,-0.557841003,-0.20997874
237,1778414937830,0.9456785044444443,0.0242053424444444,0.5610659,-1.5539191,-0.11644276,-0.18890451
238,1778414937840,0.9388454533333334,0.0121958337666666,0.5938456,-1.4936488333333335,0.0315180222222222,-0.1861896388888889
239,1778414937850,0.92170622,0.00956153372,0.65759326,-1.28490192,0.37938196,-0.188782345
240,1778414937860,0.9205787488888888,0.0148518157777777,0.6391531222222223,-1.1259951333333331,0.4587038722222222,-0.2065512155555555
241,1778414937870,0.93063354,0.052228656,0.6518368,-0.9265025999999998,0.27633202,-0.2560977
242,1778414937880,0.949062837777778,0.0880302017777777,0.6381775111111111,-0.8757344044444444,0.1579633995555555,-0.2723869622222222
243,1778414937890,0.99783258,0.121189991,0.61322482,-0.753693876,-0.2392841508,-0.3231076519999999
244,1778414937900,1.014114011111111,0.13205038,0.6065462444444445,-0.7160996088888889,-0.4450785977777778,-0.3481999044444444
245,1778414937910,1.08285284,0.1762724779999999,0.6349791,-0.60696838,-1.13173196,-0.4537067979999999
246,1778414937920,1.002443346666667,0.1454420888888888,0.6487743,-0.5255831444444445,-1.3130246555555556,-0.4635821655555555
247,1778414937930,0.9340484,0.07710816,0.6528125,-0.36269057,-1.3326397,-0.44484952
248,1778414937940,0.8747462,-0.048569907,0.6206155,-0.1446181,-1.1371685,-0.38437563
249,1778414937950,0.8702743944444444,-0.0998093475555555,0.6150426888888889,0.0850604733333333,-0.8757259000000001,-0.3094450433333333
250,1778414937960,0.8992049200000001,-0.15150274,0.585704912,0.319747996,-0.6130616,-0.22433366
251,1778414937970,0.962315602222222,-0.1267384244444444,0.4461032622222222,0.83029413,-0.04253024,-0.18951537
252,1778414937980,0.965153888,-0.0395754802,0.266155766,1.0067068259999998,0.139746584,-0.202220994
253,1778414937990,0.95185435,0.088846646,-0.023934323,1.0806736444444445,0.2325546433333333,-0.2276593733333333
254,1778414938000,0.9435124,0.1184093384,-0.1079758051999999,1.005240782,0.1952115179999999,-0.23923833
255,1778414938010,0.9252674111111112,0.1407195866666666,-0.1840723844444444,0.8780759655555556,0.1128964562222222,-0.2413016388888889
256,1778414938020,0.8521899599999999,0.13753242,-0.223598412,0.68185824,-0.04497363,-0.18768282
257,1778414938030,0.8843097166666667,0.0923156811111111,-0.1716766911111111,0.4723376299999999,-0.24594238,-0.010537115
258,1778414938040,0.9543178639999998,0.0762757907,-0.122159561,0.42249251,-0.2219971719999999,0.0046118962
259,1778414938050,0.9992047,0.025855167,0.06393666,0.48944137,0.10162971,-0.020921519
260,1778414938060,0.9966029,-0.0021139443333333,0.1254239933333333,0.6173120566666666,0.28854897,-0.0302878436666666
261,1778414938070,0.92875843,0.033322066,0.16168322,0.927541,0.58432124,-0.0466992732
262,1778414938080,0.8764536,0.08418174,0.08344999,1.1729795,0.572593,0.017561859
263,1778414938090,0.8958601749999999,0.10590557,-0.02001641,1.19545862,0.305774872,0.0791352638
264,1778414938100,0.9228553166666666,0.1558322666666666,-0.2171705377777777,1.0430725733333337,-0.0492495666666666,0.1482831716666666
265,1778414938110,0.950305462,0.190797724,-0.32219564,0.8305995300000001,-0.4017084349999999,0.1922641749999999
266,1778414938120,0.9227231555555556,0.1549548522222222,-0.1577564911111111,0.49806109,-1.0252477777777775,0.2226707933333333
267,1778414938130,0.907967555,0.1082654717999999,-0.1015638496,0.454195481,-1.077549872,0.2724684149999999
268,1778414938140,0.9189254999999998,0.01243975,-0.088846646,0.47111595,-0.7566107,0.43477052
269,1778414938150,1.0631413,0.020489,-0.1198240699999999,0.35627666,-0.39071319,0.50746137
270,1778414938160,1.1299812444444446,0.0435425111111111,-0.23832692,0.3046940066666667,-0.2096309086666666,0.50338905
271,1778414938170,1.21028091,0.08249567,-0.41342046,0.149993544,0.1077992629,0.465801577
272,1778414938180,1.3023016,0.15083197,-0.36657628,-0.09636115,0.19631104,0.35841462
273,1778414938190,1.29813073,0.169491589,-0.3887482839999999,-0.2233562979999999,0.396974356,0.249011889
274,1778414938200,1.2592910333333334,0.1093119288888889,-0.4170399111111111,-0.36452309,0.5475482266666667,0.1550024966666666
275,1778414938210,1.2435786666666668,0.0803705393333333,-0.3953686066666667,-0.4665345944444444,0.6606228000000001,0.0765425575555555
276,1778414938220,1.1500092,0.0414018051999999,-0.1809617865,-0.463358178,0.6760704479999999,0.0384528356
277,1778414938230,1.0675318,0.09031015,-0.026861325,-0.18982078,1.025918,0.109188944
278,1778414938240,1.37481187,0.111604069,-0.7000622025000001,-0.257258316,1.08358192,0.0647192655999999
279,1778414938250,1.3984658,0.05881441,-0.7226336,-0.4765117666666667,0.8853722,-0.0958521113333333
280,1778414938260,1.29889892,0.0195682156,-0.384687088,-0.5620711199999999,0.78199139,-0.22628837
281,1778414938270,1.186359911111111,-0.0266953214444444,-0.2548590466666666,-0.4586614633333333,0.8431982755555556,-0.1589051328888888
282,1778414938280,1.15959811,-0.0222238578999999,-0.245459439,-0.38956785,0.9116895,0.025502874
283,1778414938290,1.1248827,0.040032823,-0.31800637,-0.4114226044444444,1.0489944222222225,0.0877414186666666
284,1778414938300,1.1248827,0.040032823,-0.31800637,-0.440146004,1.14149024,0.134355852
285,1778414938310,1.1171044555555556,0.0943144451111111,-0.4366244111111111,-0.4750864577777778,1.0994232333333334,0.1399349344444444
286,1778414938320,1.11751631,0.126726911,-0.528744218,-0.552053188,0.92879326,0.0747371648
287,1778414938330,1.0326518,0.11909231,-0.487376,-0.67910945,0.4479800999999999,-0.057572354
288,1778414938340,1.00979369,0.0681350714,-0.4621031539999999,-0.748379525,0.028511295,-0.1108993214
289,1778414938350,0.9511226000000002,-0.0039026666999999,-0.31044495,-0.79578125,-0.38155046,-0.1601947
290,1778414938360,0.90793106,-0.03070301088,-0.230482962,-0.805615865,-0.4999937360000001,-0.141380597
291,1778414938370,0.8591998944444444,-0.0580555586666666,-0.1182115061111111,-0.8012110033333334,-0.528764651111111,-0.0819383736666666
292,1778414938380,0.7766307,-0.056131326,0.05783874,-0.72919893,-0.34367794,0.0603211669999999
293,1778414938390,0.7795577,-0.0248557857777777,-0.0133612123333333,-0.6808741388888888,-0.0928233302222222,0.1618575607777777
294,1778414938400,0.7517512,-0.012195834,-0.08226089,-0.673001,0.04421007,0.21242213
295,1778414938410,0.75799544,0.0284162924,-0.0693577059999999,-0.652904112,0.0420721047999999,0.238077718
296,1778414938420,0.7712644999999999,0.0563481408888888,-0.1043184255555555,-0.5950161133333334,-0.0616022502222222,0.2173767866666666
297,1778414938430,0.8037358999999998,0.046618573,-0.1149457399999999,-0.5196783,-0.32290915,0.17271706
298,1778414938440,0.8254173755555555,0.0270781392222222,0.0249540306666666,-0.4599510111111111,-0.4076132833333333,0.1493691133333333
299,1778414938450,0.771709624,-0.0257332086,0.043222034,-0.387490964,-0.387414596,0.17528262
300,1778414938460,0.7449215133333333,-0.0471064089999999,0.0362622776666666,-0.3301799133333333,-0.3400128533333333,0.2354307199999999
301,1778414938470,0.7636055049999999,-0.070815113,0.0269771842,-0.258724356,-0.26377912,0.356948592
302,1778414938480,0.9071396777777778,-0.0572662103777777,0.1283848666666666,-0.1525591,-0.17813833,0.49219018
303,1778414938490,1.0121323,-0.0019513334,0.06222924,-0.07986828,-0.06574243,0.47752985
304,1778414938500,1.1017106,0.026586918,-0.042715907,0.0265548862222222,0.0607708144444444,0.4134587566666666
305,1778414938510,1.18209338,0.0848708052,-0.2195981707999999,0.03374931,0.0362690535,0.3510844549999999
306,1778414938520,1.2016419888888887,0.1814265788888888,-0.3010676977777777,0.005853952,-0.0596339653333333,0.2413355633333333
307,1778414938530,1.12204726,0.185224222,-0.153194915,0.0020463372,-0.320465741,0.0313670089
308,1778414938540,0.9960337,0.15327114,-0.005366167,0.0907617173333333,-0.4150113311111111,-0.0198355683333333
309,1778414938550,1.00247314,0.120269212,0.0342702914,0.187682818,-0.424187616,-0.0179894518
310,1778414938560,1.0149406666666667,0.1002294244444444,0.0552911637777777,0.2723869733333333,-0.4528159799999999,-0.0286589183333333
311,1778414938570,1.04104252,0.092261482,0.06154627,0.338195584,-0.487715732,-0.058183202
312,1778414938580,1.0630871222222222,0.09437542,0.0540986834444444,0.36829,-0.4919102222222222,-0.1011461222222222
313,1778414938590,1.0576124777777778,0.0890634577777777,0.0242595454444444,0.33795124,-0.35650572,-0.26098448
314,1778414938600,0.9987168,0.05052124,0.009268833,0.31351736,-0.279539,-0.334897
315,1778414938610,0.9756633,0.035191755,-0.0120230592222222,0.30435466,-0.2466211055555555,-0.3403267555555556
316,1778414938620,0.9572205,0.022928167,-0.0290565729999999,0.2970245,-0.22028679,-0.34467056
317,1778414938630,0.9654560222222222,0.0048241296666666,-0.0236633051111111,0.28643646,-0.2276169533333333,-0.2884726233333333
318,1778414938640,0.9795998,-0.0001951333399999,-0.0246660742,0.280531604,-0.2323815619999999,-0.2642830699999999
319,1778414938650,1.0421644,0.02853825,-0.03808149,0.22127941,-0.19890714,-0.20295401
320,1778414938660,1.02499264,0.040660906,-0.0310566899999999,0.187071971,-0.1458855952,-0.201243623
321,1778414938670,0.9950885444444446,0.0382712011111111,-0.0360217504444444,0.15008178,-0.0865791115555555,-0.1853072999999999
322,1778414938680,0.973736698,0.0341269887999999,-0.0565703738,0.1013701042,-0.0433243408,-0.1454121926
323,1778414938690,0.95673263,0.026343001,-0.06613191,0.06734591,-0.026648212,-0.103996746
324,1778414938700,0.97258727,0.0165863334444444,-0.0887077535555555,0.0516674966666666,-0.014770626,-0.0579117139999999
325,1778414938710,0.9903017,0.0107323335,-0.119229522,0.039246935,-0.0269536349999999,-0.016645588
326,1778414938720,1.0246498666666666,0.006097917,-0.2112657033333333,0.0194283363333333,-0.11189534,0.0347334524444444
327,1778414938730,1.11709564,0.0396364564,-0.306091028,-0.0430952758,-0.3765415079999999,0.056045236
328,1778414938740,1.158085977777778,0.0539360733333333,-0.3054311077777777,-0.068873025,-0.59840125,0.02611372
329,1778414938750,1.1444266,0.06369274,-0.31800637,-0.029167956,-0.8238039,-0.008704574
330,1778414938760,1.213394,0.0890804,-0.32060815,0.0441337146666666,-0.9476023,-0.0420975566666666
331,1778414938770,1.27205287,0.095627527,-0.407798164,0.0789520059999999,-0.9625884,-0.1038745692
332,1778414938780,1.2210468,0.12738548,-0.447831,0.039857782,-0.77921206,-0.20356485
333,1778414938790,1.17462643,0.14055393,-0.4727653799999999,0.0139578596,-0.5637051319999999,-0.2094289859999999
334,1778414938800,1.17516,0.10348164,-0.5212804,-0.0362266368888888,-0.2404447555555555,-0.1781128844444444
335,1778414938810,1.1009789,0.09006623,-0.57131386,-0.05787778,0.15904936,-0.12293301
336,1778414938820,1.0312736,0.0910906828,-0.587214129,-0.032649787,0.280058199,-0.0463938494
337,1778414938830,0.8813319,0.0556434899999999,-0.9486224,0.0974131677777777,0.34949795,0.1802508451111111
338,1778414938840,0.81830386,0.096572712,-1.004159185,0.3297048099999999,-0.123589676,0.479606708
339,1778414938850,0.8095899,0.1027499,-0.94032925,0.56152135,-0.5568636,0.66994673
340,1778414938860,0.9403901999999998,0.15497856,-0.7746184,0.846909198,-0.8554457599999999,0.75399929
341,1778414938870,0.9593852911111111,0.1908343022222222,-0.6419378333333333,1.2094945355555555,-1.0103837888888887,0.7845145177777777
342,1778414938880,0.854257166,0.190200133,-0.483570884,1.6953302999999995,-0.8690066,0.7420267
343,1778414938890,0.90255266,0.19985923,-0.4734727399999999,1.8785844,-0.6326087,0.69071555
344,1778414938900,0.90060127,0.1334834,-0.54936135,2.018671955555556,-0.3187689666666666,0.5582295766666667
345,1778414938910,0.941030488,0.0822426056,-0.6867108,2.01675796,-0.0387429949999999,0.413024384
346,1778414938920,1.0222649555555554,-0.0606945997777777,-1.0170545666666666,1.8445805333333336,0.3184804916666667,0.129346908
347,1778414938930,1.05514084,-0.257920551,-1.33896842,1.31873523,0.4622128359999999,-0.3314762588
348,1778414938940,1.055336,-0.4197501,-1.4393827,0.6458183,0.37223506,-0.802806
349,1778414938950,1.05138446,-0.41096907,-1.43082127,0.13673816,0.341448346,-1.00676796
350,1778414938960,1.0148830111111111,-0.3492514,-1.3317105,-0.3217638066666667,0.37182782,-1.0962163333333337
351,1778414938970,0.98632584,-0.250441454,-1.21613806,-0.762253394,0.4823097069999999,-1.14964509
352,1778414938980,1.0109127,-0.12567806,-1.0506406,-1.1800805,0.67704785,-1.2016892
353,1778414938990,0.914663132,-0.0706260703999999,-0.776917272,-1.45361794,0.73349012,-1.26918787
354,1778414939000,0.8757219,-0.06198532,-0.14741714,-1.5074947,0.73935425,-1.3232479
355,1778414939010,0.79958934,-0.12104365,0.28455928,-1.1953517,0.8842014,-1.2957598
356,1778414939020,0.6943799355555555,-0.1882833477777777,0.4322914577777778,-0.7415685644444445,1.114151477777778,-1.1632058555555558
357,1778414939030,0.615316369,-0.256453998,0.176187096,-0.2067412529999999,1.11058147,-0.83725779
358,1778414939040,0.5894551,-0.29016936,-0.041008487,0.1269374568888889,0.2022159111111111,-0.2797171461111111
359,1778414939050,0.715078315,-0.210234816,0.0382949185,0.2127275599999999,-0.3858264,0.029778805
360,1778414939060,0.90401614,-0.0939689,0.2389163799999999,0.3305532011111111,-0.5207557866666667,0.1922641777777777
361,1778414939070,0.90401614,-0.0939689,0.2389163799999999,0.36421767,-0.55930704,0.23868857
362,1778414939080,1.09016726,-0.0381058829999999,0.103917647,0.467939551,-0.435915883,0.454562
363,1778414939090,1.2415359,0.041252404,0.50249887,0.5193729,-0.05596888,0.53800374
364,1778414939100,1.2383649,0.13372731,0.7885216,0.65461446,0.5003907890000001,0.368127111
365,1778414939110,1.1666229,0.1276294,0.9727702,0.6696413,0.56220853,0.34925193
366,1778414939120,1.06772081,0.096533069,0.8408722450000001,0.77269124,1.514084189,-0.065085777
367,1778414939130,1.0467989111111111,0.1925620522222222,0.7680834033333334,0.5453678555555556,2.0718921444444445,-0.4555054088888888
368,1778414939140,1.0162787,0.32215294,1.0808862,0.13875396,2.29367029,-0.6585849619999999
369,1778414939150,0.9606691444444444,0.3154892744444444,1.2205860555555554,-0.14645062,2.6061797,-0.6488725
370,1778414939160,0.75980043,0.34142238,1.6780553,-0.365256127,2.84862503,-0.493839472
371,1778414939170,0.5694234288888889,0.3994982455555556,1.8526860888888887,-0.4844528166666666,2.9847015333333333,-0.3043546466666667
372,1778414939180,0.473637384,0.4988766939999999,2.01856292,-0.671962522,3.2768367599999997,-0.0760199415
373,1778414939190,0.40520656,0.7348295,2.200799,-0.9503256,3.7436538,-0.091168955
374,1778414939200,0.210317142,0.846503623,2.06341601,-1.1996276,4.1290984,-0.20722993
375,1778414939210,0.16311927,0.8016931,2.1095438,-1.5453672,3.9220212,-0.26831466
376,1778414939220,0.1587660366666666,0.6162147944444444,2.0375375222222223,-1.4401657555555554,3.2130566444444444,-0.1977278655555555
377,1778414939230,0.398956178,0.356947646,1.65759666,-0.8868815050000001,1.485397315,-0.0223875526999999
378,1778414939240,0.6187251,0.31163403,1.1704341,-0.20142688,-0.84823775,-0.042301174
379,1778414939250,0.6793688999999999,0.317369136,1.0199772299999998,-0.03210002275,-1.527744275,-0.0708888244
380,1778414939260,0.84864706,0.28163227,0.8812404,0.0013744063,-2.2227204,-0.03130592
381,1778414939270,0.885185828,0.238071809,0.79241208,0.0013744063,-2.29327326,0.0127361662
382,1778414939280,0.9127971577777778,0.1578005422222222,0.705966,0.0393826794,-2.3287363222222224,0.1332834713333333
383,1778414939290,0.91429114,0.15010023,0.6999189,0.1462673764,-2.2067163200000004,0.2869454919999999
384,1778414939300,0.93803238,0.0456429098,0.6353216333333332,0.29498831,-1.8942374,0.4868961466666666
385,1778414939310,0.954320933,-0.00682966697,0.5995106,0.3595752239999999,-1.67153772,0.5755097279999999
386,1778414939320,0.99961111,0.003496139,0.5752164933333334,0.4631749333333333,-1.0321028333333333,0.7214615333333333
387,1778414939330,1.00961996,0.0398590327,0.621929584,0.4626862519999999,-0.6852637500000001,0.7448365800000001
388,1778414939340,1.0054110111111112,0.0934946122222222,0.675784711111111,0.3715478466666667,-0.3017331066666667,0.7393797000000001
389,1778414939350,0.99457022,0.175900502,0.764825152,0.229098262,0.019715094,0.709468553
390,1778414939360,0.983106177777778,0.1970677377777777,0.8106875333333333,0.10949437,0.1621036,0.6406261
391,1778414939370,0.9870359611111112,0.2087113744444444,0.7646923222222222,0.0978204011111111,0.0545944773333333,0.5822562333333333
392,1778414939380,0.97769125,0.20406069,0.67399058,0.0524412376,-0.3114252172,0.43208282
393,1778414939390,0.9977411000000002,0.16351563,0.68504,0.0056503372,-0.4784715755555556,0.2835519166666666
394,1778414939400,1.0367984,0.19742006,0.6352505,-0.0399188673899999,-0.581725093,0.100820343
395,1778414939410,1.0678028444444445,0.2102392333333333,0.5708293799999999,-0.119912704111111,-0.6210026111111112,-0.0604908455555555
396,1778414939420,1.04494512,0.178059174,0.5570934679999999,-0.282852819,-0.568225405,-0.269047669
397,1778414939430,1.0029514666666666,0.1422711711111111,0.5856710333333334,-0.46504141,-0.374899011111111,-0.4942602622222222
398,1778414939440,0.95222321,0.1002131689999999,0.573387164,-0.567019005,-0.177588569,-0.643558155
399,1778414939450,0.83788425,0.03149574,0.3921875,-0.676666,-0.14026581,-0.7612684
400,1778414939460,0.7976623700000001,-0.0122385191999999,0.31974426,-0.7538771200000001,-0.4740327619999999,-0.75100616
401,1778414939470,0.8093053444444445,-0.0295579562222222,0.3172170166666667,-0.7921840388888888,-0.7342808333333333,-0.7402959666666666
402,1778414939480,0.8340425666666667,-0.0329863402222222,0.3390678855555555,-0.8201472833333333,-0.9987098111111112,-0.7378525888888888
403,1778414939490,0.8652333599999998,-0.024391668,0.45929506,-0.86798339,-1.06557719,-0.7583363299999999
404,1778414939500,0.8823075,-0.00073175,0.5613132,-0.9075663,-0.3974325,-0.7899782
405,1778414939510,0.93019146,0.0550550443,0.54262614,-0.9075663,-0.3974325,-0.7899782
406,1778414939520,0.9408780666666668,0.0740287113333333,0.4723039666666666,-0.9096024666666668,0.1293469,-0.8359953666666666
407,1778414939530,0.911595864,0.070772422,0.267576604,-0.90781064,1.35846318,-0.93682588
408,1778414939540,0.8065883577777778,-0.0252013344444444,0.0323528376666666,-0.9033582666666666,1.5335999,-0.8802478666666667
409,1778414939550,0.67910365,-0.145325544,-0.0131440591,-0.890890201,1.43866745,-0.66933592
410,1778414939560,0.96286106,-0.05783874,0.028050419,-0.81166327,1.297745,-0.45828816
411,1778414939570,0.98456963,-0.0004878334999999,0.1107839045,-0.707208385,1.22322165,-0.4213318949999999
412,1778414939580,0.9495303666666668,0.105643014,0.28424761,-0.3400213177777778,1.1734037111111109,-0.2342429511111111
413,1778414939590,0.932877626,0.1580244679999999,0.27414101,-0.020616092,1.13892472,-0.03252761568
414,1778414939600,0.8681604,0.1657109,-0.0031709166,0.44362783,0.6581116,0.3400892
415,1778414939610,0.829716054,0.143950466,-0.17670543666,0.511065326,0.2573957759999999,0.549732
416,1778414939620,0.8863965844444445,0.1391476888888889,-0.2007569611111111,0.4933100466666666,-0.1042258133333333,0.73449294
417,1778414939630,0.9227367766666666,0.1440632866666666,-0.174258128,0.4827899088888888,-0.2653537455555555,0.8070480244444445
418,1778414939640,1.047719666,0.207981648,-0.0966519808,0.586077392,-0.424187608,0.82241424
419,1778414939650,1.1952086222222222,0.3098690377777778,-0.1686616066666666,0.8272399,-0.4621823,0.7627955
420,1778414939660,1.2017775,0.30138955,-0.2086706999999999,0.9393914559999998,-0.50286473,0.7468524049999999
421,1778414939670,1.2207487444444445,0.2708051011111111,-0.2785257311111111,1.0642486333333332,-0.4824081288888889,0.8382011944444444
422,1778414939680,1.26379324,0.222525176,-0.414944944,1.21231802,-0.4695124639999999,1.0161749
423,1778414939690,1.3522299333333332,0.1956347211111111,-0.57060916,1.1509211333333331,-0.5605286888888888,1.2073566
424,1778414939700,1.4655733,0.20034707,-0.62720126,0.8968765,-0.6442148,1.1775608
425,1778414939710,1.4889317555555557,0.2267408811111111,-0.6566304577777777,0.6757498,-0.7840988,0.9796462700000002
426,1778414939720,1.49072725,0.2396481399999999,-0.652705775,0.4790569679999999,-1.03210278,0.765422141
427,1778414939730,1.4676263,0.2357454733333333,-0.60832818,0.2785633155555555,-1.2429129555555556,0.5392254133333334
428,1778414939740,1.35561566,0.1914257999999999,-0.500699952,-0.0259915532,-1.44980016,0.1977618059999999
429,1778414939750,1.2447405666666669,0.1340017222222222,-0.3162549044444444,-0.3204742097777778,-1.497839922222222,-0.1206932377777777
430,1778414939760,1.17504113,0.084355528,-0.2335044909999999,-0.60825115,-1.2929345,-0.50593424
431,1778414939770,1.075825,0.026586918,-0.1242145699999999,-0.7456239055555556,-0.951403122222222,-0.7122648711111111
432,1778414939780,1.0311475777777777,0.0070735842222222,-0.1153251611111111,-0.8150568888888888,-0.6698025333333333,-0.7689379222222222
433,1778414939790,0.95654364,-0.0243428838,-0.125117064,-0.89498288,-0.305683248,-0.783869756
434,1778414939800,0.9123398,-0.016586334,-0.12839164,-1.052948,0.28549474,-0.75393826
435,1778414939810,0.84849461,-0.0479235276,-0.1928039319999999,-1.1474994500000002,0.4625182719999999,-0.7090409529999999
436,1778414939820,0.7909438166666667,-0.0547220273333333,-0.2348781977777778,-1.258269,0.50845397,-0.6250495
437,1778414939830,0.7994521,-0.037334495,-0.218427375,-1.25735275,0.439733655,-0.5929800000000001
438,1778414939840,0.8227614,0.005854,-0.19354787,-1.2091975666666666,0.2010620777777777,-0.4881517888888889
439,1778414939850,0.82056612,0.0480302409999999,-0.145224944,-1.10756537,-0.0274423116,-0.335019168
440,1778414939860,0.80910206,0.0910419,-0.10909174,-1.0337402333333334,-0.1635458675555555,-0.2040399544444444
441,1778414939870,0.797784344,0.118046526,-0.0642080172,-0.8897907,-0.2865637199999999,-0.02055501077
442,1778414939880,0.8266641,0.1483928,-0.048813824,-0.8057584333333333,-0.3381803133333333,0.0751851149
443,1778414939890,0.8627881800000001,0.14349008,-0.0160070316,-0.6540036180000001,-0.420522527,0.234840233
444,1778414939900,1.0104249,0.13665432,0.016586334,-0.4872355422222221,-0.4811185699999999,0.36343714
445,1778414939910,1.06352855,0.140096591,0.05475929,-0.399952245,-0.446911125,0.375640513
446,1778414939920,1.1126869,0.15229547,0.082230404,-0.27045262,-0.24838577,0.34680852
447,1778414939930,1.10227167,0.1630521949999999,0.0443044145,-0.202892911,-0.1363563797999999,0.323718502
448,1778414939940,1.1053965555555554,0.1760637922222222,0.0077240284444444,-0.1438036233333333,-0.0203361233333333,0.3036419933333333
449,1778414939950,1.1166708666666667,0.19687801,-0.0044176019555555,-0.053601846,0.12239852,0.23441264
450,1778414939960,1.09163683,0.18920007,0.01124455803,0.0579999503999999,0.043782476,0.145900871
451,1778414939970,1.0716784,0.1703453,0.03561183,0.17519439,-0.0806063866666666,0.0432174442222222
452,1778414939980,1.0655317,0.160969751,0.0317335559999999,0.2531656459999999,-0.16543271,-0.0204328412
453,1778414939990,1.0189144222222222,0.1032377277777777,-0.0056066956666666,0.3325214888888889,-0.2698332955555556,-0.0793592435555555
454,1778414940000,0.98400862,0.0444507652,-0.0152264982999999,0.35407762,-0.33072798,-0.052074732
455,1778414940010,0.9657609066666666,0.0019547211111111,-0.0106002124444444,0.3279061977777778,-0.2938599488888889,0.0054127844444444
456,1778414940020,0.926929047,-0.0314682969499999,-0.0271509740999999,0.284563191,-0.21857642,0.081395395
457,1778414940030,0.90992769,-0.0481362764444444,-0.056564949,0.2453060755555555,-0.1888620888888889,0.1882597388888889
458,1778414940040,0.904851518,-0.0474966728,-0.0964507449999999,0.224700156,-0.21772124,0.2576248339999999
459,1778414940050,0.8927960399999999,0.0039026666999999,-0.07543123,0.20478654,-0.3149681,0.32237464
460,1778414940060,0.904238694,0.05134750707,-0.0055673979999999,0.203320516,-0.28076066,0.298918112
461,1778414940070,0.91404724,0.08515741,-0.002927,0.2148315933333333,-0.2141783166666666,0.25063403
462,1778414940080,0.921486705,0.089441195,-0.0259923699999999,0.2327633479999999,-0.138066752,0.176748654
463,1778414940090,0.94128459,0.08004532,-0.1063375066666666,0.24550969,-0.1179359444444444,0.1036234488888889
464,1778414940100,0.95258605,0.044911157,-0.21769562,0.2610523611111111,-0.28245746,0.0237382031111111
465,1778414940110,0.9481956,0.027806502,-0.30288354,0.24693501,-0.4572955399999999,0.029167956
466,1778414940120,0.9425041733333336,0.0260177786666666,-0.2840003133333333,0.2387903788888888,-0.5259819222222223,0.03568366
467,1778414940130,0.92929198,0.0256112505,-0.243809955,0.232580095,-0.61397785,0.0496313385
468,1778414940140,0.917597561111111,0.0179414263333333,-0.1969356133333333,0.2524326333333333,-0.5643973999999999,0.064393479
469,1778414940150,0.93653638,0.00858586685,-0.215158888,0.2817533,-0.32413083,0.08292252
470,1778414940160,0.9584129388888888,-0.0032522222333333,-0.3222545711111111,0.2864364633333333,-0.0744979155555555,0.0822437933333333
471,1778414940170,0.96481246,0.0075614169999999,-0.4363669499999999,0.28358585,0.12667444,0.09147438
472,1778414940180,0.9860602522222222,0.0445791592222222,-0.4754715088888889,0.2679074288888888,0.2112428633333333,0.0957503066666666
473,1778414940190,0.962763496,0.0895479074,-0.606114608,0.2323357549999999,0.19209619,0.101492274
474,1778414940200,0.9530738600000002,0.1290929,-0.6359822,0.23288552,-0.03825431,0.09269607
475,1778414940210,0.96749544,0.1378739,-0.6232986,0.307164563,-0.286197194,0.06526902893
476,1778414940220,1.0052415466666669,0.1406382866666666,-0.6345187666666666,0.39842513,-0.43408334,0.0053449133
477,1778414940230,1.0912933333333334,0.1321012066666666,-0.71285665,0.4582881633333333,-0.5065705399999999,-0.0773230822333333
478,1778414940240,1.18288614,0.110555234,-0.8085898699999999,0.507033776,-0.580442332,-0.203748107
479,1778414940250,1.2651382111111111,0.1033732477777777,-0.8980131166666667,0.4217052,-0.5096926555555555,-0.4742380722222223
480,1778414940260,1.41014641,0.157414666,-1.0111381949999998,0.1879271599999999,-0.18711779,-0.733291587
481,1778414940270,1.4284708555555554,0.1728115833333333,-1.0325331555555557,-0.0857052611111111,0.1995688877777778,-0.974521911111111
482,1778414940280,1.33643766,0.16068621,-1.01919364,-0.336729565,0.5338041600000001,-1.1473238499999998
483,1778414940290,1.1226162333333332,0.1286965366666666,-1.0187383333333333,-0.6212825666666667,0.8094489766666667,-1.2707150333333332
484,1778414940300,0.91442528,0.0955787479999999,-0.99650936,-0.75424364,0.641756128,-1.2245350199999998
485,1778414940310,0.7802894066666667,0.0578489046666666,-0.8876127666666666,-0.6907833777777778,0.0532370357777777,-1.1061256555555556
486,1778414940320,0.6577823,-0.010000584,-0.6926014,-0.5472886,-0.3030565896,-0.99894909
487,1778414940330,0.6491097044444445,-0.0366959075555555,-0.68826508,-0.31504446,-0.70407784,-0.7783721
488,1778414940340,0.6209068077777778,-0.0245678291111111,-0.7651496844444444,-0.2403853544444444,-0.9548645955555556,-0.5727202
489,1778414940350,0.5734541500000001,0.0162936331999999,-0.95358612,-0.239299414,-1.35976128,-0.22005772
490,1778414940360,0.7830707944444444,-0.0125752604444444,-0.6097137577777778,-0.4293407722222222,-1.7969514777777778,0.0924924533333333
491,1778414940370,0.6398635899999999,0.0367368994999999,-0.270643832,-0.4953054819999999,-1.7780313200000002,0.271491064
492,1778414940380,0.80593115,0.1454658,-0.050033405,-0.4085041,-1.7180842,0.5868715
493,1778414940390,0.922950175,0.21525645,0.1299466125,-0.2777827899999999,-1.65852665,0.573738275
494,1778414940400,0.9510209066666666,0.3147778555555555,0.5466070833333333,0.39842513,-0.8109761,0.40361732
495,1778414940410,0.8818197,0.23013538,0.29748687,0.751922423,0.076890406,0.36293489
496,1778414940420,0.9479517,0.19473697,0.04978949,0.85472804,0.45531029,0.3284831
497,1778414940430,0.983094,0.1733698659999999,0.0162570458,0.862791236,0.441749468,0.274239872
498,1778414940440,1.0501798777777778,0.1300753368888888,0.1032241762222222,0.9242288755555556,0.4303334155555556,0.2133723322222222
499,1778414940450,1.1561548333333331,0.0805534795555555,0.3084529622222222,1.1253333,0.52861196,0.19287503
500,1778414940460,1.25504881,0.0519115661999999,0.33525129,1.3237977,0.680896136,0.151093061
501,1778414940470,1.3113569,0.06222924,0.3274886,1.346935166666667,0.6858711511111112,0.0536018466666666
502,1778414940480,1.3533807,0.124251151,0.293340269,1.25507728,0.664586508,-0.0316724299999999
503,1778414940490,1.3184136555555557,0.1924028233333333,0.4462929933333333,0.8366062,0.7862367533333333,-0.3202366766666666
504,1778414940500,1.30767087,0.236843074,0.802382173,0.318281978,1.305014043,-0.566957888
505,1778414940510,1.2569331,0.21598822,0.99545443,-0.07437065,2.5683074,-0.7185091
506,1778414940520,1.13764872,0.146563435,0.900345229,-0.2107117579999999,3.0971789,-0.67782667
507,1778414940530,1.05623035,0.109975932,0.9540495933333334,-0.2309511666666666,3.1669376333333332,-0.5936926333333333
508,1778414940540,0.847128702,0.0175254125999999,1.13793224,-0.196417938,3.0525870399999997,-0.295558446
509,1778414940550,0.7207839599999999,-0.013388315,1.3331401,-0.1053202486666666,2.7041869555555555,0.028421365
510,1778414940560,0.59992526,0.0362246772999999,1.74846489,0.0199441636,2.4975712999999997,0.2918933635
511,1778414940570,0.4969836022222222,0.0888432533333333,2.1668168666666663,0.2371614455555555,2.636993688888889,0.3773508866666667
512,1778414940580,0.397041448,0.1692659759999999,2.0302526199999997,0.420171283,2.57459904,0.427196028
513,1778414940590,0.4386536333333333,0.3298701933333333,1.7139821555555554,0.5378340377777778,1.9116465222222223,0.4861495666666666
514,1778414940600,0.6577721133333333,0.5343401444444446,1.5367630888888888,0.5717021233333334,0.81779724,0.5119408933333334
515,1778414940610,0.7898022,0.48981518,1.5640852,0.389628918,-0.445994848,0.277966045
516,1778414940620,0.8303736666666668,0.4540136333333333,1.3356708,0.2921377,-1.1756519,0.07375981
517,1778414940630,0.8354451,0.44953844,1.307119,0.204175697,-1.44808975,-0.00962084
518,1778414940640,0.8943509466666667,0.4752309999999999,1.05362856,0.0120302973333333,-1.7554816555555557,-0.13881504
519,1778414940650,0.970590172,0.4048498429999999,0.8300179240000001,-0.219385804,-1.65590002,-0.1930582719999999
520,1778414940660,1.0439633499999998,0.2543745966666667,0.65444874,-0.4302909833333334,-1.3006719333333332,-0.1392222699999999
521,1778414940670,1.06836418,0.104923807,0.476497276,-0.58858186,-0.9489054,-0.0553733056
522,1778414940680,1.0460671,0.05344824,0.3951145,-0.6183640666666668,-0.7629227444444445,0.0348691965555555
523,1778414940690,1.0381642599999998,0.040130388,0.355417078,-0.59090308,-0.71482874,0.0979493588
524,1778414940700,1.0226308333333334,0.0353171,0.3341760033333333,-0.5420760444444445,-0.7004127444444443,0.1689162344444444
525,1778414940710,1.00322926,0.0592321153999999,0.380067918,-0.51845664,-0.7052995,0.19715095
526,1778414940720,1.0138396,0.118604474,0.5149386,-0.34131092,-0.7285117,0.31076854
527,1778414940730,0.9603914,0.17327231,0.5534774,-0.310035528,-0.6517893,0.30441574
528,1778414940740,0.9603914,0.17327231,0.5534774,-0.30221668,-0.6326087,0.30282754
529,1778414940750,0.9335605444444444,0.2310297433333333,0.5669809022222222,-0.3384602866666666,-0.5037199133333333,0.3126010733333333
530,1778414940760,0.935883886,0.2583504319999999,0.642970412,-0.383215026,-0.382955421,0.291771181
531,1778414940770,1.0277734,0.23623328,0.58960754,-0.3852919,-0.2270061099999999,0.22524993
532,1778414940780,1.1410117,0.21818347,0.4373120999999999,-0.4111307469999999,-0.1742289129999999,0.114197895
533,1778414940790,1.1605249666666666,0.1973489166666666,0.40983082,-0.4333452244444444,-0.1306958633333333,0.0404346944444444
534,1778414940800,1.15013413,0.151396028,0.486113764,-0.4160786199999999,-0.0213949252,-0.0233649076
535,1778414940810,1.1522319,0.08787098,0.58204615,-0.1965401,0.3716242,-0.033749312
536,1778414940820,1.10088734,0.0611133208,0.5617279500000001,-0.1191457549999999,0.469543,-0.0551289626
537,1778414940830,1.0304530222222223,0.0304624821111111,0.4868305655555556,0.022143213,0.6862105,-0.090558104
538,1778414940840,0.995302,0.0302456669999999,0.45734373,-0.0010689828,0.8193752,-0.09972081
539,1778414940850,0.9345701166666668,0.0331150751111111,0.3982955955555555,-0.0625609409333333,0.8471178666666667,-0.09320511
540,1778414940860,0.8939918388888888,0.0180803228888888,0.3562741844444445,-0.1617218177777778,0.7854477777777777,-0.0611695657777777
541,1778414940870,0.924264331,-0.0103420663999999,0.370326477,-0.18676655,0.43393064,0.010231691
542,1778414940880,0.9552691599999998,-0.0160985,0.3670336,-0.08536591,0.19997612,0.06398625
543,1778414940890,0.971678662,0.0008781003999999,0.35225227,-0.0206160975,0.17523681,0.08903099
544,1778414940900,0.9024104433333334,0.010732334,0.33817015,0.0984312511111111,0.2088673499999999,0.1459755244444444
545,1778414940910,0.99408233,0.04783816,0.31675628,0.2332520159999999,0.44174947,0.2237838959999999
546,1778414940920,0.90337928,0.0442031215555555,0.3232505822222222,0.3791494944444444,0.8309049788888889,0.2834161488888889
547,1778414940930,0.8631784079999999,0.0114640836,0.239343232,0.41730029,1.0758242,0.343387799
548,1778414940940,0.8461774,-0.026586918,0.15324064,0.3672719,1.1731322,0.40606073
549,1778414940950,0.8185629889999999,-0.03243786873,0.0994539687,0.304415731,1.0878579,0.429028569
550,1778414940960,0.7885826,-0.0012195833,0.023659917,0.1314848755555555,0.9626613666666668,0.4186848999999999
551,1778414940970,1.0792702,0.17327231,0.009756667,-0.03955236,0.9110787,0.2948865
552,1778414940980,1.07476996,0.187431666,0.0129763662,-0.073759804,0.8942192999999999,0.1653868872
553,1778414940990,1.003117466666667,0.1411464466666666,0.011789305,-0.1264284088888888,0.8886130555555556,-0.1062365142222222
554,1778414941000,0.91135808,0.028904128,-0.0325079952,-0.105890372,0.895929676,-0.219813376
555,1778414941010,0.821054,-0.0566191559999999,-0.13034298,-0.0599818057777777,0.7398378111111111,-0.2537222
556,1778414941020,0.90385461,0.0137386074,-0.264844718,-0.1220167334,0.393370363,-0.198678073
557,1778414941030,1.0809777,0.14717323,-0.2513866,-0.3773509,0.37040251,-0.29641363
558,1778414941040,1.1937282,0.2047680299999999,-0.1659548,-0.57251662,0.574914181,-0.557550853
559,1778414941050,1.180698933333333,0.2516203633333334,-0.1134110866666666,-0.6483634733333333,0.6957805,-0.8313122333333333
560,1778414941060,1.04746358,0.271314608,-0.043645839,-0.6060521120000001,0.67985774,-1.1169037
561,1778414941070,0.686351,0.09957898,-0.24037987,-0.2493444588888889,-0.0313992444444444,-1.173454522222222
562,1778414941080,0.5965287,0.011708,-0.33678794,0.04352287,-1.0369896,-1.0074399
563,1778414941090,0.61899954,0.00048783334,-0.3421541,0.1960989411111111,-1.836317066666667,-0.7641868866666667
564,1778414941100,0.61899954,0.00048783334,-0.3421541,0.21517095,-1.9362330000000003,-0.73378026
565,1778414941110,0.8765481239999999,0.130739337334,-0.205463201,0.248034535,-2.27433694,-0.530734606
566,1778414941120,1.1838969555555556,0.2911382611111111,-0.0235650618544444,0.2145601033333333,-1.714571911111111,-0.3264130155555556
567,1778414941130,1.2466581,0.27114385,-0.038325407,0.2112004369999999,-0.6806212749999999,-0.359758485
568,1778414941140,1.116657211111111,0.18857129,-0.1290556371111111,0.25915194,-0.22028679,-0.3141282
569,1778414941150,1.0014547,0.115037194,-0.221311692,0.273079272,-0.317778024,-0.231297318
570,1778414941160,0.9548355088888888,0.0531230188888888,-0.3227999844444444,0.2755090766666666,-0.7451403144444444,0.0328330388888888
571,1778414941170,1.097408536,0.1277239174999999,-0.328202054,0.19501299,-1.3179793,0.33581328
572,1778414941180,1.2559506333333337,0.2149244522222222,-0.2643141988888888,0.0640201866666666,-1.3378658444444445,0.3603150477777778
573,1778414941190,1.349164,0.25013652,-0.23135497,-0.09025268,-1.1249516,0.30832514
574,1778414941200,1.363816,0.2603166644444444,-0.2442452922222222,-0.2002051799999999,-0.8973091999999999,0.2447970333333333
575,1778414941210,1.3017662222222222,0.2448008777777777,-0.2298135588888888,-0.35943271,-0.5700986311111111,0.1685090066666666
576,1778414941220,1.22534288,0.201862393,-0.168518982,-0.4455825320000001,-0.360903826,0.135455377
577,1778414941230,1.0807677333333334,0.1286626591111111,-0.0648648955555555,-0.5335242222222223,-0.1136600066666666,0.1731242866666666
578,1778414941240,1.06011677,0.0972373743999999,0.0120708254,-0.592369128,0.065711899,0.1987391519999999
579,1778414941250,1.0292504777777778,0.077775536,0.026857936,-0.64496986,0.2548166266666667,0.2004766755555555
580,1778414941260,0.938618836,0.0371088722,-0.0660861713,-0.7302984419999999,0.5199989840000001,0.205458482
581,1778414941270,0.96286106,0.08369391,-0.23989205,-0.8831324,0.46141875,0.21181129
582,1778414941280,0.98961058,0.1222293533333333,-0.2190236188888888,-0.9428596888888888,0.2811509366666667,0.1727170677777777
583,1778414941290,1.02127914,0.1607776719999999,-0.1240316259999999,-0.9503256,0.25861746,0.16783029
584,1778414941300,1.0255239333333332,0.1694238422222222,-0.0548710877777777,-0.952226,0.0335541844444444,0.0874699371111111
585,1778414941310,1.03992044,0.1587348759999999,0.0613389459999999,-0.921371452,-0.2409334299999999,-0.0481653064
586,1778414941320,1.056609788888889,0.1246617455555555,0.0799267504444444,-0.8650784966666667,-0.1071443066666666,-0.1077975735555555
587,1778414941330,1.0334292399999998,0.0621103282999999,0.0370539912,-0.8156948740000001,0.0454317631999999,-0.1614163928
588,1778414941340,1.0121323,0.044911157,0.02414775,-0.78417516,0.08574768,-0.17852011
589,1778414941350,1.0148153,0.0580826599999999,0.057594825,-0.758336286,0.091795068,-0.179619631
590,1778414941360,1.0481709,0.0893243173333333,0.073855935,-0.7298097333333333,0.1319684533333333,-0.18666474
591,1778414941370,1.09143866,0.1380934186,0.078254568,-0.687844585,0.2341835609999999,-0.2088181389999999
592,1778414941380,1.1590616,0.2257448899999999,0.036343586,-0.6341103533333334,0.3964653366666666,-0.2304421311111111
593,1778414941390,1.14808529,0.235403996,0.045371549,-0.586016324,0.456287644,-0.233618534
594,1778414941400,1.1020698222222225,0.2311652411111111,0.056998584,-0.5011492666666667,0.5019382911111111,-0.2198541133333333
595,1778414941410,1.0389428222222223,0.2246607922222222,0.0567817706666666,-0.3751789777777777,0.5142909666666666,-0.1576834355555555
596,1778414941420,1.00452812,0.2265741939999999,0.0546190406,-0.239299418,0.4809658599999999,-0.073210044
597,1778414941430,0.9673599288888888,0.2662621311111111,0.0316041473333333,-0.087130576,0.38547008,0.0244847966666666
598,1778414941440,0.9728616,0.28407145,0.052960407,0.0064444384,0.3540317979999999,0.042484428
599,1778414941450,0.9523590666666668,0.2731222988888889,0.0326746708666666,0.0581153295555555,0.3387063244444444,0.0402989522222222
600,1778414941460,0.915315606,0.2376754619999999,-0.01795531623,0.160072526,0.262893397,0.0564728292
601,1778414941470,0.9036130355555556,0.2009737911111111,-0.038325407,0.29580277,0.13339376,0.13484453
602,1778414941480,0.907385246,0.177150588,-0.0297639317,0.35737618,0.073469654,0.174427439
603,1778414941490,0.9079492999999998,0.1561168322222222,-0.0140150457777777,0.4460712,-0.0009926268,0.22280654
604,1778414941500,0.9055813,0.14862656,-0.0076427226666666,0.4670436333333334,-0.0160601928666666,0.2276933166666667
605,1778414941510,0.91628522,0.13855686,0.025855164,0.5174181819999999,-0.0289694318,0.2217070179999999
606,1778414941520,0.9541850222222222,0.1483894266666666,0.0399752311111111,0.5393272055555555,0.0454996356666666,0.1569029033333333
607,1778414941530,0.99490863,0.153563841,-0.0745470259999999,0.55663455,0.1584385,-0.0056503373
608,1778414941540,1.0103434777777778,0.1695593555555555,-0.1792516533333333,0.5431959,0.06314634,-0.07773031
609,1778414941550,1.01369326,0.181321564,-0.23878224,0.5230379399999999,-0.0215170919999999,-0.1026528796
610,1778414941560,1.0252461,0.2114825411111111,-0.2788408,0.5011153222222222,-0.1288633133333333,-0.1253764004444444
611,1778414941570,1.03457556,0.2458954389999999,-0.300974874,0.507155962,-0.187972968,-0.134966704
612,1778414941580,1.0072539,0.28090054,-0.3629175,0.5945071,-0.14393088,-0.1241547
613,1778414941590,0.987740564,0.301584668,-0.411530108,0.656080508,-0.164455344,-0.080173704
614,1778414941600,0.9697720277777776,0.3359952055555555,-0.3862860788888889,0.6752746577777777,-0.2460781355555555,0.0025621642222222
615,1778414941610,0.980740157,0.351374165,-0.279833385,0.6709851600000001,-0.223463204,0.0455386631999999
616,1778414941620,0.9680646222222222,0.3469511444444444,-0.2520641644444444,0.6984190155555556,-0.0847465711111111,0.0614749886666666
617,1778414941630,0.9870088,0.30285305,-0.436123,0.78142637,0.14438902,0.07009472
618,1778414941640,1.0015219,0.264756306,-0.602681518,0.7711641109999999,0.143533837,0.0705223149999999
619,1778414941650,1.0289014666666667,0.2189965166666666,-0.7941317333333333,0.74538635,0.1048196933333333,0.0836012338888888
620,1778414941660,1.0419693200000002,0.191383114,-0.904107642,0.716737616,0.0439046451999999,0.0994153894999999
621,1778414941670,1.1419061,0.2057674244444444,-0.9808973544444446,0.6175835344444445,-0.0771449213333333,0.1209307888888888
622,1778414941680,1.2601041,0.2494048,-0.96667224,0.40147936,0.058870405,-0.007482879
623,1778414941690,1.2625432,0.26480204,-0.95057374,0.2053974,0.33558422,-0.15347537
624,1778414941700,1.1971064300000005,0.232169041,-0.925453337,0.03643704,0.567583988,-0.229342604
625,1778414941710,1.0404366777777776,0.1667712477777777,-0.8797802944444445,-0.3023524333333333,0.941807677777778,-0.3217298622222222
626,1778414941720,0.940006036,0.146953692,-0.8301673299999999,-0.5189452680000001,1.11302478,-0.33514136
627,1778414941730,0.8952656288888888,0.1589083244444444,-0.8737332,-0.6063507511111111,1.0190629333333332,-0.338222741111111
628,1778414941740,0.870355616,0.166442648,-0.97742292,-0.482783127,0.64871217,-0.361102366
629,1778414941750,0.8897876933333334,0.15554769,-1.0063798666666668,-0.2867418833333333,-0.1009679466666666,-0.3843756399999999
630,1778414941760,0.8942866466666667,0.1411871011111111,-0.9213409666666666,-0.0717236493333333,-0.90769354,-0.3634032133333333
631,1778414941770,0.8707703,0.090965673,-0.747473445,0.1242768712,-1.6901074,-0.292504216
632,1778414941780,0.7981258,0.00048783334,-0.48322943,0.40636614,-2.6936836,-0.1021642
633,1778414941790,0.87674323,0.038054049034,-0.233053235,0.66200574,-3.34680154,0.106745555
634,1778414941800,0.89352775,0.08860273,-0.048813824,0.7501373955555556,-3.366090811111111,0.2069923722222222
635,1778414941810,1.08564874,0.077022784,0.0804864003999999,0.80414987,-3.14754328,0.18359014
636,1778414941820,1.1367736666666668,0.0497894886666666,0.2756969833333333,0.8164482611111111,-2.7927089333333335,0.0264530811111111
637,1778414941830,1.12134597,0.0628634263,0.427040157,0.83371487,-1.89011416,-0.249378398
638,1778414941840,1.1388165,0.09372498,0.46758825,0.8125116666666666,-1.0728938,-0.4231305177777777
639,1778414941850,1.2253368300000005,0.157195158,0.588162375,0.7468523599999999,-0.1964026649999999,-0.631707666
640,1778414941860,1.2603073111111112,0.1881139666666666,0.6522738333333333,0.7432823111111111,0.1934604111111111,-0.7386670333333334
641,1778414941870,1.25306391,0.230193302,0.786295866,0.79284919,1.1443459619999998,-1.074885068
642,1778414941880,1.4360289222222222,0.3731586444444444,0.7898157022222222,0.8980982,2.3025887,-1.4968048
643,1778414941890,1.3674883,0.3302022,0.7123586,0.9048175,2.7961533,-1.8846929
644,1778414941900,1.3093209666666668,0.2034332833333333,0.8251701,0.6214522444444444,3.3137191333333336,-2.194528177777778
645,1778414941910,1.15754623,-0.0483198952,1.18841384,-0.0300231359999999,4.46152152,-2.63847832
646,1778414941920,0.83886,-0.3445933,1.5643291,-0.7108735044444444,5.763589988888889,-2.7402184333333333
647,1778414941930,0.5814059,-0.39901718,1.6800066,-1.5685794,7.008709,-1.988537
648,1778414941940,0.239193833,-0.31159136,1.71888993,-1.86086986,7.046703699999999,-0.943064176
649,1778414941950,0.20117027,-0.30187738,1.7232103,-1.99434,6.875544,0.32909396
650,1778414941960,-0.3183326089999999,-0.0119793589999999,1.8781583100000003,-1.80717632,6.324315199999999,1.221480792
651,1778414941970,-0.5450961755555555,0.1213756477777777,2.063114911111111,-1.754141188888889,6.010032555555556,1.5374941444444443
652,1778414941980,-0.6257133079999999,0.604053532,2.8728202000000005,-1.5117706199999998,3.6833784,2.79797066
653,1778414941990,0.3029445,1.0564641,2.454381,-0.894076811111111,0.0935699111111111,2.9070814
654,1778414942000,0.26867115,0.5056209899999999,1.55010267,-0.28389126,-1.7730606000000002,2.338858
655,1778414942010,0.2713674444444444,0.2515594,0.9361555666666664,0.08628218,-2.6014203333333334,2.356776
656,1778414942020,0.5310912577777778,0.22536546,0.7018939533333334,0.5201873666666667,-3.5816520666666665,2.363291666666667
657,1778414942030,0.769752232,0.310758988,0.586537284,0.8447101330000001,-4.22037447,2.21033558
658,1778414942040,0.94185376,0.37804034,0.5635085,0.74803339,-3.862030966666667,1.7060200666666665
659,1778414942050,1.004363514,0.338928306,0.51327384,0.40490012,-3.00778148,1.05649856
660,1778414942060,1.1605251,0.3140732,0.4846624,0.1008067733333333,-2.458778988888889,0.7144028444444444
661,1778414942070,1.21603748,0.344486576,0.494223938,-0.126781346,-2.03274698,0.4529737799999999
662,1778414942080,1.2390966,0.3477642,0.43072635,-0.39445463,-1.6020232,0.16721943
663,1778414942090,1.22175423,0.297026484,0.424360155,-0.566530283,-1.4766774100000002,0.0259304649
664,1778414942100,1.1721009,0.2551537955555555,0.4715959644444444,-0.773519311111111,-1.2998575666666667,-0.0619840254444444
665,1778414942110,1.1179677,0.22354964,0.514194644,-0.86554004,-1.16441234,-0.07101099
666,1778414942120,1.0285153666666669,0.16013469,0.5397367777777778,-0.9986504333333336,-0.9009742333333332,-0.0596085111111111
667,1778414942130,0.962516544,0.099868631,0.556380046,-1.10065514,-0.689112052,-0.0624591319999999
668,1778414942140,0.92648697,0.08271824,0.5010049,-1.128693,-0.6814765,-0.08689302
669,1778414942150,0.8842131639999999,0.0587137934,0.4682712249999999,-1.13657292,-0.8187949480000001,-0.111815588
670,1778414942160,0.8386161,0.0151228339999999,0.48100364,-1.1564611,-0.9871036533333332,-0.14899583
671,1778414942170,0.8232492644444445,0.0044989075555555,0.5320601311111111,-1.1395864777777778,-1.1212864777777778,-0.19637043
672,1778414942180,0.808980124,0.0023416000299999,0.620243463,-1.0338895,-1.15793734,-0.26880335
673,1778414942190,0.8784048600000001,0.02268425,0.6852839,-0.90304602,-0.89527302,-0.360796938
674,1778414942200,0.8937987622222222,0.0365875006666666,0.6249823,-0.6649242200000001,-0.34944706,-0.5359335944444444
675,1778414942210,0.8921997777777777,0.0400870281111111,0.5490971,-0.4871676544444445,-0.1785455661111111,-0.5718378666666667
676,1778414942220,0.9245235,0.0498382744,0.4696859479999999,-0.2361840889999999,-0.1240783505,-0.5524808
677,1778414942230,1.0035952,0.08125474,0.3963341,-0.02183779,-0.34551048,-0.48638713
678,1778414942240,1.0297247,0.15034413,0.38191253,0.19989976,-0.84518355,-0.4045336
679,1778414942250,1.028315388888889,0.1553850799999999,0.3834065177777777,0.2808030933333333,-1.0512426833333337,-0.3773848355555556
680,1778414942260,1.0206997,0.15692988,0.40267593,0.4349537879999999,-1.44265324,-0.331048674
681,1778414942270,1.0022434333333332,0.12850004,0.4725174144444444,0.5118391,-1.4772068111111112,-0.3029293344444444
682,1778414942280,1.00037551,0.0906729689999999,0.51091088,0.533361306,-1.2320942599999998,-0.299162437
683,1778414942290,1.0392374,0.080279075,0.41243258,0.4656182999999999,-0.6350521,-0.36482853
684,1778414942300,1.0502137,0.096895896,0.27333912,0.32878855,-0.2386122,-0.5144861
685,1778414942310,1.0322045,0.1006901555555555,0.2542458666666667,0.24055505,-0.1541116666666666,-0.5592815444444444
686,1778414942320,0.98715514,0.113482232,0.328781382,0.12446013,-0.00313059,-0.6320742
687,1778414942330,0.9994485666666668,0.1186586797777777,0.3856322488888888,0.1126843519999999,0.19427488,-0.6975366777777777
688,1778414942340,0.96215374,0.1047500147999999,0.369863036,0.1897596968,0.23711564,-0.7398887399999999
689,1778414942350,0.892094788888889,0.0793609955555555,0.2032029077777778,0.2013929422222222,0.1741169211111111,-0.6762249055555556
690,1778414942360,0.9066721333333332,0.1000634311111111,0.1135940242222222,0.07956286,0.13522631,-0.56457555
691,1778414942370,0.905443062,0.1047500164,0.089560102,0.0018630855999999,0.146588066,-0.5268252
692,1778414942380,0.86940706,0.0800961386666666,0.1111989013333333,-0.1753640753333333,0.2225774744444444,-0.4455961011111111
693,1778414942390,0.824813363,0.0420817258,0.153094292,-0.25811353,0.322756414,-0.36653889
694,1778414942400,0.83154243,0.06296099,0.14348398,-0.2301366999999999,0.43820655,-0.29763532
695,1778414942410,0.823834658,0.0620828911999999,0.13089788,-0.1220167375,0.35818556,-0.224944495
696,1778414942420,0.8514826200000001,0.0871290676666666,0.1261658966666666,0.0712146083333333,0.2068990566666666,-0.0870966366666666
697,1778414942430,0.839820346,0.115070735,0.1212082995999999,0.318159786,0.11696198,0.1109604029999999
698,1778414942440,0.8984061,0.15229547,0.016342416,0.70995724,0.1492758,0.6265766
699,1778414942450,0.97123958,0.163808334,-0.0396852448,0.747585432,0.165096745,0.706536501
700,1778414942460,0.9998821999999998,0.1857933555555555,-0.0475942416666666,0.7416534111111112,0.2689339888888888,0.7435199022222222
701,1778414942470,1.00520504,0.211725772,-0.0333495074,0.69566342,0.4623961,0.6821636719999999
702,1778414942480,0.946976,0.20428021,-0.10665256,0.6720847,0.50112385,0.55022067
703,1778414942490,0.886798715,0.158152519,-0.282601849,0.5984165499999999,0.0986976475,0.534277557
704,1778414942500,0.9130716,0.15766165,-0.3787721,0.4669757688888889,-0.4281784772222222,0.585717691111111
705,1778414942510,0.960296904,0.1657840599999999,-0.346035455,0.319625834,-0.8441451109999999,0.618207987
706,1778414942520,0.9775773866666666,0.1696135433333333,-0.3162176433333333,0.2520254,-0.9335527744444444,0.6115768977777778
707,1778414942530,1.09896664,0.197834712,-0.279882176,0.1256207359999999,-0.8938070100000001,0.534094328
708,1778414942540,1.1937282,0.19620048,-0.1835168,0.008093726,-0.50127655,0.33153734
709,1778414942550,1.1443554111111112,0.21595434,-0.1649249322222222,-0.0427423413333333,-0.2371190355555555,0.2042096344444444
710,1778414942560,1.0663122,0.2040363,-0.14522189,-0.0930014932,0.037918344,0.05622849
711,1778414942570,1.0217364666666666,0.1633428666666666,-0.17239827,-0.0900490666666666,0.0584631733333333,-0.0139985833333333
712,1778414942580,0.96545269,0.086825188,-0.303990294,-0.077424892,-0.036910444,-0.061603946
713,1778414942590,0.9608792,-0.0160985,-0.5266466,-0.1588711866666666,-0.5160047466666666,-0.0353782372222222
714,1778414942600,1.06235465,0.069104644,-0.335138444,-0.29390916,-1.129349648,0.0380863273999999
715,1778414942610,1.1661351,0.20034707,-0.13912396,-0.3047279488888889,-1.1400191666666666,0.0226522531111111
716,1778414942620,1.2708364,0.25696623,-0.15766165,-0.31162372,-0.6635175799999999,-0.0822505848
717,1778414942630,1.2662831555555556,0.2552317144444445,-0.1650333388888889,-0.3392747577777777,-0.2546299788888889,-0.1839498731111111
718,1778414942640,1.18155674,0.224131976,-0.221305597,-0.358658964,0.175603322,-0.344731655
719,1778414942650,1.0631413,0.16302781,-0.31629896,-0.35963634,0.25311983,-0.43080002
720,1778414942660,1.02333713,0.1329559318,-0.340885746,-0.34314343,-0.029702447,-0.4497363
721,1778414942670,1.0028091644444443,0.1109617599999999,-0.3584829755555556,-0.3370349688888889,-0.1545867819999999,-0.4460033444444444
722,1778414942680,1.006866694,0.106997097,-0.318616153,-0.34778588,-0.427486194,-0.435198132
723,1778414942690,1.0243585,0.1481489,-0.23916028,-0.40239564,-0.4591280799999999,-0.42957833
724,1778414942700,1.0152286333333334,0.1669304755555555,-0.1719781844444444,-0.42316444,-0.3638359133333333,-0.41654693
725,1778414942710,0.98122801,0.159125149,-0.099191765,-0.4027621359999999,-0.2199202859999999,-0.384131286
726,1778414942720,0.9743251466666668,0.1557103133333333,-0.0952697866666666,-0.3768757844444444,-0.1858078555555555,-0.3697831666666666
727,1778414942730,0.977593596,0.151661288,-0.096261713,-0.239665916,-0.132263699,-0.312723264
728,1778414942740,0.9728312,0.1341643366666666,-0.1499884316666666,-0.1419032133333333,-0.1189540188888888,-0.25718368
729,1778414942750,0.9508787,0.14031307,-0.1554664,-0.0451110692,-0.0918867015,-0.192997188
730,1778414942760,0.9493609666666666,0.1434704344444444,-0.1346386222222222,0.0010350475555555,-0.0573941905555555,-0.1420050166666666
731,1778414942770,0.90924818,0.141691196,-0.160887438,0.0553733028,0.0074370655999999,-0.0789520076
732,1778414942780,0.9041787977777778,0.1404756777777777,-0.1946590499999999,0.0902866224444444,0.028599529,-0.0249938335555555
733,1778414942790,0.95085118,0.154042522,-0.152402185,0.140830837,-0.0257930249,-0.00894891228
734,1778414942800,1.0053025,0.16619872,-0.15253939,0.2377723,-0.16469969,-0.036803547
735,1778414942810,1.04305784,0.185151045,-0.132199784,0.25731942,-0.203305234,-0.0856713301999999
736,1778414942820,1.0592387,0.19327347,-0.12348281,0.2622062,-0.21295662,-0.097888276
737,1778414942830,1.07023322,0.190931868,-0.11601896,0.25854111,-0.17233528,-0.1357608079999999
738,1778414942840,1.0171291555555555,0.1807524211111111,-0.1529188133333333,0.23784017,0.0377622337777777,-0.2175464666666666
739,1778414942850,0.9684711,0.16473523,-0.19867012,0.2133383999999999,0.21585815,-0.19806722
740,1778414942860,0.9545678644444444,0.1619166255555555,-0.2166657466666667,0.2013929422222222,0.2256317055555555,-0.1606019222222222
741,1778414942870,0.924584384,0.151612502,-0.219793306,0.198372645,0.22105035,-0.11438115
742,1778414942880,0.8768906222222221,0.1310747255555555,-0.2192946477777778,0.2169356188888889,0.1701803488888889,-0.0125732733333333
743,1778414942890,0.8478374277777778,0.1221277253333333,-0.2146060133333333,0.2441522522222222,0.1004080177777777,0.0766782961111111
744,1778414942900,0.8484977450000001,0.1235803744,-0.228671882,0.247912358,0.0304049222,0.2011825404999999
745,1778414942910,0.8505984,0.109335646,-0.22525704,0.2057367388888889,0.0007720429777777,0.2813799877777778
746,1778414942920,0.8505984,0.1093356459999999,-0.2252570399999999,0.13881505,0.008780929,0.33336988
747,1778414942930,0.9122686755555556,0.1251428044444444,-0.2328997677777778,0.101960595,0.0301605826666666,0.3250216333333333
748,1778414942940,0.9872528,0.16253997,-0.23916028,0.028251685,0.07291989,0.30832514
749,1778414942950,1.002456888888889,0.1866064111111111,-0.2536021811111111,-0.0415885177777777,0.1813792244444444,0.2531452888888889
750,1778414942960,1.0311882,0.21769562,-0.37364984,-0.2307475499999999,0.544494,0.09575031
751,1778414942970,1.0094897833333334,0.2236580311111111,-0.4248892622222222,-0.2748643,0.6042212777777778,0.0638505083333333
752,1778414942980,0.9776424,0.232233058,-0.49502274,-0.333614238,0.6446729,0.0277019244
753,1778414942990,0.9360843666666666,0.2531990433333334,-0.5170525044444445,-0.37185326,0.52494687,0.040163208
754,1778414943000,0.93670716,0.291971303,-0.4725671979999999,-0.382848524,0.4413829769999999,0.0698503848
755,1778414943010,0.9250235,0.32117727,-0.43563515,-0.3978482111111111,0.4254466377777777,0.0764746833333333
756,1778414943020,0.8920405666666666,0.3302835188888889,-0.4117584566666666,-0.429476531111111,0.4675272244444444,0.0899133255555555
757,1778414943030,0.8851370000000001,0.32849479,-0.424890638,-0.448697864,0.51040869,0.1002705779999999
758,1778414943040,0.8852346,0.31602454,-0.5005475,-0.4787515155555555,0.5727965388888889,0.1224239722222222
759,1778414943050,0.90450394,0.28943762,-0.6101271,-0.48058408,0.45714283,0.14767233
760,1778414943060,0.9095347511111112,0.2696363311111111,-0.6375168777777778,-0.3953369688888888,0.1248419055555555,0.1742781166666666
761,1778414943070,0.9115105,0.23757483,-0.6349913220000001,-0.301300412,-0.154437473,0.202404238
762,1778414943080,0.8932126666666667,0.2174517066666666,-0.61508672,-0.1956577733333333,-0.4188800222222222,0.2442540633333333
763,1778414943090,0.916334,0.211256216,-0.5678075120000001,-0.0645970984999999,-0.6701757749999999,0.311257228
764,1778414943100,0.998469577777778,0.2536326777777777,-0.5703923466666666,0.017256435,-0.68391985,0.36024716
765,1778414943110,1.07541028,0.2813365399999999,-0.538897246,0.0446223934,-0.45472997,0.3284831119999999
766,1778414943120,1.0908427777777778,0.3072570777777778,-0.5694844244444445,0.048002414,-0.2318928933333333,0.2938684333333333
767,1778414943130,1.10517426,0.351910785,-0.678100539,0.0266634816,0.264603768,0.200449524
768,1778414943140,1.0963445,0.32629952,-0.7621786,-0.0025621649333333,0.6338134155555556,0.0827867733333333
769,1778414943150,1.03548125,0.2214001049999999,-0.8838381270000001,0.06795676,0.5573218,0.016340164
770,1778414943160,1.025822,0.17571147,-0.98597217,0.18768282,0.081471756,0.05054761
771,1778414943170,1.01336396,0.145252374,-1.092130788,0.218836026,-0.3411123936,0.0901305136
772,1778414943180,1.0865674,0.0826471,-1.2217888,0.2172071022222222,-1.0558580155555557,0.1345051682222222
773,1778414943190,1.1494390600000002,0.0645708419999999,-1.2512316,0.10582929,-1.7783596000000004,0.128736056
774,1778414943200,1.1997685222222223,0.0577303319999999,-1.0675081333333334,0.04352287,-2.0290818,0.11529742
775,1778414943210,1.1291445111111111,0.062039524,-0.3419000333333333,-0.7171856011111111,-3.266522866666667,-0.1507604911111111
776,1778414943220,1.0524029,0.0468990756,0.1173788,-0.784663856,-3.24698928,-0.237039278
777,1778414943230,0.84089254,-0.0155496853333333,1.14571725,-0.35393508,-2.2375844333333337,-0.35770198
778,1778414943240,0.8493849179999999,-0.0685466795,1.39837422,0.303499452,-1.127532428,-0.380710554
779,1778414943250,1.023139,-0.11177482,0.73580515,1.0379822,0.1596602,-0.4949390000000001
780,1778414943260,1.01970284,-0.0591650389999999,0.34869108,0.981906416,0.17981816,-0.5528473039999999
781,1778414943270,1.0435568666666668,-0.0108034766666666,0.2093584166666666,0.8591396866666667,0.1449319951111111,-0.6108642177777778
782,1778414943280,1.1978138,0.104939048,0.52552456,0.255731206,0.0588093204,-0.784908208
783,1778414943290,1.2053006777777775,0.1355702366666666,0.7929629544444444,0.0461020007777777,0.3321906097777777,-0.87176388
784,1778414943300,1.1137235,0.148191582,0.950073754,-0.1067455559999999,0.7650098,-0.786924
785,1778414943310,1.111006522222222,0.15283751,0.9751822466666664,-0.0603211669999999,0.756458,-0.63665557
786,1778414943320,1.1191506299999998,0.161954571,0.975233732,-0.0176229431,0.69433484,-0.56262088
787,1778414943330,1.1333791333333334,0.1910646711111111,0.9802503,0.147163282,0.5009202199999999,-0.29091601
788,1778414943340,1.13862136,0.1910355399999999,0.88700914,0.206130408,0.414627826,-0.21504878
789,1778414943350,1.0836167222222222,0.1241400353333333,1.0631616777777777,0.32946724,0.1992973933333333,-0.1514392122222222
790,1778414943360,1.0005902111111111,0.020007942,1.2156637222222222,0.59756136,0.3032093,0.014507622
791,1778414943370,0.99778997,0.0379778258,1.16156158,0.672390128,0.292519474,0.1389372056
792,1778414943380,1.0233625999999998,0.0829824826666666,1.1337551,0.6989619666666667,0.2537306766666666,0.22606438
793,1778414943390,1.06699516,0.21265875,1.13076108,0.629386465,0.160515392,0.315472054
794,1778414943400,1.0862828777777778,0.3261233677777777,1.1434678,0.3914343333333333,0.3285255222222222,0.3357454088888889
795,1778414943410,1.093637,0.357188523,1.1312032200000002,0.2613510129999999,0.44571997,0.323107662
796,1778414943420,1.1066702222222222,0.386198,1.0869029111111113,-0.0380591788888888,0.7511639666666667,0.2264716244444444
797,1778414943430,1.1075647,0.3768939289999999,1.02612392,-0.3425326,1.0851701,0.0762032
798,1778414943440,1.1102478000000002,0.3654989566666666,0.976744,-0.5416688000000001,1.2676098333333334,-0.0264191399999999
799,1778414943450,1.1130121444444443,0.3610982988888889,0.9307725,-0.85808766,1.4852751,-0.20967332
800,1778414943460,1.1173213,0.33483663,0.73580515,-1.126440516,1.41050742,-0.4191328399999999
801,1778414943470,1.0879157,0.2757884488888888,0.6313918666666667,-1.2102835,1.1711638822222223,-0.5466574
802,1778414943480,1.0795141,0.25891754,0.6015595,-1.26901984,0.781915036,-0.69431954
803,1778414943490,1.055102166666667,0.20182072,0.5499914333333333,-1.1241625222222222,0.1670582434444444,-0.7745034
804,1778414943500,1.06650732,0.195517502,0.552526152,-0.95460153,-0.1656770407,-0.80702087
805,1778414943510,1.0538725,0.24306297,0.5966811,-0.62840915,-0.279539,-0.8260182
806,1778414943520,1.02328831,0.246990026,0.6029986,-0.422797922,-0.1965248359999999,-0.7847860050000001
807,1778414943530,1.0085547,0.2549437333333333,0.6129524533333333,-0.28626678,-0.1129812916666666,-0.7388027888888888
808,1778414943540,0.979862071,0.26219212,0.6031784979999999,-0.0849993996,-0.02273879004,-0.64117584
809,1778414943550,0.9344583277777778,0.2336620111111111,0.5541583488888889,0.0851962237777777,-0.0679143343777777,-0.5004366266666667
810,1778414943560,0.81910264,0.11787273,0.5129872,0.2694006027777778,-0.4263459328888889,-0.2493105244444444
811,1778414943570,0.809946628,0.112823655,0.500099266,0.3497405999999999,-0.591254344,-0.1510930713
812,1778414943580,0.81349254,0.12958074,0.44389784,0.6036698,-1.087079,0.11407573
813,1778414943590,0.8330211350000001,0.1474019,0.44292217,0.6580352,-1.1564102,0.148588595
814,1778414943600,0.8777815955555556,0.1832457811111111,0.4233546555555555,0.8083715100000001,-1.2585235666666668,0.2139831888888889
815,1778414943610,0.87269726,0.19659073,0.42311614,0.889668481,-1.18151606,0.242048224
816,1778414943620,0.8589186777777778,0.1975555633333333,0.4635636277777778,0.9689564333333336,-0.8781693,0.2861310333333333
817,1778414943630,0.8403098555555556,0.1897773322222222,0.4866408577777778,1.0184350666666666,-0.5050773555555556,0.3206778422222222
818,1778414943640,0.813687736,0.162296056,0.467149198,1.03957038,-0.1119224832,0.356337754
819,1778414943650,0.8173410666666667,0.1135940253333333,0.3941151255555555,1.0313986333333334,0.3235708853333333,0.4130515144444444
820,1778414943660,0.85410476,0.0808217932,0.311493764,1.01342608,0.681323744,0.45492849
821,1778414943670,0.8341239333333333,0.0032861011111111,0.1077874488888888,0.9731645111111112,1.1343603177777777,0.571464588888889
822,1778414943680,0.90501016,-0.00453685,-0.122952308,0.8866142399999999,1.39047164,0.70183294
823,1778414943690,0.9633150666666668,0.0387793623333333,-0.2613736422222222,0.7893673800000001,1.4498459666666663,0.7638135666666667
824,1778414943700,0.9796371111111112,0.0863465053333333,-0.3869399144444444,0.5678334188888888,1.3625627111111112,0.8306674
825,1778414943710,1.05544575,0.2014111518,-0.41518886,0.1050962675,1.29835584,0.904573155
826,1778414943720,1.1192727,0.2672412,-0.34093451,-0.15988927,1.305686,0.92100495
827,1778414943730,1.14871647,0.257993727,-0.202798415,-0.46348035,1.5695721,0.8690829000000001
828,1778414943740,1.152801,0.2379407166666667,-0.2090772266666666,-0.5933872033333333,1.7744095,0.8027042066666668
829,1778414943750,1.10517416,0.179812326,-0.273994641,-0.767804461,1.86742111,0.710995667
830,1778414943760,0.995678018888889,0.1116630188888889,-0.3354836555555555,-0.9277243,1.5048223,0.66322744
831,1778414943770,0.92648697,0.07369333,-0.2938281,-0.97598124,0.89641833,0.7157603
832,1778414943780,0.8974202277777779,0.0705495122222222,-0.1986057488888888,-0.9480179955555555,0.6118653211111111,0.7689718777777778
833,1778414943790,0.89476561,0.104103636,-0.0188059742,-0.877879136,0.17041111,0.8644405199999999
834,1778414943800,1.00701,0.20696329,0.10250599,-0.7963242533333333,0.2011978188888888,0.8978606333333333
835,1778414943810,1.08422791,0.237184551,0.0796052548,-0.586749322,0.6179177770000001,0.86499024
836,1778414943820,1.1168334,0.21964696,-0.035886243,-0.40300646,0.74668443,0.8495358
837,1778414943830,1.1069412333333333,0.2016072933333333,-0.0673413274444444,-0.3137548988888889,0.6262117466666667,0.8671824944444444
838,1778414943840,1.0702301,0.156792685,-0.1215467325,-0.13288982,0.213414749,0.924914365
839,1778414943850,0.9442929,0.1033190366666666,-0.1367661166666666,-0.0273354143333333,-0.15431529,0.9769993
840,1778414943860,1.23398368,0.202469132,-0.093167018,0.03277195535,-0.3852766239999999,0.96950623
841,1778414943870,1.2882628888888887,0.25292465,-0.0826403244444444,0.0556719422222222,-0.3144251411111111,0.7577730122222223
842,1778414943880,1.28266635,0.247102835,-0.1310594749999999,0.0581832029999999,-0.280760675,0.553274915
843,1778414943890,1.260727344444445,0.2148228422222222,-0.2003165555555555,0.0408758633333333,-0.3121175066666667,0.2891852733333333
844,1778414943900,1.2555183600000002,0.20964638,-0.1950601599999999,0.0091932515599999,-0.36530194,0.08951966682
845,1778414943910,1.208125988888889,0.1692951033333333,-0.1032783875555555,0.0232291643555555,-0.3989256844444444,-0.1306704145111111
846,1778414943920,1.13316679,0.0939536513,-0.0318189293,0.134966703,-0.4048848429999999,-0.179314219
847,1778414943930,1.1615007,0.092505395,-0.01978774,0.17913096,-0.40598437,-0.18462859
848,1778414943940,1.1556467,0.093285927,-0.0201780068,0.218713856,-0.340501542,-0.1445570076
849,1778414943950,1.1299271222222222,0.0929390227777777,-0.0352900007777777,0.3122956666666667,-0.1863508377777777,-0.0301520988888888
850,1778414943960,1.052653,0.09738373,-0.052228656,0.34894648,-0.2013505299999999,0.027946262
851,1778414943970,1.0225495333333334,0.0895580699999999,-0.0593835453333333,0.36279236,-0.2363724433333333,0.0328330393333333
852,1778414943980,0.9848677611111112,0.0697906566666666,-0.050765155,0.3588558,-0.2929097499999999,0.0057521446666666
853,1778414943990,0.939524312,0.04305739,-0.0281296886,0.34845782,-0.362614219,-0.0469436111
854,1778414944000,0.9025594333333332,0.0291141659999999,-0.0104138867222222,0.3467745888888889,-0.4199659755555556,-0.0950376522222222
855,1778414944010,0.939362696,0.0800808942,-0.06647339095,0.286578994,-0.4090996739999999,-0.164592799
856,1778414944020,0.9310401311111112,0.0616059004444444,-0.073425696,0.20906247,-0.4102603,-0.23044212
857,1778414944030,0.888414659,0.0331086391,-0.0652629528,0.159889276,-0.4098326909999999,-0.252676976
858,1778414944040,0.8532611666666666,0.0021952496666666,-0.0523099613333333,0.1122092544444444,-0.396075061111111,-0.26682148
859,1778414944050,0.8415674149999999,-0.0115616504,-0.072543871,0.046027342,-0.353879086,-0.278149308
860,1778414944060,0.87791705,-0.016586334,-0.14253882,-0.06154286,-0.33756948,-0.28480753
861,1778414944070,0.944021555,-0.0029757834,-0.1583446019999999,-0.167097272,-0.391446198,-0.332636869
862,1778414944080,0.9704732555555556,-0.0062334262222222,-0.1668220622222222,-0.2396387711111111,-0.4401918133333333,-0.3849864877777778
863,1778414944090,0.99213105,-0.0129275835,-0.16607676,-0.3003841399999999,-0.4524087600000001,-0.421637325
864,1778414944100,1.062812588888889,-0.0172909826666666,-0.1521328733333333,-0.3821019388888889,-0.4205089488888889,-0.4635143033333333
865,1778414944110,1.118297,-0.0070735829999999,-0.10079856,-0.4514670366666667,-0.2874799866666666,-0.5098029366666668
866,1778414944120,1.1766235,0.058326576,-0.10884781,-0.48486,0.009391776,-0.5431959
867,1778414944130,1.2215313222222222,0.1197122684444444,-0.1348926988888888,-0.4952444,0.1260636,-0.57496
868,1778414944140,1.22833998,0.149603235,-0.156588403,-0.499275998,0.189469548,-0.61014478
869,1778414944150,1.2216973333333334,0.1719714166666666,-0.17262186,-0.4968733466666667,0.2856983577777778,-0.6695734333333333
870,1778414944160,1.19129205,0.182833841,-0.181467902,-0.473253912,0.38506282,-0.7301151880000001
871,1778414944170,1.0804899,0.16815005,-0.1803459,-0.39017868,0.46630552,-0.74416465
872,1778414944180,0.96449835,0.152563778,-0.143026644,-0.3192593279999999,0.430570966,-0.66719791
873,1778414944190,0.9008554466666668,0.1488806433333333,-0.1047113933333333,-0.28151575,0.4092931211111111,-0.5917922222222223
874,1778414944200,0.8549675710000001,0.149270904,-0.0688241381,-0.227265725,0.404854305,-0.470321849
875,1778414944210,0.82544446,0.17058922,-0.07079682,-0.1186910142222222,0.4642693666666666,-0.2880653988888888
876,1778414944220,0.8227613999999999,0.16985747,-0.09128582,-0.036498122,0.46630552,-0.18585028
877,1778414944230,0.821054,0.16497913,-0.13205038,0.0552647153333333,0.4103790666666667,-0.0973453022222222
878,1778414944240,0.821054,0.16497913,-0.13205038,0.06673507,0.40338826,-0.08628218
879,1778414944250,0.81473653,0.152728426,-0.128800191,0.1813300099999999,0.274743824,0.0047340653999999
880,1778414944260,0.79224475,0.1307461066666666,-0.0839683117777777,0.35220435,0.1035301233333333,0.1304328544444444
881,1778414944270,0.83154243,0.13128816,-0.0580826599999999,0.51754034,-0.021150587,0.26862007
882,1778414944280,0.8985924477777778,0.1449745777777777,-0.0611180688888888,0.567019,-0.04497363,0.2985516
883,1778414944290,0.96473615,0.153490658,-0.0825993315,0.58461139,-0.0312295653,0.27436203
884,1778414944300,0.9880928666666668,0.1584475888888888,-0.1047283355555555,0.5884665,-0.0193859158888888,0.2572854644444444
885,1778414944310,1.0411888,0.17107704,-0.18818171,0.58057976,0.0115908263999999,0.192875028
886,1778414944320,1.043384,0.12299499,-0.47542408,0.5144860844444445,-0.0810814871111111,0.1400027966666666
887,1778414944330,1.0267978,0.07905949,-0.57911915,0.451080174,-0.340562604,0.163615441
888,1778414944340,1.0787824,0.10201815,-0.5676551,0.4576773,-0.4829510999999999,0.19165333
889,1778414944350,1.12353809,0.152237536,-0.555020205,0.461708898,-0.4924803299999999,0.193119358
890,1778414944360,1.2112292666666666,0.2212120877777778,-0.5218834222222222,0.4611387722222222,-0.2202867944444444,0.1664049766666666
891,1778414944370,1.2322940999999998,0.2483207233333333,-0.5553271222222222,0.4546230733333333,-0.0608556584666666,0.1653868966666666
892,1778414944380,1.21350983,0.2455021319999999,-0.6314667500000001,0.436419824,0.1275296404599999,0.204236782
893,1778414944390,1.1612568,0.1730284,-0.77583796,0.45950985,0.26533678,0.3321482
894,1778414944400,1.12435224,0.1238303919999999,-0.933383752,0.48052299,0.24261326,0.387124448
895,1778414944410,1.0954771555555556,0.0738423788888888,-1.014947422222222,0.5368159499999999,0.1040052283333333,0.5394968866666666
896,1778414944420,1.10522305,0.00349105697,-0.9337952900000002,0.7264501,-0.08101362,0.7041542
897,1778414944430,1.1896290333333333,0.0100818894777777,-0.9218965888888888,0.9007452,-0.0907871733333333,0.7607593733333333
898,1778414944440,1.25253955,0.0308097244,-0.92090736,1.039020715,-0.207825506,0.732986146
899,1778414944450,1.2691018222222223,0.0381085916666666,-0.8361937888888888,1.0278014666666668,-0.28401852,0.65202852
900,1778414944460,1.22552882,0.042228073,-0.69280266,0.9819064,-0.388391952,0.345709
901,1778414944470,1.145026088888889,0.0625273628888888,-0.6527819755555555,0.9099078933333332,-0.2695618,-0.0182745133333333
902,1778414944480,1.01521772,0.0247880328,-0.6432570679999999,0.628225852,-0.234519535,-0.462258675
903,1778414944490,0.8742583,0.030489584,-0.5151825,0.09300149,-0.26915458,-0.84678704
904,1778414944500,0.8427422,0.0331692788888888,-0.4216065777777777,-0.0462038077777777,-0.2900591311111111,-0.9223284655555556
905,1778414944510,0.77224932,0.00557044659,-0.345504906,-0.183345805,-0.435243948,-0.964680548
906,1778414944520,0.7181177333333334,0.0157461761888888,-0.2939670066666666,-0.37551835,-0.81769544,-0.91336936
907,1778414944530,0.70740102,0.0884015017,-0.226040616,-0.472826323,-1.121714144,-0.875435746
908,1778414944540,0.7042111355555556,0.1237131855555555,-0.1738990311111111,-0.5156738666666666,-1.3050836888888888,-0.8676915666666667
909,1778414944550,0.696595515,0.166930475,-0.0750501134999999,-0.56243762,-1.6356199,-0.865112435
910,1778414944560,0.7150146277777778,0.1595858644444444,0.097956258,-0.5320988666666666,-2.0439203333333333,-0.8657232566666667
911,1778414944570,0.6813080499999999,0.10900026,0.494973998,-0.375029673,-2.23701435,-0.8185047900000001
912,1778414944580,0.7651666,0.120067984,0.73873216,-0.1614503244444444,-2.169644677777778,-0.6997085888888889
913,1778414944590,0.98611858,0.1756352404,0.882575866,0.12354386,-1.7834449,-0.64032066
914,1778414944600,1.0924621333333333,0.2125022333333333,0.954754188888889,0.2147637222222222,-1.448700588888889,-0.6590533000000001
915,1778414944610,1.22412018,0.26113109,1.01839478,0.37631247,-0.3988374259999999,-0.7277328900000001
916,1778414944620,1.241779811111111,0.2334722922222222,0.8122458777777779,0.2970245,0.71492034,-0.76554435
917,1778414944630,1.18227931,0.202350227,0.71382515,0.1187181619999999,0.8785128889999999,-0.665548615
918,1778414944640,1.0704589,0.20034707,0.7665386,-0.03466558,0.73935425,-0.4472929
919,1778414944650,1.0603769888888888,0.20350443,0.7892093288888888,-0.0462038061111111,0.5740861333333334,-0.3074767499999999
920,1778414944660,1.05206756,0.226183946,0.834134108,-0.0514027968,0.293435756,-0.08163973438
921,1778414944670,1.0555256888888889,0.2562615588888889,0.8914273666666666,-0.11387211,-0.1231620688888888,0.2761538736333333
922,1778414944680,1.1190744499999998,0.334760361,1.0175746799999998,-0.196234682,-0.331094474,0.4878531730000001
923,1778414944690,1.1351577,0.3887727,1.0864964,-0.2707241066666667,-0.4399203022222222,0.5807630588888889
924,1778414944700,1.17769674,0.449288412,1.19601488,-0.409847968,-0.451553556,0.593957344
925,1778414944710,1.2007102333333333,0.4854145133333333,1.3296405666666666,-0.5466234822222221,-0.3737451888888888,0.5365784155555555
926,1778414944720,1.08748716,0.42928115,1.44476421,-0.635006292,-0.0769820212,0.368799039
927,1778414944730,0.8501749333333333,0.2857585555555555,1.4650481666666666,-0.7437913911111111,0.4272791475555555,0.2291186255555555
928,1778414944740,0.8045073150000001,0.260768274,1.44486174,-0.77513464,0.56489625,0.202404236
929,1778414944750,0.7393724166666666,0.2187526,1.3127189333333331,-0.8102379733333334,0.6208498833333334,0.2258607666666666
930,1778414944760,0.76762102,0.23455028,1.13450221,-0.8119076279999999,0.50857614,0.25591445
931,1778414944770,0.85108626,0.30992663,0.95883644,-0.80372226,0.28060797,0.26495498
932,1778414944780,0.940692084,0.357209875,0.8013577359999999,-0.790527984,0.0988198194,0.20631365
933,1778414944790,1.0382618,0.40560293,0.5652159,-0.7536328,-0.22089764,0.054212693
934,1778414944800,1.0792702,0.39291927,0.46490517,-0.7163711,-0.3949891,-0.055739813
935,1778414944810,1.1029789600000002,0.37885137,0.419225688,-0.6800257000000001,-0.4395809599999999,-0.0948340315
936,1778414944820,1.1385726,0.354106,0.3360562,-0.5557861688888889,-0.4965255022222222,-0.1657601822222222
937,1778414944830,1.16579364,0.3413735649999999,0.2701438,-0.472032232,-0.4834398,-0.18511726
938,1778414944840,1.2007137,0.3382514333333333,0.25048886,-0.36377651,-0.4583814888888889,-0.2052616477777777
939,1778414944850,1.2161685,0.333763368,0.269515724,-0.250783338,-0.4081834160000001,-0.227143558
940,1778414944860,1.2032306999999998,0.3001801166666666,0.3157907866666666,0.015898998,-0.2240197433333333,-0.2367542188888889
941,1778414944870,1.13957862,0.209579306,0.32867161,0.1680135384,-0.0946965937999999,-0.201121464
942,1778414944880,1.1129851,0.16839397,0.2477820788888889,0.4935815466666667,0.1156792018888888,-0.1157385888888888
943,1778414944890,1.1197605,0.19449306,0.1730284,0.681003076,0.152146775,-0.089519666
944,1778414944900,1.1121719666666663,0.1967696111111111,0.1862540977777777,0.7333730555555555,0.1340724855555555,-0.0972774255555555
945,1778414944910,1.07312663,0.19329787,0.2275651,0.80353902,0.086236362,-0.113892472
946,1778414944920,1.0371234666666669,0.1934360866666666,0.2634164388888889,0.8463118777777778,0.0497076933333333,-0.1049469555555555
947,1778414944930,1.01887652,0.2099268819999999,0.284108052,0.830171955,0.0327872255,-0.0797461123
948,1778414944940,0.9988252444444444,0.2234141122222222,0.2843695777777777,0.766766,0.03321482,-0.051463883
949,1778414944950,0.9979851,0.215744295,0.2862667,0.7273663499999999,0.022219569,-0.0297788045
950,1778414944960,1.023454,0.20117028,0.2973242666666666,0.6723561777777778,0.0152966335555555,0.0027657806666666
951,1778414944970,1.03174612,0.191172743,0.300291924,0.671351689,0.0481194932999999,0.0336271427
952,1778414944980,1.0038391,0.12836114,0.29699904,0.76187927,0.09185616,0.10491302
953,1778414944990,0.979423051,0.105993991,0.268634571,0.8067765210000001,0.086725041,0.144679173
954,1778414945000,0.9442217433333332,0.0671177386666666,0.1896045633333333,0.8613116055555556,0.0787568755555555,0.2340053988888888
955,1778414945010,0.9494964833333334,0.0332878511111111,0.1186044855555555,0.8793655433333334,0.0839151413333333,0.35413869
956,1778414945020,1.00897351,0.0392187533,0.084925686,0.829194618,0.150925086,0.458960086
957,1778414945030,1.1510123,0.10153031,0.06759541,0.7035094266666666,0.3996553144444444,0.4880499988888889
958,1778414945040,1.2171441,0.15107588,0.040246252,0.547532966,0.719440627,0.387918553
959,1778414945050,1.2171441,0.1682042533333333,0.0600035,0.36238512,1.0222529,0.1885991
960,1778414945060,1.18688325,0.16229605,0.081010823,0.29366481,1.1233480999999998,0.1021642084999999
961,1778414945070,1.0894165666666666,0.1250072944444444,0.1240451688888888,0.19440214,1.2382891666666669,-0.0425047876666666
962,1778414945080,1.00411044,0.09821305,0.072623141,0.142846641,1.21662441,-0.073820891
963,1778414945090,1.0967712777777778,0.13714215,-0.0631710268888889,0.0561470473333333,1.1780189333333333,-0.0423011726666666
964,1778414945100,1.16769307,0.154365719,-0.1632198934,-0.1605612024,1.014617287,-0.040712971
965,1778414945110,1.1665415666666668,0.14820987,-0.2228280466666666,-0.3001805166666667,0.9263498766666668,-0.056554278
966,1778414945120,1.13615772,0.1099210499999999,-0.239751798,-0.546799929,0.82720936,-0.0865875978
967,1778414945130,1.0399692,0.006341833,-0.1027499,-0.69499147,0.7772268,-0.10460759
968,1778414945140,0.9225843,-0.02783699,0.0026830835,-0.619674007,0.83007273,-0.049081577
969,1778414945150,0.8588916,0.03442274,0.01975725,-0.4801768577777777,0.89580752,0.0749136288888888
970,1778414945160,0.8588916,0.03442274,0.01975725,-0.44271156,0.91291124,0.1085781
971,1778414945170,0.91140687,0.10572873,-0.021867129,-0.377534158,0.981142856,0.198616988
972,1778414945180,1.1672835333333331,0.2891056377777778,-0.1919319366666666,-0.3698171133333333,1.2832882,0.2061100466666666
973,1778414945190,1.2273887,0.3358123,-0.2848032,-0.42560783,1.4327422,0.07437065
974,1778414945200,1.2022653,0.3667897,-0.3934071,-0.48791423,1.4260229,-0.074676074
975,1778414945210,1.1600373,0.33361703,-0.4612464,-0.5318953,1.2592616,-0.2084516299999999
976,1778414945220,1.0865709,0.2717231855555556,-0.4297540844444444,-0.5166919222222223,1.03833852,-0.2706901777777777
977,1778414945230,1.00847649,0.197154793,-0.373530958,-0.4302502599999999,0.673153688,-0.25231046
978,1778414945240,1.006684788888889,0.1881783211111111,-0.3684734,-0.328958221111111,0.2731420522222222,-0.1496745455555555
979,1778414945250,1.06172956,0.21115866,-0.371378381,-0.288289368,-0.0812579599999999,-0.0364370382
980,1778414945260,1.0907344,0.21379296,-0.33995885,-0.2869455,-0.39071319,0.04871507
981,1778414945270,1.09600296,0.2046216959999999,-0.3075667299999999,-0.302094516,-0.582763574,0.0540905235999999
982,1778414945280,1.0692391,0.21964696,-0.20281671,-0.3362883744444444,-0.6595537966666667,-0.0243829881111111
983,1778414945290,1.0387496,0.24672171,-0.15229547,-0.3504736,-0.5562528,-0.12476555
984,1778414945300,1.011620711111111,0.2404340833333333,-0.1362511677777777,-0.3586182577777778,-0.4085634933333333,-0.1915515144444444
985,1778414945310,0.98944797,0.229745118,-0.1689061929999999,-0.345098166,-0.258403658,-0.237100357
986,1778414945320,0.9677393844444444,0.2098902855555555,-0.2288852977777777,-0.3246144155555555,-0.1335464811111111,-0.2615953466666667
987,1778414945330,0.8994610670000001,0.159835543,-0.292974417,-0.238627484,-0.1376391659999999,-0.194218882
988,1778414945340,0.8559950888888889,0.1309426033333333,-0.3220445555555555,-0.1843910266666666,-0.2020292444444444,-0.10949437
989,1778414945350,0.8098338500000001,0.092264533,-0.3739334099999999,-0.1465727936,-0.286624804,-0.0041843019999999
990,1778414945360,0.7881659,0.0659963991111111,-0.4085976911111111,-0.098804541,-0.4161651466666666,0.1594820433333333
991,1778414945370,0.76765454,0.0449843318,-0.481561649,-0.1340504245,-0.5436693220000001,0.332209274
992,1778414945380,0.77638674,0.045886826,-0.5176217,-0.3284831,-0.7773795,0.4946335600000001
993,1778414945390,0.7993352466666666,0.0162712753333333,-0.4948561199999999,-0.3776902444444444,-0.7244393888888889,0.5594512488888889
994,1778414945400,0.8656389389999999,0.0361454018,-0.492693373,-0.580274363,-0.555275436,0.5962785580000001
995,1778414945410,1.0004174744444445,0.1275718082222222,-0.4714672377777777,-0.74080503,-0.35467318,0.5123481
996,1778414945420,1.04422863,0.203261854,-0.5216340770000001,-0.843793872,-0.1794821919999999,0.40459467
997,1778414945430,1.1032520222222222,0.2806261411111111,-0.5639962922222223,-1.0015010111111111,0.0974895244444444,0.1584639566666666
998,1778414945440,1.15566196,0.339364317,-0.6202617779999999,-1.1210039699999998,0.357208218,-0.219019283
999,1778414945450,1.1695770555555556,0.3569246222222222,-0.7374549555555556,-1.1330453,0.38384116,-0.2585411
1000,1778414945460,1.16076895,0.35178882,-0.762407305,-1.1796223625,0.36017081,-0.6051969125
