id,timestamp,acc_x,acc_y,acc_z,gyro_x,gyro_y,gyro_z
0,1778414915080,1.0472867,0.039788906,-0.24870355,-0.5550395555555555,-1.0716722111111112,-0.0920512911111111
1,1778414915090,1.0778068,0.035642326,-0.12887947,-0.60183724,-0.8721830300000001,-0.185544851
2,1778414915100,1.0289895555555555,0.035371306,-0.09945702,-0.6038394555555556,-0.5540808944444444,-0.30523698
3,1778414915110,0.941323232,0.0427646899999999,-0.14638658,-0.60147075,-0.1256665502,-0.4493697949999999
4,1778414915120,0.8662666688888889,0.0440167955555555,-0.3835284733333333,-0.6385899333333334,0.0317895104444444,-0.5326757988888889
5,1778414915130,0.73370135,0.014635001,-0.8929789,-0.763270611111111,-0.3341758666666667,-0.5014547155555555
6,1778414915140,0.5821467950000001,-0.0057808249,-1.03267906,-0.9234483,-0.9129876,-0.33367532
7,1778414915150,0.7661863333333333,0.0713320744444444,-0.8828801444444444,-0.9739450555555555,-1.1638421777777777,-0.1322314666666666
8,1778414915160,0.8962840200000001,0.089907688,-0.7619102999999999,-0.91758424,-0.994718942,-0.042912021086
9,1778414915170,1.1491320777777778,0.1685531911111111,-0.7022225444444445,-0.796935088888889,-0.48715917,0.0093493563755555
10,1778414915180,1.0343591,0.07979124,-0.41316435,-0.64355816,0.206817613,0.0164623332
11,1778414915190,0.9274152244444446,0.0316312488888888,-0.2784681277777778,-0.4161736444444444,0.6114157,0.2520593567777778
12,1778414915200,0.91404724,0.0256112499999999,-0.2616311,-0.38956785,0.65383565,0.2814479
13,1778414915210,0.8770532044444445,0.0253944371111111,-0.0833144813333333,-0.1745496036111111,0.9602773666666666,0.4102687666666667
14,1778414915220,0.9004733,0.0306054452,-0.1179276196,-0.0132859275,1.2116156,0.4653129
15,1778414915230,0.8880565666666667,0.0490577444444444,-0.53559695,0.3353042569444444,1.365820577777778,0.5478451666666666
16,1778414915240,0.902381886,0.077376467,-0.78341156,0.478079606,1.071365,0.6055634599999999
17,1778414915250,0.97627646,0.091529734,-1.027438,0.5636932444444445,0.5948633999999999,0.6293593222222222
18,1778414915260,0.962595779,0.0764831192,-1.08041064,0.57532648,0.3325299599999999,0.59676722
19,1778414915270,0.8858070922222222,0.0442336073333333,-1.0709974666666666,0.559078,0.06314634,0.5667136
20,1778414915280,0.9318531,0.048569907,-1.0337799,0.5172688444444444,0.0577165835555555,0.5716003111111111
21,1778414915290,1.0192058,0.08442566,-0.9517934,0.40270105,0.14438902,0.4237753000000001
22,1778414915300,0.9810463866666668,0.0412795115555555,-1.0758655777777777,0.3228836822222222,0.1909491544444444,0.2897961322222222
23,1778414915310,0.967196664,0.0334684186999999,-1.1069700299999998,0.283708014,0.1801235835,0.239055085
24,1778414915320,0.9061809222222222,0.0728430055555555,-1.147871888888889,0.13637166,-0.037032615,0.12690352
25,1778414915330,0.914510645,0.116214094,-0.96504719,-0.069483876,-0.6319978,-0.16630317
26,1778414915340,0.9416639722222224,0.0869766166666666,-0.6764927444444445,-0.0575384164444444,-0.6428573555555555,-0.3118205655555555
27,1778414915350,0.9103213799999998,0.08854175,-0.56218522,0.0520747264,-0.64054973,-0.456455614
28,1778414915360,0.7841921,0.10445731,-0.46978348,0.26526043,-0.6796439,-0.7484406
29,1778414915370,0.76745944,0.1046280582,-0.439050008,0.320236684,-0.6891731240000001,-0.83420358
30,1778414915380,0.7633236777777778,0.1224800484444444,-0.4048203688888889,0.3677470044444444,-0.6835804822222222,-1.1460342777777777
31,1778414915390,0.8159317400000001,0.10835998,-0.4317325399999999,0.291587944,-0.7249687899999999,-1.47150812
32,1778414915400,0.84056735,0.020245085,-0.25577712,0.23960483,-0.9453625,-1.708158
33,1778414915410,0.9333167,0.006097917,-0.026617408,0.249500573,-0.98329615,-1.78182615
34,1778414915420,0.9059708866666668,0.008916509,0.2241560213333333,0.2567764333333333,-0.8397537944444444,-1.7562792
35,1778414915430,0.8766975,0.011220166,0.36630186,0.2689933833333333,-0.3048552055555555,-1.5708531222222222
36,1778414915440,0.914382596,0.0508566275999999,0.289370556,0.241681718,0.523480822,-1.18484518
37,1778414915450,0.920633,0.072229825,0.18254115,0.1485886,1.0967762,-0.82662904
38,1778414915460,0.91514485,0.0590583254999999,0.173150355,0.0488983246,1.28296244,-0.6814917460000001
39,1778414915470,0.9280589222222222,0.035262898,0.2191794544444444,-0.0652079463333333,1.5821961333333332,-0.5207981833333333
40,1778414915480,0.7876069,-0.030276157,0.21425031,-0.133012,1.9519625,-0.37826717
41,1778414915490,0.90474784,-0.092505395,0.15616766,-0.2247748177777777,2.124085611111111,0.0056163997777777
42,1778414915500,0.966489334,-0.0892125209,0.197685317,-0.293970234,2.0845773999999997,0.3119902386
43,1778414915510,1.026757,-0.0580691048888888,0.26046574,-0.3187095466666667,1.9512158333333336,0.57621561
44,1778414915520,1.06619015,-0.0255380737999999,0.331744968,-0.316510505,1.69638392,0.8829491599999999
45,1778414915530,1.0365545,0.04564291,0.5544531,-0.24540788,1.2781979,1.1745065
46,1778414915540,0.9701548555555556,0.0580013491111111,0.8850685666666667,-0.04566083,1.0314156,1.362113
47,1778414915550,1.0109127,0.14299615,1.2697692,0.227021395,1.2315291600000002,1.4533736300000002
48,1778414915560,1.0719325,0.20092637,1.1555552666666666,0.2983140511111111,1.2776549333333334,1.462699211111111
49,1778414915570,1.28507191,0.339230178,1.4206377199999998,0.480400822,1.12066032,1.27177635
50,1778414915580,1.135767566666667,0.4787237355555556,1.896922988888889,0.8562890444444444,1.0981336666666666,0.9851439155555556
51,1778414915590,1.2601041,0.5439647,1.4762447,1.3562336,1.6752486000000002,0.608862
52,1778414915600,1.2919757444444444,0.4268304599999999,1.3102729666666668,1.1564186666666665,1.356522111111111,0.3281437599999999
53,1778414915610,1.0738736,0.17839456,1.0772275,0.903840143,0.70582637,0.087992544
54,1778414915620,1.0553359333333332,0.1012762333333333,0.9180922333333332,0.6875594899999999,0.16923014,-0.0272336066666666
55,1778414915630,1.0357251,0.0646684092,0.66088004,0.4249359,-0.440924798,-0.166791844
56,1778414915640,0.9615093066666668,0.0993824971111111,0.4772974788888889,0.124018963,-1.0514463,-0.3783350488888889
57,1778414915650,0.94209766,0.06222924,0.43340942,-0.054212693,-1.3943353,-0.5425851
58,1778414915660,0.93892676,-0.0131715005,0.37654635,-0.05971032,-1.4034979,-0.5755708
59,1778414915670,0.945585683,-0.03096217235,0.356779956,-0.0323443624,-1.35169806,-0.53916432
60,1778414915680,0.9985508277777778,-0.0744250711111111,0.2546930455555556,0.0240436268888888,-1.255062033333333,-0.4570664711111111
61,1778414915690,1.0664951333333332,-0.0612535716666666,0.1499172833333333,0.1570725811111111,-1.1066940222222224,-0.2151709394444444
62,1778414915700,1.0821973,-0.022440333,0.12811723,0.279737486,-1.1459648000000002,0.0459662548
63,1778414915710,1.1082964,0.04198416,0.1525089,0.3672718966666666,-1.0650207333333332,0.2481906296666667
64,1778414915720,1.1257517,0.06663499,0.167646975,0.398180772,-0.99752888,0.313334096
65,1778414915730,1.1786832333333337,0.1375994922222222,0.22094107,0.4570664655555556,-0.6922002077777778,0.4269652644444444
66,1778414915740,1.22941318,0.197471877,0.259234647,0.46195325,-0.23677967,0.41583428
67,1778414915750,1.2037288,0.20232888,0.23794071,0.3477248,0.1150683499999999,0.32726142
68,1778414915760,1.19582581,0.2135246549999999,0.2100336,0.24070436,0.26216039,0.269108764
69,1778414915770,1.1640008555555557,0.17566404,0.2923510644444444,0.0229576753333333,0.4956262055555556,0.1899565244444444
70,1778414915780,1.13640162,0.15141738,0.373979144,-0.1250709766,0.8069827,0.114320061
71,1778414915790,1.0636292,0.10811607,0.44121477,-0.2423536499999999,1.3209572,-0.02275406
72,1778414915800,1.04299382,0.1006522116,0.409164114,-0.253593238,1.44385968,-0.072843536
73,1778414915810,1.0210047333333334,0.1168970646666666,0.3725725433333333,-0.2908141977777778,1.6842077333333334,-0.1948093722222222
74,1778414915820,0.9893667066666668,0.12689765,0.3532929633333333,-0.3275328977777778,1.7598848666666669,-0.2607808866666666
75,1778414915830,0.934100266,0.0847945839999999,0.338300223,-0.344120792,1.7623554,-0.290916008
76,1778414915840,0.90819323,0.017805915,0.3172441,-0.3309265,1.6062229,-0.28602922
77,1778414915850,0.9191694,-0.0078053335,0.3226103,-0.31382278,1.5042114,-0.26464957
78,1778414915860,0.978387,0.0060708149444444,0.3900939,-0.2405211066666666,1.4264301333333331,-0.2377722966666667
79,1778414915870,0.99335065,0.01439108375,0.383757145,-0.1177408081999999,1.2863832199999998,-0.199777598
80,1778414915880,1.002755022222222,0.0360048126666666,0.3472357055555555,-0.0065666080577777,1.095690322222222,-0.1644027566666666
81,1778414915890,1.0106688,0.10250599,0.26208845,0.09300149,0.65261394,-0.1485886
82,1778414915900,0.9581724444444444,0.0903643508888888,0.2918191877777777,0.15347537,0.15538427,-0.1925696
83,1778414915910,0.92464235,0.0709035265,0.333723735,0.178397942,0.1087155404,-0.197945056
84,1778414915920,0.8806001666666666,0.0352154696666666,0.4225246466666666,0.2507358388888889,0.0831685515555555,-0.2114379955555555
85,1778414915930,0.877868305,0.0210500091,0.46678336,0.336424125,0.4337473806,-0.217980842
86,1778414915940,0.9964064277777778,0.0476450604444444,0.3922451155555555,0.3575662377777778,0.8569677866666666,-0.26763594
87,1778414915950,1.00915644,0.0615706625,0.324808583,0.34124981,1.108993208,-0.320236682
88,1778414915960,0.8925521399999999,0.0012195833,0.18010198,0.3013004,1.2592616,-0.31718245
89,1778414915970,0.9530738600000002,-0.0014635,0.04564291,0.275461562,1.13831384,-0.2259218649999999
90,1778414915980,0.94112194,-0.037105825,-0.07274815,0.2378401711111111,0.9272321777777778,-0.1701718711111111
91,1778414915990,0.913803348,-0.0525213594,-0.076650814,0.23349637,0.9025268,-0.16447063
92,1778414916000,0.91477895,-0.038325407,0.022196416,0.12720895,0.4803550199999999,0.078646585
93,1778414916010,0.8952148444444443,-0.0198995356666666,0.06262899,0.09544489,0.66910684,0.110410646
94,1778414916020,0.940890272,0.0036343584999999,0.2335685121999999,0.0620926252,0.9828838359999998,0.1159082683999999
95,1778414916030,1.02093698,0.0515172331111111,0.2758629844444444,0.0731150215555555,1.5099126777777778,0.0725381123333333
96,1778414916040,0.983938565,0.0280290739999999,0.0068388137,0.044683476,1.7222227799999998,-0.0338103961999999
97,1778414916050,0.94868675,-0.0118435086666666,-0.0879489007777777,-0.0255707443333333,1.4302309888888889,-0.0232291638888888
98,1778414916060,0.8639955279999999,-0.0600766752,-0.172900326,-0.1211615554,0.7745543400000001,0.078524417
99,1778414916070,0.8330059266666666,-0.0900560666666666,-0.092668006,-0.2082140711111111,0.0904987333333333,0.2134402133333333
100,1778414916080,0.88364911,-0.0467405315,0.057838738,-0.2625116,-0.34306708,0.30221668
101,1778414916090,1.028681302222222,0.0776671326666666,0.3017520277777777,-0.15439165,-0.84029675,0.4433224
102,1778414916100,1.03167608,0.108847808,0.57185047,0.165692318,-0.5197241100000001,0.3729528
103,1778414916110,1.0926857,0.1232388999999999,0.5407937,0.5700732,-0.026648212,0.32787228
104,1778414916120,1.0777397,0.0850232524,0.360838112,0.6723290399999999,0.0473864762,0.334469424
105,1778414916130,1.0677757,0.059546154,0.2408677199999999,0.7238709444444446,-0.0163316801111111,0.3664235255555555
106,1778414916140,1.3139547,0.0254405086,0.0427707895,0.488769436,-0.3900412363,0.2780882269999999
107,1778414916150,1.0980519,0.021708583,0.24550213,0.27075803,-0.6002338,0.11529742
108,1778414916160,1.04424081,0.0467618758,0.360588118,0.3257343,-0.471345,0.10124794
109,1778414916170,1.0925942666666666,0.0832263983333333,0.2123091433333333,0.3576341055555556,-0.3943103888888888,0.0489865596666666
110,1778414916180,0.99318806,0.11876709,0.1189297033333333,0.4116601433333333,-0.26263888,-0.0152202775333333
111,1778414916190,0.908955456,0.116116534,0.094487216,0.483638322,-0.0137593354,0.0241590101
112,1778414916200,1.2964475,0.17644322,-0.11762882,0.37460208,0.33252996,-0.097888276
113,1778414916210,1.31645171,0.0468685883,-0.1620003139999999,0.258296768,0.426844792,-0.1897597032
114,1778414916220,1.109871638888889,-0.0522726991111111,-0.1387276133333333,0.1650814733333333,0.3608325722222222,-0.1418014044444444
115,1778414916230,0.945902792,-0.1162628836,-0.0734128222,0.11450332,0.224287842,0.045049988
116,1778414916240,1.0434044111111112,0.04051049,-0.1473019507777777,0.0438622275555555,0.1908134144444444,0.28708126
117,1778414916250,1.23962729,0.171583174,-0.1363921,-0.0854269854,0.357513619,0.304843335
118,1778414916260,1.2354175888888888,0.1965256855555555,-0.15823078,-0.1810653,0.5901039066666667,0.1865629333333333
119,1778414916270,1.21724174,0.18415099,-0.182657002,-0.2670929549999999,0.8490395,0.0560452335
120,1778414916280,1.2827001999999998,0.2050322911111111,-0.3229761622222222,-0.3653375633333333,1.1018666,-0.1094943643333333
121,1778414916290,1.41731738,0.263457428,-0.464734462,-0.473925837,1.10508378,-0.29012191
122,1778414916300,1.4312623777777778,0.2463727688888889,-0.5525288644444445,-0.6493136577777778,0.7681489244444444,-0.5600960555555555
123,1778414916310,1.39276115,0.217930397,-0.567094072,-0.72504514,0.486096984,-0.6542479800000001
124,1778414916320,1.1591767000000002,0.0726702266666666,-0.5131532488888889,-0.8379297,-0.26304612,-0.7392779
125,1778414916330,1.0703334333333334,-0.04105253,-0.3913304222222222,-0.8263914777777778,-0.4524087755555555,-0.6357732111111112
126,1778414916340,0.981325518,-0.1556035909999999,-0.245764343,-0.7394611400000001,-0.674757172,-0.30716454
127,1778414916350,0.95922936,-0.1138379422222222,-0.13750125,-0.6168708511111112,-0.6161158066666668,0.1490976333333333
128,1778414916360,0.99847287,-0.04735032,-0.00219525,-0.55693996,-0.4585172199999999,0.42133188
129,1778414916370,1.0546550300000002,-0.0124160355555555,0.0270747499999999,-0.4830953377777778,-0.1446774777777777,0.5163526088888889
130,1778414916380,1.06021434,0.0235806439999999,0.0220988495999999,-0.45682212,-0.0235328939999999,0.5383091710000001
131,1778414916390,1.0577751666666666,0.06954674,-0.047279184,-0.36085802,0.42700767,0.5455374900000001
132,1778414916400,1.0212578,0.085474502,-0.1125827922,-0.300139798,0.5977598399999999,0.51576888
133,1778414916410,0.9723738,0.08174257,-0.14473405,-0.2038024,0.6222751977777777,0.4490915222222222
134,1778414916420,0.9133154999999998,0.08564524,-0.15400289,-0.093978851,0.527451348,0.358292445
135,1778414916430,0.8804714455555556,0.0902220686666666,-0.1346521677777777,-0.08414421,0.51700586,0.34986275
136,1778414916440,0.873990029,0.0828005632,-0.12380906,-0.0328330395999999,0.395141817,0.2309918859999999
137,1778414916450,0.8516011644444444,0.07840905,-0.2132983611111111,0.0157632522222222,0.2049986455555555,0.0415885171111111
138,1778414916460,0.84700062,0.0822304083333333,-0.2573117733333333,0.0025282284444444,0.0889376657777777,-0.0221432122222222
139,1778414916470,0.8427626,0.069302823,-0.286022795,-0.0391858516,-0.1438087202,-0.1124264359999999
140,1778414916480,0.8237913111111111,0.0466456747777777,-0.2580536633333333,-0.0853659033333333,-0.3705552233333333,-0.1803526533333333
141,1778414916490,0.79971132,0.0310841299999999,-0.14656038,-0.131362705,-0.614405445,-0.251943946
142,1778414916500,0.7810212,0.025367333,-0.022226907,-0.1119038244444444,-0.7518596444444445,-0.3022506199999999
143,1778414916510,0.86205024,0.0441245257999999,0.0023842858,-0.0807234679999999,-0.7456154300000001,-0.38840724
144,1778414916520,0.9242918,0.07003457,-0.025397824,-0.051158458,-0.7101863,-0.5053234
145,1778414916530,0.9690657,0.085660485,-0.058097902,-0.0306950744999999,-0.7101863,-0.5795413500000001
146,1778414916540,1.0142123444444444,0.1098505873333333,-0.1881749388888888,0.0188174886666666,-0.7594612866666667,-0.7734174611111111
147,1778414916550,0.9247796,0.104945146,-0.2001336199999999,0.050242186,-0.9569686,-0.8455653
148,1778414916560,0.96408063,0.12201932,-0.33727577,0.0212608777777777,-1.1042506222222224,-0.8441400222222222
149,1778414916570,0.914879583,0.0758916199999999,-0.305883707,-0.0623369625999999,-1.22164869,-0.8387849060000001
150,1778414916580,0.8947811977777778,0.043447658,-0.2644293955555555,-0.07851084,-1.2313747444444445,-0.8053172511111111
151,1778414916590,0.8884326155555555,0.0048275177333333,-0.2585686177777778,-0.0500046328888888,-1.1651317222222224,-0.6969937044444444
152,1778414916600,0.8930399399999999,0.013903251,-0.27041212,-0.026602398,-1.022817888,-0.58803213
153,1778414916610,0.9459698155555556,0.0579437603333333,-0.3617453733333333,0.0133198632222222,-0.7095075633333333,-0.3182005222222222
154,1778414916620,0.97958463,0.1020577789999999,-0.4090391089999999,-0.004978405,-0.4648700339999999,-0.137226836
155,1778414916630,1.0023756166666666,0.137325078,-0.4518962666666666,-0.0605247816666666,-0.29338485,0.0224486366666666
156,1778414916640,0.97871562,0.14470966,-0.492004308,-0.0937345118,-0.217110389,0.165814485
157,1778414916650,0.9362436,0.1247024,-0.41243258,-0.018172706,-0.42797485,0.39873055
158,1778414916660,0.929413952,0.098944796,-0.293937876,0.1417471072,-0.484844747,0.508194415
159,1778414916670,0.9695789222222222,0.0675581407777777,-0.2341633911111111,0.38023545,-0.4122964666666666,0.6335674111111111
160,1778414916680,1.0219194,0.036374073,-0.19647488,0.609595022,-0.273247273,0.74092718
161,1778414916690,1.0596485333333332,0.0103596828866666,-0.3886202288888889,0.76391541,-0.1227548477777777,0.8532687888888889
162,1778414916700,1.22028461,0.057738124,-1.044076092,0.5350716417,-0.393950672,0.972865892
163,1778414916710,1.3194063,0.09274931,-0.96642834,0.023364907,-0.9105442,0.9032904
164,1778414916720,1.3137962,0.028782167,-0.6782103,-0.25029466,-1.1493855,0.7426376
165,1778414916730,1.2468166799999998,-0.007902901,-0.51363974,-0.326528404,-1.11811006,0.5784418
166,1778414916740,1.1826198111111113,-0.0865565428888888,-0.4783781888888889,-0.3574644244444445,-0.9131233277777778,0.3663556433333333
167,1778414916750,1.15171964,-0.141121038,-0.61577985,-0.4085040999999999,-0.64971244,0.176993
168,1778414916760,1.055336,-0.14595364,-0.88834447,-0.6023463222222223,-0.6220206711111111,0.0054127857777777
169,1778414916770,0.903781373,-0.08772463,-1.079441047,-1.0156863,-1.163435,-0.051463883
170,1778414916780,0.9040365033333332,-0.1178625666666666,-1.0788638,-1.2678728555555556,-1.6837155555555556,0.0238739464444444
171,1778414916790,0.946732101,-0.0987527119999999,-1.00200974,-1.6088953,-2.4767107200000003,0.132156804
172,1778414916800,1.0226512,0.033447072,-0.50176704,-1.8116966,-3.1707554,0.20448112
173,1778414916810,1.1688792,0.1808459104,0.173369872,-1.40334523,-2.78549402,0.061237437733
174,1778414916820,1.0619217,0.1247024,0.2274523,-0.8606753044444445,-2.0513438666666666,-0.1483849857566666
175,1778414916830,0.8742583,-0.057594825,-0.118604474,-0.4292050588888889,-1.5832312555555557,-0.2195826244444444
176,1778414916840,0.789357022,-0.1401057465,-0.3234304422,-0.2031372639999999,-1.64606536,-0.211200438
177,1778414916850,0.7231620688888889,-0.2009128188888889,-0.4087467211111111,-0.0753208611111111,-1.8619472555555552,-0.16406339
178,1778414916860,0.8569402,-0.15253939,-0.015153322,0.19562383,-2.1109354,0.069483876
179,1778414916870,0.9224148866666666,-0.07319194,0.1376604673333333,0.458899,-1.671049,0.15866758
180,1778414916880,0.940609722,0.0188425629,0.0748854671,0.65516425,-1.10699263,0.2328855219999999
181,1778414916890,0.9645074555555556,0.0793271198888889,-0.1121373026666666,0.7591643333333333,-0.8452513666666666,0.2919680366666666
182,1778414916900,1.00937594,0.0874288799,-0.162418006,0.81734416,-0.7869086999999999,0.3108907099999999
183,1778414916910,1.110566188888889,0.0891142773333333,-0.0793372833333333,0.8623975511111112,-0.7208422000000001,0.1995943366666666
184,1778414916920,1.10271065,0.0675740676,0.0521981729999999,0.8570492270000001,-0.378374074,0.0585497083
185,1778414916930,1.1811529444444444,0.0212343023333333,0.25708478,0.8211993,0.1631895333333333,-0.0408079905555555
186,1778414916940,1.1918013,-0.0801022389999999,0.431311756,0.735857165,1.377865275,-0.219202538
187,1778414916950,1.0709533999999998,-0.1675775273333333,0.299282351111111,0.5718378855555556,2.2982448666666664,-0.1956917022222222
188,1778414916960,1.2016493599999998,-0.0698760286,0.582216906,0.4838826639999999,2.91790271,-0.0322832764
189,1778414916970,1.2905936,0.053204324,0.7631238,0.5676298,3.8120687,0.13484453
190,1778414916980,1.35296612,0.1379958584,0.6620874059999999,0.6599899060000001,4.381622269999999,0.233252033
191,1778414916990,1.2836080666666667,0.1899128411111111,0.6221907811111111,0.7142331399999999,4.680286,0.2580320533333333
192,1778414917000,1.114946511111111,0.1764703277777778,0.6185794277777777,0.7623543755555555,4.878743555555555,0.2834840266666666
193,1778414917010,0.93120377,0.0480881717,0.644836411,0.7362847250000001,4.892474040000001,0.273934448
194,1778414917020,0.7880777977777779,-0.0593225663333333,0.7624394488888888,0.6464291,4.8474545,0.23380178
195,1778414917030,0.558117956,-0.213564291,0.923947176,0.575082164,4.82644162,0.283158244
196,1778414917040,0.4721413666666667,-0.2458273633333333,1.0768107133333331,0.4476322744444444,4.4516259555555555,0.4149519377777777
197,1778414917050,0.72726493,0.101182729,1.6138501900000002,0.2155374555999999,3.86753368,0.4445441
198,1778414917060,1.0246024,0.70211416,2.6496058,0.3953709,2.605569,-0.00503949
199,1778414917070,0.436184,0.82876784,3.0256948,0.46299168,-0.3956534399999999,-0.199105662
200,1778414917080,0.5083223833333332,0.5486092511111111,2.469148288888889,0.2256232244444444,-1.4491078444444443,-0.1620272455555555
201,1778414917090,0.721807395,0.183958906,1.41053966,0.244613782,-1.81523948,-0.1532310439999999
202,1778414917100,0.7920821533333333,-0.0401886595555555,0.9056693333333332,0.4091488988888889,-2.9477961444444443,-0.1233402477777777
203,1778414917110,0.78785086,-0.09884723,0.71528566,0.611733014,-3.21956206,-0.0423622588
204,1778414917120,0.8794008866666666,-0.05524035,0.4658130911111111,0.7831231555555556,-2.9233621999999997,0.079800404
205,1778414917130,0.921309864,-0.031837222,0.341306508,0.8867364099999999,-2.57212504,0.1973342
206,1778414917140,0.9575660566666668,-0.0354797129999999,0.22069378,0.9659700888888888,-1.833144122222222,0.3473514944444444
207,1778414917150,1.0339220888888887,-0.0486512124444444,0.0455683771111111,0.9849742444444444,-0.9740723222222224,0.46151206
208,1778414917160,1.07792572,-0.0284681246,-0.0216384562,0.920638444,-0.165188375,0.50795004
209,1778414917170,1.0899213444444444,0.0082389633333333,-0.0533398345555555,0.74233216,0.4143835,0.48180577
210,1778414917180,1.14217638,0.0762483508,0.0011159186,0.514608272,0.70123734,0.401662594
211,1778414917190,1.155755088888889,0.1051077622222222,0.0535668104444444,0.3621136466666667,0.8381417777777779,0.3254288577777777
212,1778414917200,1.1477438,0.138605646,0.1446974572,0.1126096924,0.925983344,0.1594616746
213,1778414917210,1.0880512,0.13201989,0.26501545,-0.14522894,0.8365553,-0.053296424
214,1778414917220,1.0423627,0.08698983,0.360783235,-0.2561587959999999,0.715302148,-0.1427244608
215,1778414917230,0.9662759,0.026099084,0.4563681,-0.3300441666666666,0.4960334288888888,-0.20743355
216,1778414917240,0.94898834,0.0180498332,0.511560336,-0.306736953,0.415971712,-0.20460329
217,1778414917250,0.93307275,0.0248795,0.66720355,-0.1541880255555555,0.4303334133333333,-0.1913479044444444
218,1778414917260,0.945073416,0.051533492,0.622255804,0.0134080959999999,0.497580924,-0.216209386
219,1778414917270,0.9535617,0.1042134,0.5388424,0.28664008,0.4693597599999999,-0.34467056
220,1778414917280,0.943371442222222,0.1367356222222222,0.5575155911111112,0.3427022866666667,0.4912145144444444,-0.4392161455555555
221,1778414917290,0.915611326,0.148334874,0.559166792,0.370265076,0.568011597,-0.537209611
222,1778414917300,0.8795432044444446,0.1385277288888889,0.5734006777777778,0.3760273933333333,0.60639316,-0.5993938666666667
223,1778414917310,0.8514277140000001,0.11582383,0.6024375670000001,0.389628924,0.570393894,-0.63189094
224,1778414917320,0.823981,0.07101024,0.582534,0.40270105,0.2799971,-0.60794574
225,1778414917330,0.8239810000000001,0.07101024,0.582534,0.3917057949999999,0.069560225,-0.58931492
226,1778414917340,0.8519704333333333,0.07027849,0.53738909,0.36313172,-0.3765279555555555,-0.5597566722222223
227,1778414917350,0.8758712300000001,-0.0040947515999999,0.4301684069999999,0.338073416,-0.6398167,-0.54148555
228,1778414917360,0.9773571533333334,0.032413818,0.4918918399999999,0.24415225,-0.7305478466666666,-0.4517045922222222
229,1778414917370,1.0421644,0.056131326,0.46929568,0.20722993,-0.5757999,-0.4918847700000001
230,1778414917380,0.9706664000000002,0.04198416,0.4607586,0.13942589,-0.27281967,-0.49188477
231,1778414917390,0.95542766,0.0402279588,0.454465548,0.1235438599999999,-0.1475959755,-0.477224425
232,1778414917400,0.911096522222222,0.0432308418888888,0.3986208277777778,0.0354461091111111,0.2225095954444444,-0.4196690311111111
233,1778414917410,0.8633905222222222,0.0374852492222222,0.3491734966666666,-0.047425504,0.3209917411111112,-0.3724980388888889
234,1778414917420,0.864135774,0.058570493,0.352520563,-0.176382137,0.219523234,-0.27491182
235,1778414917430,0.8888119955555556,0.0562397311111111,0.4021847322222222,-0.2576248244444444,0.0761098716666666,-0.20288613
236,1778414917440,0.8777706999999999,0.0550580898,0.438159728,-0.267703815,0.0368799025,-0.152253675
237,1778414917450,0.8671033933333334,0.0529333047777777,0.4675069644444445,-0.2390279311111111,0.0847296022222222,-0.0728435344444444
238,1778414917460,0.87986845,0.06881499,0.44417223,-0.184567502,0.286594268,0.030267484
239,1778414917470,0.9134712888888888,0.1143698155555555,0.4094310666666667,-0.1311794491111111,0.7069114822222223,0.11611188
240,1778414917480,0.893847876,0.164512649,0.338669142,-0.0962389812,0.99474942,0.144129408
241,1778414917490,0.8832290333333334,0.1558322677777777,0.2992518666666666,-0.08394059,1.0458722333333332,0.1591426766666666
242,1778414917500,0.896915152,0.1167751079999999,0.1876999709999999,-0.098804544,0.94382008,0.185911364
243,1778414917510,0.9601475000000002,0.07101024,0.017805915,-0.1884633433333333,0.7287747111111111,0.1935537355555555
244,1778414917520,1.05977833,0.043697671,-0.0376576871,-0.517967925,0.44559779,0.170579097
245,1778414917530,1.1304928,0.04393549,-0.046374656,-0.8092199,0.32825404,0.12140589
246,1778414917540,1.1107355,0.06369274,0.076864235,-1.108535,0.44126078,-0.016645588
247,1778414917550,1.08032218,0.053960465,0.1399106065,-1.18213454,0.521648304,-0.0923295614
248,1778414917560,1.0217295888888889,0.0402496393333333,0.2018376533333333,-1.2322061999999998,0.617863511111111,-0.1893796255555555
249,1778414917570,0.99437508,0.0374960916,0.211079386,-1.24043222,0.639175282,-0.242292574
250,1778414917580,0.96334887,-0.005610083,0.23696505,-1.1821167666666663,0.4988161633333333,-0.2777488477777778
251,1778414917590,1.008571017,-0.00407340833,0.268357122,-1.08815568,0.308645842,-0.2728960099999999
252,1778414917600,1.0620945,0.0266885511,0.28698829,-0.9361404,0.0623318711111111,-0.27062229
253,1778414917610,1.08088012,0.0542775558,0.262951321,-0.73176448,-0.16433318,-0.29470327
254,1778414917620,1.0667526,0.0521473492222222,0.2176990155555555,-0.6579334,-0.2608063233333333,-0.31372098
255,1778414917630,1.01901367,0.0284925161,0.206664486,-0.5996993,-0.44324604,-0.3825431
256,1778414917640,0.98638548,0.0150957318888888,0.2379610288888888,-0.5862606333333333,-0.49781508,-0.4346687266666666
257,1778414917650,0.994131184,0.0182449666,0.267180208,-0.58393942,-0.503842108,-0.508621964
258,1778414917660,1.0204254666666666,0.0463170663333333,0.3398741644444444,-0.6176175,-0.344153051111111,-0.7315404666666667
259,1778414917670,0.9556351,0.045057507,0.45972806,-0.4488811179999999,-0.0750884,-0.98966417
260,1778414917680,0.7881049222222223,0.0519847405555555,0.5600902511111111,-0.2071960044444444,0.0479430266666666,-0.9983450111111112
261,1778414917690,0.8687153760000002,0.1103082673999999,0.4984497989999999,0.139425879,0.179390565,-0.9436674029999998
262,1778414917700,0.8870233066666667,0.1020181433333333,0.43707832,0.4208228733333333,0.1873519433333333,-0.89422949
263,1778414917710,0.84788816,0.0781956177777777,0.324731,0.7653407288888889,0.10108674,-0.7725351333333333
264,1778414917720,0.8482019600000001,0.12845261,0.1086953656,0.995894837,-0.0874885985,-0.45987636
265,1778414917730,0.8315999822222222,0.1437008,-0.0214070725555555,0.9825987444444444,-0.2348792588888889,-0.3287885444444444
266,1778414917740,0.828029989,0.155835314,-0.0384961462,0.936153982,-0.28069959,-0.270391544
267,1778414917750,0.8427015933333334,0.19654602,-0.0573509086666666,0.7824444466666667,-0.3035656333333333,-0.1068473666666666
268,1778414917760,0.8837527570000001,0.218183454,-0.1339712402,0.716615472,-0.147718135,0.02287622965
269,1778414917770,0.9872528,0.20745113,-0.2935842,0.6574244,0.18898088,0.28083703
270,1778414917780,1.17833705,0.212524583,-0.5298205300000001,0.5739215449999999,0.214086695,0.497199107
271,1778414917790,1.2903497,0.21428078,-0.5803387,0.42835665,0.04421007,0.67055756
272,1778414917800,1.3137901,0.19337714,-0.44857494,0.32671165,-0.079914094,0.773179912
273,1778414917810,1.4255675333333333,0.2444451555555555,-0.3755774655555555,0.2048544144444444,-0.072054521,0.8223870533333333
274,1778414917820,1.4990205,0.2848032,-0.36096618,0.04046863,0.033825666,0.7627955
275,1778414917830,1.5408033,0.293389064,-0.396480436,-0.105157354,0.1315612292,0.6147261399999999
276,1778414917840,1.490236,0.2718044744444444,-0.4751970833333334,-0.2990266944444444,0.1346154644444444,0.4226214666666666
277,1778414917850,1.30944232,0.16300951,-0.504895318,-0.524626171,-0.0424080725,0.2224400259999999
278,1778414917860,1.1799096111111111,0.0776535791111111,-0.3957446511111111,-0.6536574666666666,-0.4399881794444444,0.14149598
279,1778414917870,1.08129481,0.0295901407,-0.267174128,-0.74385923,-0.71873814,0.133012
280,1778414917880,0.9818866,-0.018293751,-0.099822894,-0.77195823,-0.80608934,0.16721943
281,1778414917890,0.8640138499999999,-0.07076632,-0.011951917,-0.7316423,-0.6857524,0.2832804
282,1778414917900,0.8533899111111112,-0.0922276044444444,0.0189712977777777,-0.6583406111111111,-0.5054845777777778,0.3788440799999999
283,1778414917910,0.8687946,-0.079891859,-0.0189797658,-0.61448182,-0.3451439799999999,0.464091212
284,1778414917920,0.9485681988888888,-0.0268071193333333,-0.0648615077777777,-0.5804915555555555,-0.0566476011111111,0.581848981111111
285,1778414917930,0.91643454,-0.0027318664,-0.0803309093,-0.5700732399999999,0.0983922164999999,0.64148122
286,1778414917940,0.8588916,0.0297578329999999,-0.056375243,-0.528841,0.096742935,0.676666
287,1778414917950,0.827453802,0.0137081168,-0.0481796409,-0.50233025,0.0685217924,0.6839351220000001
288,1778414917960,0.8046844911111112,0.0028456945444444,-0.0691639266666666,-0.4296801555555556,-0.0461953217777777,0.7051043933333334
289,1778414917970,0.83232295,0.01619606517,-0.080992533,-0.323657422,-0.259136699,0.70256595
290,1778414917980,0.85254973,0.032715324,-0.05905832,-0.25273806,-0.37055522,0.6644491
291,1778414917990,0.8852590060000001,0.0434720484,-0.0351300983,-0.1537808,-0.4517979,0.5948125
292,1778414918000,0.9129801233333332,0.047269018,-0.032796629,-0.0977864666666666,-0.4792860388888889,0.5466234444444444
293,1778414918010,0.9532093933333334,0.0630965052222222,-0.0455345004444444,0.0007635591111111,-0.51376495,0.41196556
294,1778414918020,0.957610733,0.0537165487,-0.0558874065,0.050242186,-0.5379274,0.28266957
295,1778414918030,0.96195652,0.0432037403333333,-0.0825759576666666,0.0646310322222222,-0.5729492844444444,0.2196844277777777
296,1778414918040,1.005808692,0.0570094216,-0.094993344,0.0536018465,-0.6625402,0.04566083
297,1778414918050,1.0442513,0.06721598,-0.0960286411111111,0.0058539531333333,-0.7307514733333333,-0.1396295066666666
298,1778414918060,1.0255811,0.052789665,-0.123065106,-0.0245255183599999,-0.79863697,-0.321947046
299,1778414918070,1.0023755,0.039788906,-0.16229606,-0.055434387,-0.9361998,-0.5053234
300,1778414918080,0.9036076,-0.00560703461,-0.138508092,-0.0791352605,-1.10094529,-0.589986844
301,1778414918090,0.8766975,-0.0248795,-0.1125065599999999,-0.078035735,-1.2202438,-0.6262711
302,1778414918100,0.8763560399999999,-0.0354868261,-0.0629701374,-0.0820673275999999,-1.22537488,-0.632501782
303,1778414918110,0.8984061,-0.03442274,-0.03149574,-0.0869269528888889,-1.1527790666666666,-0.631225818888889
304,1778414918120,0.9517695666666668,-0.02182038,-0.0429869248888888,-0.1013158035555555,-0.971696777777778,-0.6370627444444446
305,1778414918130,1.050573445,0.0032928747,-0.102640135,-0.115908265,-0.72667915,-0.6769715
306,1778414918140,0.93087745,-0.02414775,-0.30800578,-0.19104248,-0.51654774,-0.6720847
307,1778414918150,0.9596597,-0.0017074167,-0.39730978,-0.310340945,-0.546784644,-0.601715113
308,1778414918160,0.9596597,-0.0017074167,-0.39730978,-0.4290693044444444,-0.6085820344444444,-0.5696659488888889
309,1778414918170,1.00512869,0.05429890173,-0.2431208889999999,-0.54960984,-0.5733565,-0.5480827
310,1778414918180,0.988716177777778,0.0765661228888889,-0.1285847366666666,-0.5409222488888888,-0.4501010955555555,-0.5328794111111111
311,1778414918190,0.93683518,0.0680344599999999,-0.08831003,-0.445521452,-0.2612135539999999,-0.4869979759999999
312,1778414918200,0.9579522,0.065887995,-0.14253882,-0.3432113088888889,-0.0788417146666666,-0.4493969244444444
313,1778414918210,0.99705513,0.1078447035,-0.284653806,-0.243269918,0.0605807786,-0.5045293230000001
314,1778414918220,0.9564887,0.1290929,-0.4451479299999999,-0.23380178,0.06925481,-0.49799323
315,1778414918230,0.951003686,0.151710082,-0.5584045639999999,-0.3030718639999999,-0.395294536,-0.4672065159999999
316,1778414918240,0.97627646,0.18376072,-0.4422209,-0.3933007888888889,-0.86391617,-0.4784461255555556
317,1778414918250,0.980666984,0.188443918,-0.3124816339999999,-0.4453992679999999,-1.07767202,-0.497504568
318,1778414918260,1.0128640444444443,0.15058805,-0.0298797917777777,-0.4542497711111111,-1.0970562555555556,-0.5683764222222222
319,1778414918270,1.0114005,0.10738432,0.037563168,-0.4140696022222221,-0.8969698022222222,-0.6217236888888888
320,1778414918280,0.94086283,0.02948342931,0.0023903842,-0.2992845999999999,-0.2237075335999999,-0.58424486
321,1778414918290,0.7695571,-0.05491174,-0.16083255,-0.21120045,0.49012858,-0.32939938
322,1778414918300,0.75565384,-0.0573996879999999,-0.24679488,-0.157751306,0.705207892,-0.0912300374
323,1778414918310,0.7530520666666667,-0.0382440999999999,-0.40219826,-0.0654794299999999,0.8121129422222222,0.2023092151111111
324,1778414918320,0.77504521,0.0125830522,-0.5164721790000001,-0.016828839,0.8057533400000001,0.323596332
325,1778414918330,1.0285051,0.12153149,-0.66162395,0.24265908,0.7106444,0.9228375
326,1778414918340,1.1495365400000002,0.155899338,-0.74694607,0.24265908,0.7106444,0.9228375
327,1778414918350,1.1995889222222222,0.1688580866666666,-0.7949312666666667,0.2227047355555555,0.8079812222222222,0.923991322222222
328,1778414918360,1.36879328,0.209207332,-1.12852314,-0.01511847,1.69082525,0.8987090500000001
329,1778414918370,1.3449937555555556,0.2243084911111111,-1.3558413666666669,-0.2925788755555555,1.5636671444444443,0.7784060666666668
330,1778414918380,1.21623855,0.262923878,-1.28005638,-0.5272527800000001,0.342670032,0.6416034119999999
331,1778414918390,1.166379,0.26797295,-1.0672269,-0.5404471,-0.23739052,0.59664506
332,1778414918400,1.11835794,0.254197766,-0.8251822800000002,-0.378816928,-0.864852808,0.525542432
333,1778414918410,1.0309002444444444,0.2262327188888889,-0.5920603022222223,-0.0750493733333333,-1.6344660666666666,0.4118976933333333
334,1778414918420,0.983197576,0.186989574,-0.559072253,0.060260087,-1.83888692,0.369532047
335,1778414918430,0.8857224,0.07442507,-0.59402853,0.27320144,-2.176296,0.28755635
336,1778414918440,0.8145800444444444,0.0173756744444444,-0.704224681111111,0.27320144,-2.3421071777777778,0.2771040666666666
337,1778414918450,0.7927901599999999,-0.041874392,-0.8007235400000001,0.16508147,-2.51042956,0.275950244
338,1778414918460,0.8048064555555556,-0.1011644366666666,-0.8453033777777779,0.0159668677777777,-2.6490919,0.2690273066666667
339,1778414918470,0.9317922280000002,-0.132702866,-0.57873496,-0.157568046,-2.71310854,0.2136438239999999
340,1778414918480,1.0297044,-0.0873628233333333,-0.0373497333333333,-0.1583960855555555,-2.2250282,0.0792574311111111
341,1778414918490,1.2025092,-0.039544992,0.8260848,0.081517566,-1.26033056,-0.066979398
342,1778414918500,1.2842518,-0.0065857503,1.4584082,0.4892377311111111,0.8746229666666666,-0.22134729
343,1778414918510,1.2561342400000002,-0.0048295503,1.139346944,0.552969475,2.16698065,-0.28328042
344,1778414918520,1.1601082666666669,-0.0113014727666666,0.6577009733333333,0.4167505499999999,3.6291963333333337,-0.39923958
345,1778414918530,1.0591959599999998,-0.0288065588,0.6411410679999999,-0.0484707319999999,3.5404250499999996,-0.450896902
346,1778414918540,1.0912222,-0.020001167,0.90639436,-0.1783504333333333,2.9164987222222223,-0.4804822633333333
347,1778414918550,1.1354152,0.0316448035555555,1.062297771111111,-0.1066776874666666,2.6449347222222226,-0.5013189477777777
348,1778414918560,1.22457447,0.09774046,1.30011551,0.11413681128,2.26263932,-0.5303681279999999
349,1778414918570,1.2302885444444442,0.0725584333333333,1.5666192,0.4876088122222222,2.1211671111111112,-0.54285655
350,1778414918580,1.1522319,-0.0580826599999999,1.6036302,0.9640085930000002,2.1273978,-0.3903619299999999
351,1778414918590,1.1522319,-0.05808266,1.6036302,1.1454914,1.8951536,-0.22005773
352,1778414918600,0.91599854,-0.258582156,1.7342474,1.274991,1.42162488,0.136188398
353,1778414918610,0.8405266777777778,-0.2710185244444444,2.1162955333333335,1.4308927333333332,1.3337850333333334,0.4064679688888888
354,1778414918620,0.688793241,-0.082507869,2.4153481599999997,2.02333996,1.7770157000000002,0.855399944
355,1778414918630,0.6682707233333333,0.2131594499999999,1.8209429888888888,2.4356092555555557,1.3400970555555556,1.3362368733333332
356,1778414918640,0.935268,0.5339641,1.570427,2.3731671,0.2752545666666666,1.4567943555555556
357,1778414918650,0.9402547555555556,0.6204189888888889,1.512293488888889,2.0843721,-0.0377792011111111,1.2420815555555555
358,1778414918660,0.8953937,0.531244392,1.27225708,1.3978018200000002,-0.593636636,0.643802484
359,1778414918670,0.8943610999999999,0.2791931066666666,0.961052,1.0988633,-1.1561047666666666,0.2606790733333333
360,1778414918680,0.96676373,0.14104481,0.4610025,1.0968067700000002,-2.03994734,-0.0278851756999999
361,1778414918690,1.0020706433333333,0.0798827086666666,0.2359893733333333,1.0237290666666667,-2.411879533333333,-0.1514392176666666
362,1778414918700,1.02301702,0.0007591907699999,-0.0037044852999999,0.7908333900000001,-2.4421367700000003,-0.174244186
363,1778414918710,1.0571518333333334,-0.0777213383777777,-0.0368077027777777,0.6922426666666667,-2.142903066666667,-0.062459134
364,1778414918720,1.076572,-0.128132483,-0.0701717765,0.6306692600000001,-1.48181615,0.1749772054
365,1778414918730,1.178734211111111,-0.18129445,-0.2221877644444444,0.5917243222222223,-0.6717028777777778,0.3989341711111111
366,1778414918740,1.24007539,-0.0342458997,-0.2979045939999999,0.342838005,0.357093668,0.505079064
367,1778414918750,1.2708364,0.07710816,-0.30824968,0.13392825,0.85854584,0.54960984
368,1778414918760,1.3175260666666668,0.1249564733333333,-0.3168680733333333,-0.009824466,1.1216174133333334,0.56834248
369,1778414918770,1.35101786,0.182053294,-0.33054367,-0.2133995072,1.38143107,0.54563935
370,1778414918780,1.3058282,0.1721340244444444,-0.2649951633333333,-0.3900429533333333,1.4976956444444445,0.4506525844444444
371,1778414918790,1.21515016,0.13802635,-0.1696257639999999,-0.498787334,1.61440822,0.319259328
372,1778414918800,1.0776780555555556,0.09624545,-0.0335893604444444,-0.5936587155555556,1.9419852444444448,0.0736240644444444
373,1778414918810,0.98814302,0.0576771448,0.0247727864,-0.581007363,2.13882058,-0.041507069
374,1778414918820,0.8555953111111111,0.0129614608888888,0.1019503873333333,-0.5396326166666667,2.3246471333333334,-0.1317563577777777
375,1778414918830,0.748699168,-0.0108786828,0.1846418674,-0.512897905,2.38713003,-0.172839231
376,1778414918840,0.6363176,0.0,0.3065118,-0.50685054,2.349013,-0.2053974
377,1778414918850,0.613462616,0.042758592,0.4064688399999999,-0.539591948,2.19068156,-0.185361608
378,1778414918860,0.6331941266666666,0.1014693366666666,0.5552221133333334,-0.5762835000000001,2.0061242333333333,-0.1978636066666667
379,1778414918870,0.65295276,0.136264042,0.698345612,-0.57978568,1.8051146799999995,-0.221768096
380,1778414918880,0.6811373266666667,0.1441547466666666,0.85317984,-0.5164204633333332,1.6552942333333334,-0.26057725
381,1778414918890,0.700498181,0.138273307,0.977419858,-0.4173613919999999,1.55796593,-0.317671127
382,1778414918900,0.7114745,0.1242145699999999,1.0547566,-0.3603150444444444,1.5189395111111113,-0.3475890522222222
383,1778414918910,0.7108890499999999,0.1227510656,1.10513764,-0.2881672,1.52852308,-0.3665389
384,1778414918920,0.6892508833333334,0.1254612484444444,1.090565,-0.1681696488888888,1.4949129777777777,-0.3727016755555555
385,1778414918930,0.65254115,0.1226291049999999,1.01951082,-0.074553904,1.19982616,-0.333125565
386,1778414918940,0.69122934,0.13519081,0.9993571,0.0564185311111111,0.6962640555555555,-0.3222728344444444
387,1778414918950,0.7173284,0.15058807,0.9656966,0.1447402609999999,0.375106015,-0.358292445
388,1778414918960,0.7258655111111111,0.1550598644444444,0.9155243222222222,0.2085194966666666,0.0911095611111111,-0.40446572
389,1778414918970,0.7216918222222222,0.1462822455555555,0.8537591444444446,0.2805994755555556,-0.3265742211111111,-0.4604600677777777
390,1778414918980,0.6990346799999999,0.127726958,0.84562862,0.332270371,-0.64561976,-0.460365039
391,1778414918990,0.67290515,0.078327745,0.85514134,0.41003123,-0.9019923,-0.40636614
392,1778414919000,0.700153658,0.0552776155,0.8094527140000001,0.486998,-1.0174425,-0.34283802
393,1778414919010,0.7468321977777778,0.0532585288888888,0.7729210888888889,0.5263636888888888,-1.0997032555555557,-0.3216619844444444
394,1778414919020,0.8076233199999999,0.060521825,0.7251794850000001,0.62285038,-1.30295246,-0.280531594
395,1778414919030,0.8814369000000001,0.0734223024444444,0.6444684855555556,0.7459293444444444,-1.6156060777777776,-0.2640387266666666
396,1778414919040,0.90636079,0.0706931483,0.5625541430000001,0.8370135,-1.9319571,-0.27259058
397,1778414919050,0.8788927,0.054667823,0.54957473,0.8596148,-1.9649429,-0.25121093
398,1778414919060,0.84325045,0.04247199,0.51640207,0.8612640769999999,-1.84227713,-0.193485875
399,1778414919070,0.8699389500000001,0.0460494366666666,0.4741028566666666,0.8546601466666667,-1.721409988888889,-0.1565296133333333
400,1778414919080,0.90728463,0.0473747132999999,0.367140323,0.824796512,-1.56525022,-0.120367456
401,1778414919090,0.9216086,0.046618573,0.28163227,0.5835118,-1.358906,-0.06062659
402,1778414919100,0.98551787,0.0595705512999999,0.241431772,0.45706648,-1.1732085,-0.06123744
403,1778414919110,0.97847176,0.051009074,0.13299556,0.3028614755555555,-0.9630770333333332,-0.07263992
404,1778414919120,0.9493440533333334,0.0318006353333333,0.0991521226666666,0.1682035866666666,-0.8485771222222223,-0.0438622272222222
405,1778414919130,0.930511635,0.01353737465,0.105051862,-0.027579752,-0.643726112,0.0572669285
406,1778414919140,0.95844,-0.00512225,0.11518965,-0.13912046,-0.34001285,0.20081604
407,1778414919150,0.9584399999999998,-0.00512225,0.11518965,-0.1600114309999999,-0.3004299589999999,0.239849184
408,1778414919160,0.9748840933333334,0.022379354,0.1368169233333333,-0.1762464,-0.3004435322222222,0.2771040722222222
409,1778414919170,0.996863036,0.0495943582,0.17750426,-0.173633335,-0.277095585,0.298551585
410,1778414919180,1.0397151,0.0867225376666666,0.1857120599999999,-0.15418803,-0.2139747,0.228915
411,1778414919190,1.06799828,0.139072146,0.206252887,-0.205763902,-0.083151588,0.0437061211999999
412,1778414919200,1.0963445,0.15205155,0.22867186,-0.2507697588888888,0.024866572,-0.1034537693333333
413,1778414919210,1.0892678999999998,0.134398084,0.194868066,-0.276255665,0.115068352,-0.21394926
414,1778414919220,1.0528969,0.07320549,0.08881616,-0.34986275,0.21952324,-0.37460208
415,1778414919230,1.04192056,0.0626682899999999,0.0339166139,-0.389690002,0.2087723239999999,-0.38486432
416,1778414919240,1.0275295,0.040032823,-0.010488417,-0.6163958266666667,0.14011309,-0.42754218
417,1778414919250,1.0070861800000002,0.0127842825999999,0.0261722585999999,-0.7770893720000001,0.091367476,-0.454378726
418,1778414919260,0.9731054999999998,-0.0073175007,0.16717438,-0.7726369511111111,0.0687797038888888,-0.4437635611111111
419,1778414919270,0.9621123111111112,0.0013550924666666,0.2185493355555555,-0.6689286666666666,0.0816753676666666,-0.4118637633333333
420,1778414919280,0.920169572,0.0460789074,0.306874613,-0.395981741,0.253486333,-0.327689007
421,1778414919290,0.9245357,0.12397064,0.19229782,-0.19226417,0.4296547,-0.22555535
422,1778414919300,0.97871566,0.15644205,0.112994395,-0.181268924,0.5005740430000001,-0.200816033
423,1778414919310,0.97871566,0.15644205,0.112994395,-0.19165333,0.46508384,-0.15530792
424,1778414919320,0.921309844,0.06565017,0.0870721503999999,-0.155002498,0.365027054,-0.069178454
425,1778414919330,0.923851322222222,0.007778232,0.0234769786666666,-0.1183516566666666,0.2747030966666666,0.069687494
426,1778414919340,0.982368244,0.0450514088,0.041880492,-0.1078450869999999,0.288732218,0.2615953316
427,1778414919350,1.0053025,0.088114895,0.10153031,-0.09147438,0.30137676,0.31565532
428,1778414919360,0.99959488,0.1135797965,0.156219485,-0.0401632079999999,0.358552072,0.330804344
429,1778414919370,1.0155098111111112,0.12453978,0.1556391655555555,0.0293376344444444,0.3854022055555555,0.34002135
430,1778414919380,1.04645744,0.13104422,0.1066830564,0.1234216856,0.312249852,0.3509623
431,1778414919390,1.085984788888889,0.1477626855555555,0.0367839896666666,0.1709863266666666,0.16027105,0.3508808466666667
432,1778414919400,1.1019576,0.152490606,0.0058692432999999,0.153597542,0.073408567,0.32371851
433,1778414919410,1.1744283,0.15205155,-0.16741832,0.062459134,-0.019318044,0.26495498
434,1778414919420,1.15467102,0.142959558,-0.198462812,0.0233649085,-0.077043107,0.24296449
435,1778414919430,1.102879411111111,0.1130486077777777,-0.2380220111111111,-0.1226954618888888,-0.3872517166666667,0.17319216
436,1778414919440,1.07004412,0.128095896,-0.1454871485,-0.23807772,-0.9050466,0.0865876
437,1778414919450,1.0487503,0.1542468,-0.082016975,-0.25395975,-1.2776634,0.018172706
438,1778414919460,1.134426,0.17644322,0.005366167,-0.2333266833333333,-1.4823650888888888,-0.0692463215555555
439,1778414919470,1.1347918499999998,0.17449189,0.0385540785,-0.22066857,-1.46336095,-0.13331741
440,1778414919480,1.116921611111111,0.1497512822222222,0.0926104211111111,-0.2175125299999999,-1.2469173666666666,-0.2206685733333333
441,1778414919490,1.0685623400000002,0.131532068,0.1225986219999999,-0.229525858,-0.88348364,-0.269841785
442,1778414919500,0.9933540333333334,0.1177643233333333,0.1637561633333333,-0.18486614,-0.4365945977777777,-0.3031329611111111
443,1778414919510,0.956253948,0.128361149,0.135858539,-0.126537012,-0.193287352,-0.32707815
444,1778414919520,0.93656886,0.12746679,0.1146916533333333,-0.1034877066666666,-0.0928233374333333,-0.3338789199999999
445,1778414919530,0.8455249549999999,0.097527034,0.0611041772,-0.071316416,0.10468395754,-0.3162050799999999
446,1778414919540,0.80861425,0.06710757,-0.0102445,-0.106745556,0.29038152,-0.17485502
447,1778414919550,0.7280608,0.008293167,-0.13448955,-0.19470756,0.2036412,-0.004428643
448,1778414919560,0.6790335,-0.056131326,-0.14619754,-0.2462902211111111,0.1201587433333333,0.1126504086666666
449,1778414919570,0.7074650499999999,-0.062595113,-0.13325472,-0.317487865,0.017027367,0.30893599
450,1778414919580,0.8317558533333334,-0.0224166191111111,-0.0639129426666666,-0.3805408911111111,0.0273778351111111,0.5033211922222223
451,1778414919590,0.9347802,0.053936075,0.006341833,-0.4134587511111111,0.1553842777777777,0.5533427944444445
452,1778414919600,0.99881742,0.134754818,0.138654432,-0.359330914,0.49556509,0.4855930349999999
453,1778414919610,1.026066,0.17693105,0.10616472,-0.2246390699999999,0.85365903,0.41827765
454,1778414919620,1.10336628,0.194493047,-0.0096072696,-0.1273311114,1.111497663,0.349007593
455,1778414919630,1.156205733333333,0.2224825,-0.1773579079999999,-0.109867668,1.1591505333333332,0.3265148422222222
456,1778414919640,1.18973713,0.255615535,-0.356459824,-0.139181547,1.14356711,0.204603298
457,1778414919650,1.106639733333333,0.1912374466666666,-0.3870889844444444,-0.32665056,0.4950153499999999,-0.003206948
458,1778414919660,1.0504576,0.1144579,-0.3287387,-0.39201123,0.09552124,-0.07284354
459,1778414919670,0.95917183,-0.018293751,-0.14741714,-0.4561502,-0.33573693,-0.12659809
460,1778414919680,0.941747041,-0.0563721927,-0.0912644726,-0.469405575,-0.441780014,-0.0949562034999999
461,1778414919690,0.90426004,-0.23989205,0.17595538,-0.4473947166666666,-0.2635212011111111,0.1005013472222222
462,1778414919700,0.91228492,-0.23286725,0.235690596,-0.39799753,0.004871506,0.306003928
463,1778414919710,1.0103943933333333,-0.1425963922222222,0.2315446755555555,-0.36174035,0.2920104444444444,0.4277118555555555
464,1778414919720,1.1204922,0.021708583,0.19302955,-0.325428872,0.6352658630000001,0.4560890999999999
465,1778414919730,1.1601659444444443,0.1390223428888889,0.1577192244444444,-0.2897961233333333,0.7236758299999999,0.3478266066666666
466,1778414919740,1.16030557,0.242816016,0.01805593127,-0.236245172,0.708567552,0.175771296
467,1778414919750,1.0672879,0.30821922,0.05052124,-0.06765133,0.38872793,-0.07101099
468,1778414919760,0.9974498333333334,0.2989232822222222,0.0413913033333333,0.0758299022222222,0.1198193872222222,-0.1584300233333333
469,1778414919770,0.9845209,0.257216232,-0.004061214,0.20112147,-0.2370850974999999,-0.202954
470,1778414919780,1.0125116666666667,0.1703724088888888,-0.0801130794444444,0.3053727333333333,-0.75661069,-0.23512529
471,1778414919790,1.0214773,0.137681816,-0.0377918400999999,0.325245625,-1.2149905049999998,-0.2782714819999999
472,1778414919800,0.9811310977777778,0.07854794,0.078564884,0.2899658166666666,-1.3394947,-0.3236302844444444
473,1778414919810,0.929904896,0.028224207,0.139480704,0.267337304,-1.27265444,-0.304843334
474,1778414919820,0.8857257866666667,-0.0095398524444444,0.1371150455555555,0.25426516,-1.0895225,-0.19195876
475,1778414919830,0.874404644,-0.0240684772,0.115823831,0.2490729599999999,-0.9878164,-0.1137703065
476,1778414919840,0.8679435755555556,-0.0338264988888888,0.0629914827777777,0.2467313855555555,-0.7701850888888889,0.0732168315555555
477,1778414919850,0.869550688,-0.0261326218999999,-0.0010366442999999,0.244613778,-0.55332072,0.305148754
478,1778414919860,0.8826869555555555,8.130578888888909e-05,-0.0681340547777777,0.2471386177777778,-0.4384271333333333,0.4264901599999999
479,1778414919870,0.89479612,0.04817354446,-0.189584241,0.246079822,-0.453263938,0.4712991919999999
480,1778414919880,0.8967800000000001,0.0727176576666666,-0.2638161966666666,0.2267770499999999,-0.5788541233333333,0.4976877999999999
481,1778414919890,0.90440339,0.086471508,-0.313557919,0.18597245,-0.869861781,0.475819482
482,1778414919900,0.9656220222222224,0.1053787822222222,-0.2916362511111111,0.13297805,-1.162959888888889,0.4264901622222222
483,1778414919910,1.09760682,0.09684712,-0.213917958,-0.008399149,-1.3699013,0.21242213
484,1778414919920,1.157598,0.053204324,-0.23720895,-0.11102149,-1.1817604,0.057266932
485,1778414919930,1.17594048,0.0129824648,-0.316872142,-0.228792858,-0.9066348,-0.0175007736
486,1778414919940,1.1864072666666667,-0.0095940559444444,-0.4400392155555555,-0.3736858055555555,-0.6003016722222223,-0.0599478766666666
487,1778414919950,1.1709646500000002,-0.0298828404499999,-0.622411258,-0.624927265,-0.188828155,-0.0540905263
488,1778414919960,1.2107176555555554,0.0415979555555555,-1.145497,-1.0346226,0.09857547,0.004123219
489,1778414919970,1.2289944666666666,0.0690927843333333,-1.2782351,-1.205150777777778,0.0429205002222222,0.0005938793111111
490,1778414919980,1.24620385,0.191334342,-1.46518305,-1.52533144,-0.1363563832,0.00522274402
491,1778414919990,1.1639466555555555,0.2410845355555555,-1.2317419777777776,-1.6455460999999998,-0.3815504799999999,0.110817871
492,1778414920000,0.9072175999999998,0.15985689,-0.5178656,-1.21826607,-0.276057149,0.506606179
493,1778414920010,0.8753221388888889,0.1693425433333333,-0.3500881766666667,-0.4023956166666667,0.3489549955555555,1.0574954
494,1778414920020,0.929404835,0.182467967,-0.557538601,0.242231483,1.06816573,1.38634076
495,1778414920030,0.9998787888888888,0.1912679377777777,-0.8720969,0.6035340511111111,1.494505711111111,1.4941239444444443
496,1778414920040,1.1236326399999998,0.185565702,-1.47503728,0.7593137,1.49113924,1.40230678
497,1778414920050,1.1325356333333334,0.1334935566666666,-1.4879730333333334,0.7920143833333334,1.1385174666666666,1.2107756333333333
498,1778414920060,1.0572873,-0.048569907,-1.1253096,1.1027321,0.7136987,0.94055206
499,1778414920070,1.0572873,-0.048569907,-1.1253096,1.4192866777777775,0.3368737755555556,0.8786528955555555
500,1778414920080,0.85894647,-0.1586068167,-1.03085892,1.7674102,-0.5568636,0.7499677
501,1778414920090,0.8087768666666667,-0.1503238066666666,-1.0361579333333333,1.898810288888889,-1.5771142666666669,0.5354924111111111
502,1778414920100,0.6453425,-0.10714039,-1.0257305,1.8815707666666663,-2.5767318222222224,0.2540276044444444
503,1778414920110,0.648854916,-0.103140158,-0.8425003400000002,1.6285951400000005,-3.31564836,0.0301453079999999
504,1778414920120,0.7892804822222222,-0.0689267877777777,-0.4743705044444444,0.9568073555555556,-4.336523444444444,-0.4349402322222222
505,1778414920130,0.9326764,-0.01027194106,-0.127550128,0.275156145,-4.07389322,-0.921066052
506,1778414920140,0.8727711222222223,-0.1015506425999999,0.2433407388888888,-0.2644120222222222,-3.3067707333333334,-1.3294836133333332
507,1778414920150,0.780929724,-0.151731404,0.25823763,-0.775867652,-2.0699475200000004,-1.6352228400000002
508,1778414920160,0.7446776,-0.11421398,0.0151228339999999,-1.3319014933333333,-0.4982901777777778,-1.8213683888888892
509,1778414920170,0.721822608,-0.100944916,0.00380510016,-1.48440462,0.118611264,-1.8988645
510,1778414920180,0.71610886,-0.09762765,0.0009756667,-1.5081055,0.2317401799999999,-1.9140135000000005
511,1778414920190,0.7457935,-0.045892922,0.13510544534,-1.34482606,0.736422155,-1.91016519
512,1778414920200,1.0918082666666669,0.1849904772222222,0.4107759933333333,-0.7279093388888889,1.2168416333333334,-1.803585922222222
513,1778414920210,1.5121919,0.30773136,0.714066,-0.158484322,1.95129059,-1.85201255
514,1778414920220,1.4289858,0.18571205,0.5503065,0.2705544411111111,2.5630812888888888,-1.859444488888889
515,1778414920230,1.3296067444444446,0.1127741922222222,0.4968989166666666,0.3952351444444444,2.754548,-1.7785411555555557
516,1778414920240,1.03201758,-0.1140737308,0.458856058,0.5756929599999999,2.9067778,-1.37281048
517,1778414920250,0.8712026244444444,-0.2331945133333333,0.4552568955555556,0.7531237777777778,2.6969925111111106,-0.7725351344444444
518,1778414920260,0.8227644599999999,-0.312902402,0.6338754,1.00377476,1.69271876,0.369898564
519,1778414920270,0.8680824955555555,-0.2923510733333333,0.8585256777777778,1.1532965555555554,1.1559944666666666,1.059904838888889
520,1778414920280,0.8617758999999999,-0.234531988,1.40224034,1.3441388,0.726770812,2.18736766
521,1778414920290,0.8976133499999999,-0.168475285,1.6100532666666667,1.3208044666666667,0.96254256,2.3871146999999997
522,1778414920300,1.178943775,0.2108385235,2.0536167300000003,0.94812658,2.39091728,2.58081444
523,1778414920310,1.0416766,0.70187026,2.1332037,0.08567133,4.2940273,1.9735712
524,1778414920320,0.305664187,0.3352909089999999,1.3376725500000002,-0.403006454,3.29315394,2.09622928
525,1778414920330,0.24625422,0.3601327966666667,1.5605178666666666,-0.5536821000000001,2.5328781666666664,2.2083401
526,1778414920340,0.335354938,0.5658074040000001,2.31346428,-0.377961724,0.440314,2.33458188
527,1778414920350,0.7857673588888889,0.7447690266666667,2.834508111111111,0.1002637888888888,-1.930794777777778,1.9354950222222225
528,1778414920360,1.09921665,0.56706354,2.30500024,0.33709606,-2.1314598,1.036348176
529,1778414920370,1.1323120666666666,0.3611084822222222,1.3128306222222224,0.62946114,-2.1097814666666665,0.4953122944444444
530,1778414920380,1.25818314,0.3267873719999999,0.641098368,0.6818582639999999,-3.00558228,0.1739387616
531,1778414920390,1.3545302333333331,0.33573098,0.1286050666666666,0.55602372,-4.129785666666667,-0.2381795213333333
532,1778414920400,1.3635277499999998,0.248057165,0.095179334,0.254448428,-4.4942706,-0.5833896810000001
533,1778414920410,1.3386757,-0.13177599,0.17717497,-0.035887275,-3.5891857,-0.82296395
534,1778414920420,1.3874896,-0.25943586,0.037075333,-0.0776963733333333,-2.8537257222222223,-0.8376921444444444
535,1778414920430,1.37761095,-0.246127155,-0.0034300784999999,-0.118229478,-2.14363104,-0.83750211
536,1778414920440,1.2492293555555554,-0.2261785055555555,-0.0656339122222222,-0.1396634322222222,-1.5137219222222222,-0.7962224388888889
537,1778414920450,1.1190622300000002,-0.19403877,-0.089822312,-0.147427978,-0.78189978,-0.6008599099999999
538,1778414920460,1.154915011111111,-0.0396466188888888,0.0883621977777777,-0.04199575,-0.123162076,-0.35261157
539,1778414920470,1.1451583,0.05710699,0.19400522,0.22127941,0.28915983,-0.2896943
540,1778414920480,1.1129409666666668,0.0894869233333333,0.2345157133333333,0.3332680711111111,0.45917898,-0.2964815
541,1778414920490,1.07205342,0.114384715,0.262112868,0.48846402,0.716508564,-0.327200324
542,1778414920500,1.0177490777777778,0.1073809233333333,0.248127631111111,0.6011585666666667,0.9712047044444444,-0.3896696555555555
543,1778414920510,0.9513665,0.06540016,0.20498148,0.6029367800000001,1.07845084,-0.394393524
544,1778414920520,0.9101716555555556,0.0582452684444444,0.2012956222222222,0.5193050122222221,1.128133133333333,-0.3610276977777777
545,1778414920530,0.90672976,0.08442566,0.19912747,0.41125292,1.1151017,-0.3397838
546,1778414920540,0.9072717777777776,0.1016759888888888,0.21973843,0.3335395755555556,1.0757359222222225,-0.3513220222222222
547,1778414920550,0.9181938,0.1391747888888889,0.3174507822222222,0.1963025488888888,1.008135511111111,-0.3914343288888889
548,1778414920560,0.91038847,0.16497913,0.39267537,0.07589777,0.98682379,-0.475025378
549,1778414920570,0.8725509,0.1481489,0.36630186,-0.040774055,0.9471187,-0.50349087
550,1778414920580,0.86179419,0.134071847,0.36235041,-0.1221389105,0.84541258,-0.501841557
551,1778414920590,0.8596504444444445,0.1144849966666666,0.3563554766666666,-0.1532378222222222,0.8035271500000001,-0.4880839111111111
552,1778414920600,0.8746973600000001,0.0857976852,0.31246945,-0.21388816,0.748272646,-0.4562112639999999
553,1778414920610,0.9261888288888888,0.0434747577777777,0.3212958666666666,-0.3430077188888888,0.7389470188888889,-0.4167505311111111
554,1778414920620,0.94285373,0.0365661565,0.5376685050000001,-0.47019967,0.92757154,-0.37643462
555,1778414920630,0.9211208,0.025123417,0.45466065,-0.4885251,1.4321314,-0.3281777
556,1778414920640,0.8959303399999999,0.0412402107999999,0.393596124,-0.52884102,1.47721192,-0.3065537
557,1778414920650,0.8283749222222222,0.0669449622222222,0.3518023777777778,-0.6078439,1.3536036444444446,-0.2519575311111111
558,1778414920660,0.81788313,0.09762765,0.34508112,-0.65229325,0.90338203,-0.1578734759999999
559,1778414920670,0.8638749255555556,0.1104197211111111,0.37109888,-0.6396758333333333,0.4487351822222222,-0.0963950922222222
560,1778414920680,0.9090317,0.10604277,0.4013191499999999,-0.57343285,0.225631704,-0.069483875
561,1778414920690,1.0101097666666667,0.10884781,0.4011311333333333,-0.4245897466666666,-0.0325530673333333,-0.05390727
562,1778414920700,1.0588971399999998,0.1323613819999999,0.35201442,-0.2869455099999999,-0.015408621632,-0.058794048
563,1778414920710,1.0594826,0.15010023,0.2930964,-0.1876488788888889,0.10006866094,-0.0713503572222222
564,1778414920720,1.039203622222222,0.1500460233333333,0.2522064755555555,-0.1563599244444444,0.1287784824444444,-0.0775945733333333
565,1778414920730,0.955650265,0.153758975,0.088343575,-0.093612345,0.08910734525,-0.10246963
566,1778414920740,0.9433985366666666,0.14430721,0.09509701,-0.1468578633333333,-0.1337500931666666,-0.1151956166666666
567,1778414920750,0.961732948,0.126312246,0.134215146,-0.20277075,-0.3666457979999999,-0.1091278659999999
568,1778414920760,1.0082261222222222,0.1128588866666666,0.26545924,-0.2065851522222222,-0.4717522455555555,-0.0951733966666666
569,1778414920770,1.1046376,0.1232389,0.36483836,-0.0536018459999999,-0.37971792,-0.072232686
570,1778414920780,1.0834168,0.13884957,0.29236463,0.0414188373333333,-0.2604669622222222,-0.0627306168888888
571,1778414920790,1.06121731,0.145901799,0.217671236,0.0788298368,-0.13354648,-0.0477987976
572,1778414920800,1.0904565,0.1480133733333333,0.1558492,0.0500385691111111,-0.0651994594444444,-0.0699250459999999
573,1778414920810,1.0321639,0.13567865,0.104945146,0.0152406388999999,-0.0814412095,-0.117252126
574,1778414920820,0.94209766,0.13567865,0.09442624,0.0009671748311111,-0.1221440066666666,-0.1065080033333333
575,1778414920830,0.94209766,0.1152628205,0.172851556,0.041018393012,-0.1029430383,-0.0611763535
576,1778414920840,0.94136596,0.09762765,0.22184221,0.072232686,-0.088954635,-0.042301174
577,1778414920850,0.938634098,0.0793369439999999,0.284184273,0.2129108138,-0.0333675321,0.0551900478
578,1778414920860,0.9650257888888888,0.062391854,0.3104686644444444,0.3729731555555555,0.0127853727777777,0.1919926833333333
579,1778414920870,1.0172545,0.030763991,0.2374528999999999,0.5660009066666666,-0.021014843,0.4162415122222222
580,1778414920880,0.99774114,0.0270320654,0.209134156,0.64618474,-0.0406976994,0.510271244
581,1778414920890,0.9711643555555556,0.0217627878888888,0.1796954422222222,0.7352055666666666,0.0093917776666666,0.6115089666666667
582,1778414920900,0.94107318,0.0349959444,0.138666628,0.793032458,0.0807387348,0.68253016
583,1778414920910,0.9489273,0.060033992,0.081010826,0.8127831722222223,0.2424639166666667,0.7370041666666666
584,1778414920920,0.952000665,0.0683759372,0.1170403676,0.7437370619999999,0.3417537659999999,0.6982289349999999
585,1778414920930,0.9924799722222222,0.0389487488888888,0.1856815611111111,0.7997517555555554,0.4405142044444445,0.665535038888889
586,1778414920940,1.10402174,0.0524969644,0.1177782114,0.8769628270000001,0.629218485,0.6762995359999999
587,1778414920950,1.1654746,0.0837142353333333,0.0618125486666666,0.8573750333333333,0.77605599,0.6579334133333333
588,1778414920960,1.15507653,0.081379745,-0.047862548,0.720036215,1.074907936,0.563292809
589,1778414920970,1.0060343,0.0556434899999999,-0.110555224,0.5438068,1.3014101,0.48608172
590,1778414920980,0.84240584,0.00929627406,-0.4075176904,0.27845472,1.20318586,0.542279648
591,1778414920990,0.797699,-0.0952697855333333,-0.78364324,-0.0563167333333333,0.8331193,0.6296308355555555
592,1778414921000,0.8935921444444445,-0.1561710322222222,-0.9508447666666666,-0.6188391755555556,0.0089166677777777,0.7410086444444445
593,1778414921010,1.1365968,-0.0633146699999999,-0.67587482,-1.153134546,-0.741339497,0.683507544
594,1778414921020,1.3762693,0.012195834,-0.16107647,-1.494056,-0.99728453,0.44698748
595,1778414921030,1.2618114,-0.010000584,0.10909174,-1.4598486,-0.66131854,0.1525591
596,1778414921040,1.244554333333333,0.0244933,0.1432603933333333,-1.3800312555555554,-0.3677045977777777,0.0261815915555555
597,1778414921050,1.26726296,0.0839073348,0.19504797,-1.25887987,0.010369137,-0.1198176944
598,1778414921060,1.2937916444444444,0.1402046588888889,0.2769673633333334,-1.0678882888888888,0.3737282322222222,-0.2575909088888888
599,1778414921070,1.1633850200000002,0.076964856,0.1984261989999999,-0.6803311,0.7301915,-0.3324536
600,1778414921080,1.1063553,0.0246457466666666,0.0756446533333333,-0.5717360444444445,0.7400329444444445,-0.3117526777777777
601,1778414921090,1.0338713,-0.012195834,-0.11372615,-0.418888497,0.5950721050000001,-0.26275594
602,1778414921100,1.0377739666666668,0.010894944,-0.1727946366666666,-0.4119655766666666,0.42171367,-0.2677038133333334
603,1778414921110,1.04016438,0.0309469272,-0.265295952,-0.486387124,0.0488525094,-0.314311448
604,1778414921120,0.971642,0.03222749,-0.13351388,-0.5494740666666666,-0.3417096471111111,-0.3537653966666667
605,1778414921130,0.8835272,-0.006829667,0.0580826599999999,-0.429333991,-0.462304486,-0.2904884199999999
606,1778414921140,0.9001270666666668,0.0014092961111111,0.0894259533333333,-0.3073070755555556,-0.4520693966666667,-0.1842213555555555
607,1778414921150,0.93762586,0.0227655546666666,0.1022417366666666,-0.1378309,-0.4045590477777778,-0.0441337142777777
608,1778414921160,0.969077834,0.0428104239,-0.0051710342999999,0.087015189,-0.345510483,0.0893974926299999
609,1778414921170,0.9911553333333334,0.0680561381111111,-0.1652975774444444,0.2005106,-0.43835926,0.14706148
610,1778414921180,1.00127789,0.1044054869999999,-0.23674553,0.154880312,-0.54336388,0.133317418
611,1778414921190,1.0058174666666666,0.1371692522222222,-0.1840114166666666,0.0927978733333333,-0.6556172866666667,0.0674477186666666
612,1778414921200,0.9939604,0.140191105,-0.14325531,0.06429167,-0.7059104,0.035276428
613,1778414921210,0.9630846,0.11795403,-0.0826470933333333,0.0054467216666666,-0.7849132500000001,-0.144109045
614,1778414921220,0.9261617555555556,0.020678714,-0.0171283706666666,0.028862532,-0.8732825,-0.26037365
615,1778414921230,0.9216086,-0.026586918,0.039270584,0.028862532,-0.8732825,-0.26037365
616,1778414921240,0.9477077,-0.040032823,0.07320549,0.1054220591111111,-0.888485788888889,-0.1718686633333333
617,1778414921250,0.94617099,-0.0538628959,0.0643269252,0.143213144,-0.68471395,-0.0752869249999999
618,1778414921260,0.9378697333333332,-0.06287968,0.0156208306666666,0.1577513066666666,-0.4780643399999999,0.0175618566666666
619,1778414921270,0.93631683,-0.0362002816,-0.1075672544,0.106379046,-0.272147733,0.1149309189999999
620,1778414921280,0.9464882,-0.012683666,-0.15814948,0.012980504,-0.15370443,0.16477604
621,1778414921290,0.95307392,-0.00258551636,-0.16356442,0.012980504,-0.15370443,0.16477604
622,1778414921300,0.9681865444444444,0.0163424170666666,-0.1679874411111111,-0.0250277694444444,-0.2384764722222222,0.1343694255555555
623,1778414921310,0.96583682,0.0169278176,-0.148539154,-0.043095272,-0.3765415199999999,0.090252682
624,1778414921320,0.9560009,0.008293167,-0.10811607,-0.0831261313333333,-0.4667976088888888,0.0586243673333333
625,1778414921330,0.95973284,-0.0387126243,-0.039157773,-0.1151752507999999,-0.500543472,0.0661852974
626,1778414921340,0.9673294555555556,-0.0732054855555555,-0.0126057488888888,-0.11102149,-0.5110501,0.07986828
627,1778414921350,0.9694468,-0.0752787825,-0.0273339115,-0.1067455599999999,-0.4994439899999999,0.079562855
628,1778414921360,0.967685211111111,-0.0705766133333333,-0.059752808,-0.1062704566666666,-0.4533589555555555,0.0692123877777777
629,1778414921370,0.96486666,-0.03881324,-0.1275480884444444,-0.1327405033333333,-0.3527049044444444,0.0045304507777777
630,1778414921380,0.950543292,-0.0279101652,-0.109878366,-0.145717612,-0.350397256,-0.0469436107
631,1778414921390,0.9397669333333334,-0.0116808985555555,-0.07925259,-0.1444823433333333,-0.32935695,-0.0701286577777777
632,1778414921400,0.911050122,-0.0294376931,-0.0696778461999999,-0.136310566,-0.3240086599999999,-0.064291673
633,1778414921410,0.890709168888889,-0.048488605,-0.0602237035555555,-0.1169263455555555,-0.3455783555555555,-0.0465771033333333
634,1778414921420,0.88947875,-0.0758397935,-0.0497163156,-0.0970330849999999,-0.39926504,-0.0279462622
635,1778414921430,0.9620954111111112,-0.0486512128888888,0.0084523902222222,-0.14672212,-0.3135428044444445,-0.0182745135555555
636,1778414921440,0.995805,-0.0452770335,-0.0006250354999999,-0.167219435,-0.20684815,-0.0306950759999999
637,1778414921450,1.0451185222222223,-0.046184945,-0.0638993891111111,-0.1918569422222222,-0.0187071955555555,-0.0530249366666666
638,1778414921460,1.09187768,-0.0444233227,-0.144584645,-0.2154763679999999,0.1318055728,-0.066002046
639,1778414921470,1.109272,-0.04539899,-0.17644322,-0.23441264,0.21280392,-0.0569615069999999
640,1778414921480,1.077075,-0.051009074,-0.20159712,-0.21791977,0.30626354,-0.025808297
641,1778414921490,1.03424022,-0.0569362499,-0.217841976,-0.170090413,0.242491097,0.0055281676
642,1778414921500,1.0006783333333331,-0.050765155,-0.2227365666666666,-0.1155010333333333,0.1116068873333333,0.0212269423333333
643,1778414921510,0.979471804,-0.0284437329,-0.220768976,-0.0503032724,-0.0680636528,0.0156071469999999
644,1778414921520,1.0003971177777775,-0.0031438149288888,-0.2117061322222222,0.0358533413333333,-0.2897197611111111,-0.0557398088888888
645,1778414921530,1.04001504,0.044127574333,-0.204036292,0.1168245449999999,-0.509339712,-0.23685603
646,1778414921540,1.0725185666666668,0.0546949257777777,-0.1983178111111111,0.10521844,-0.5446467,-0.41675055
647,1778414921550,1.045686,0.035627079,-0.2040363049999999,0.0710109935,-0.4353050400000001,-0.50837764
648,1778414921560,1.0153031,0.0090249165555555,-0.23525425,-0.0124714663333333,-0.1488176666666666,-0.69570411
649,1778414921570,1.01510798,-0.0280748098,-0.2564113019999999,-0.0781579066,0.085381178,-0.8202762480000001
650,1778414921580,0.8720631,-0.07662032,-0.2276962299999999,-0.11102149,0.45347774,-0.8645016
651,1778414921590,0.8312039999999999,-0.086526386,-0.2536276329999999,-0.0379030735,0.60466244,-0.7627954800000001
652,1778414921600,0.8321929,-0.0853505106666666,-0.4018019266666666,0.0239757536666666,0.66340556,-0.6781931333333334
653,1778414921610,0.9016685,-0.0446570786666666,-0.7321463466666667,0.0581832023333333,0.5797194833333333,-0.5275175
654,1778414921620,1.0731876,0.075909916,-1.16651929,-0.0296566314,0.311455752,-0.432021711
655,1778414921630,1.1253976777777777,0.1906107133333333,-1.090053511111111,-0.398119701111111,-0.2006039311111111,-0.4050765777777778
656,1778414921640,1.1479481,0.226110755,-1.04306395,-0.6186355649999999,-0.2108186575,-0.42041564
657,1778414921650,1.2359833111111111,0.2660351722222222,-1.0391629444444446,-0.8733588888888888,0.1845691888888889,-0.50254066
658,1778414921660,1.39162388,0.282656734,-1.0225657,-1.0897744020000002,0.68596622,-0.6438024720000001
659,1778414921670,1.4286809777777778,0.2693009433333333,-0.9430766655555556,-1.199899077777778,1.1738024,-0.8133261666666667
660,1778414921680,1.3057469,0.17985806,-1.2119304,-1.0602782,1.5121524,-0.9457443
661,1778414921690,1.2352278777777776,0.1566588688888888,-1.2223646222222222,-1.0312968777777778,1.351567422222222,-0.9371924
662,1778414921700,1.1976156,0.196093765,-1.22623005,-1.00029294,1.2226107599999998,-0.93548202
663,1778414921710,1.0383430666666666,0.2534090933333333,-1.1715114666666668,-0.9291496,0.9046308333333334,-0.9033243166666668
664,1778414921720,0.7707529222222222,0.2997905355555555,-0.9919786433333332,-0.8316855111111111,0.5577375,-0.7282147388888889
665,1778414921730,0.5710424869999999,0.285437376,-0.607971417,-0.63512844,0.08098308,-0.4436277999999999
666,1778414921740,0.55527633,0.28260794,-0.5700942,-0.3787083277777778,-0.26664332,-0.2869115511111111
667,1778414921750,0.617511612,0.217152914,-0.5394887820000001,-0.260556894,-0.5084845440000001,-0.2240893119999999
668,1778414921760,0.6650997444444444,0.0880945744444444,-0.5062117977777778,-0.1455004266666666,-0.999524277777778,-0.1853751822222222
669,1778414921770,0.6034133,-0.080980326,-0.424640644,-0.146328462,-1.28731478,-0.21627047
670,1778414921780,0.40764573,-0.26797295,-0.33800754,-0.2934612044444444,-1.4731345,-0.09761678
671,1778414921790,0.313853688,-0.341980328,-0.4840739939999999,-0.4708105299999999,-1.7522917,0.21853061
672,1778414921800,0.47882875,-0.2538969233333333,0.0084456,-0.4558787077777777,-1.7421109777777777,0.3939795211111111
673,1778414921810,0.5693320049999999,-0.18816646,0.4243845,-0.27497289,-1.37735376,0.604708264
674,1778414921820,0.6617290022222222,-0.2400715933333333,0.1569603722222222,-0.0354800429222222,-0.3509402466666667,0.8079303755555556
675,1778414921830,0.63886959,-0.17116243,-0.0295931908,0.17106776773,0.0650399599999999,0.99168761
676,1778414921840,0.6685146,-0.07954732,-0.2247692199999999,0.38071054,-0.5648047,1.2613232
677,1778414921850,0.9021936011111112,0.0352764488888888,-0.0605963556666666,0.4988076866666666,-1.0347497666666667,1.3484707333333334
678,1778414921860,1.096832315,0.1109211049999999,0.0539208335,0.601837262,-1.24186772,1.36052476
679,1778414921870,1.3444856333333333,0.1192074957777777,0.1797970711111111,0.6226060611111112,-0.9505886244444444,1.1978715
680,1778414921880,1.47512565,0.0660922717,0.261713439,0.521388666,-0.261641150596,0.859798061
681,1778414921890,1.394807,-0.015610667,0.4646612699999999,0.3837648,0.43148723,0.57709795
682,1778414921900,1.2931699499999998,-0.0296511185,0.583753585,0.332087112,0.525313388,0.49390054
683,1778414921910,1.1349917333333333,-0.0488409238888888,0.7695503444444445,0.2653961588888889,0.5580005155555555,0.4282548222222222
684,1778414921920,1.04841785,-0.0269863309,0.94847297,0.112792943,0.44358202,0.390056512
685,1778414921930,1.2120964666666667,0.0715827626666666,1.1629472222222224,-0.0922209733333333,0.3340231555555555,0.3567857088888889
686,1778414921940,1.3572134,0.14153264,1.2914778,-0.1885991,0.29465744,0.3461977
687,1778414921950,1.6327478,0.20989029,1.5657926,-0.13681282,0.2680516533333333,0.2107932155555555
688,1778414921960,1.48427564,0.122464458,1.5365042599999998,-0.0659409614,0.7435538,-0.08884773
689,1778414921970,1.2471459,0.025855167,1.5635973,-0.1531020766666666,1.7542515777777778,-0.2882689866666666
690,1778414921980,1.1529636,-0.07101024,1.5833546,-0.19165333,2.8602922,-0.37460208
691,1778414921990,1.06007707,-0.147679351,1.61504547,-0.152070426,2.88912428,-0.4019680479999999
692,1778414922000,0.8832832,-0.1527833,1.8596207,0.4124746,2.2317305,-0.27992076
693,1778414922010,0.89623519,-0.0075949544,1.82186237,0.806287831,1.84133805,-0.0815175677399999
694,1778414922020,0.94096954,0.1116935146666666,1.6845698,1.2865970433333331,1.2195566,0.1545952572666666
695,1778414922030,0.935588126,0.255966159,1.35730785,1.62812174,0.39020924,0.33227038
696,1778414922040,1.0701267666666667,0.3085444377777777,0.8964175222222222,1.6104903777777777,-0.9722398666666666,0.4799732222222221
697,1778414922050,1.1234191800000002,0.2363369719999999,0.51326165,1.47585278,-1.58015496,0.43562572
698,1778414922060,1.098820877777778,0.1688242233333333,0.3081311222222222,1.352568488888889,-1.8931683111111108,0.4281869666666666
699,1778414922070,1.0681416,0.1021248675,0.065262963,1.2038272,-2.136591,0.4457658
700,1778414922080,1.0592387,0.04905774,-0.2526062,0.9246361,-2.2810225,0.4338882
701,1778414922090,1.11919643,0.063107343,-0.3712046,0.5431959,-2.244711,0.2716743
702,1778414922100,1.0814656,0.05174082,-0.2415994599999999,0.3553264599999999,-1.9270703777777776,0.1076957577777777
703,1778414922110,1.07444383,0.031401221,-0.0307975302,0.294642183,-1.41995262,-0.039369106
704,1778414922120,1.0813741,0.0051222498,0.1565030379999999,0.3834933188888889,-0.5029054511111111,-0.24673138
705,1778414922130,1.1065076333333332,-0.0056100833666666,0.1947911777777778,0.5106174,0.13346164,-0.4059589133333333
706,1778414922140,1.15002745,0.0462435531999999,0.1991518649999999,0.56188786,0.431242924,-0.482844232
707,1778414922150,1.1895511,0.12884897,0.17863847,0.5583313444444444,0.7872718111111111,-0.6044163755555556
708,1778414922160,1.16956519,0.145834721,0.198185339,0.530062689,0.857942592,-0.6322574409999999
709,1778414922170,1.0998405999999998,0.1833541866666666,0.2340380399999999,0.4037869911111111,1.0280899066666669,-0.6885775666666666
710,1778414922180,1.03656048,0.1674670899999999,0.236379638,0.268986579,1.10404541,-0.69737374
711,1778414922190,0.9384389,0.09372498,0.30919486,0.037075034,1.1058032555555557,-0.6106606155555556
712,1778414922200,0.906141284,0.084477489,0.309414406,-0.0560452366,1.08614754,-0.550159586
713,1778414922210,0.8332498,0.11226265,0.3038287,-0.20617792,1.0424108777777776,-0.4459354555555556
714,1778414922220,0.8341035480000001,0.124897538,0.337315419,-0.272651678,1.0038053,-0.41540667
715,1778414922230,0.8424373533333334,0.1506354811111111,0.4192284044444445,-0.3608580166666666,0.9487475933333334,-0.39862875
716,1778414922240,0.859220838,0.164198604,0.496522882,-0.44167312,0.8840792540000001,-0.414734755
717,1778414922250,0.8788656588888889,0.1706705288888889,0.569901118888889,-0.4459694155555555,0.8564417822222222,-0.4292389677777778
718,1778414922260,0.87513646,0.16995504,0.5899002600000001,-0.4289675,0.807807315,-0.42163731
719,1778414922270,0.8614120266666666,0.1446324266666666,0.6027790733333334,-0.3958799333333334,0.68906116,-0.3758237666666667
720,1778414922280,0.8347167066666666,0.1181708511111111,0.6074677,-0.3768757888888889,0.5353312822222223,-0.2961421455555555
721,1778414922290,0.8386891439999999,0.105652505,0.6526569990000001,-0.358903318,0.339860142,-0.17949746
722,1778414922300,0.8732487133333334,0.1277920077777777,0.68836675,-0.31626618,0.18531579,-0.103385895
723,1778414922310,0.90845853,0.180025743,0.7093341150000001,-0.2869455079999999,0.1384027099999999,-0.117557555
724,1778414922320,0.914237,0.1895910022222222,0.7099466144444445,-0.2748643055555556,0.1185298108888888,-0.1256478888888889
725,1778414922330,0.949854232,0.2356966769999999,0.628823274,-0.21559854,-0.0686745048,-0.20784078
726,1778414922340,0.9513665,0.20696329,0.5403059,-0.17821468,-0.4725667199999999,-0.27442312
727,1778414922350,0.946878452,0.176498098,0.51181646,-0.1400978239999999,-0.65826428,-0.2504779199999999
728,1778414922360,0.944238662222222,0.1259253733333333,0.5007642777777778,-0.05787778,-0.8732825,-0.15714046
729,1778414922370,0.940536576,0.0931700715999999,0.52868326,0.02312057,-0.8861102839999999,-0.100698172
730,1778414922380,0.9082473911111112,0.049111946,0.4946935155555556,0.1553079144444444,-0.8479662822222223,0.009688716
731,1778414922390,0.957629028,0.0454965571999999,0.43361068,0.251882856,-0.806211495,0.1231162689
732,1778414922400,1.0188534111111112,0.0744521811111111,0.4030824655555556,0.3090378055555556,-0.7708637555555555,0.1901601422222222
733,1778414922410,1.03106625,0.08980707,0.37656161,0.281447875,-0.66376187,0.2145601
734,1778414922420,1.0246668666666665,0.0872849011111111,0.3189379944444444,0.1973885,-0.5026339555555555,0.2515842333333333
735,1778414922430,1.02903572,0.0852549708,0.2410201579999999,-0.0101706098,-0.3018348919999999,0.32878853
736,1778414922440,1.0388309333333334,0.09509701,0.197105,-0.2331909413333333,-0.0983209533333333,0.3960835333333333
737,1778414922450,1.08496882,0.1210436419999999,0.187541436,-0.395920656,0.1059667325,0.442650453
738,1778414922460,1.1277250555555556,0.1523970977777778,0.2138403922222222,-0.4249291033333333,0.2736171555555555,0.4369424366666666
739,1778414922470,1.0778982666666663,0.16679496,0.2111132622222222,-0.3789798311111111,0.4401069733333333,0.4204495577777777
740,1778414922480,1.06206505,0.155899339,0.206018111,-0.3253067,0.540584576,0.403372976
741,1778414922490,1.0179863,0.07710816,0.10153031,-0.1869022911111111,0.650577788888889,0.3679166922222222
742,1778414922500,0.99076517,0.0648147576,0.0602321719999999,-0.17332791,0.648338,0.35108447
743,1778414922510,1.0105061555555557,0.065345957,0.0393044602222222,-0.24391471,0.6787446666666667,0.3472836255555556
744,1778414922520,1.0511284,0.084053688,0.0229281668,-0.2921377,0.70148175,0.34039463
745,1778414922530,1.1795438222222223,0.1467091011111111,-0.0165592326666666,-0.4194993488888889,0.7470237777777778,0.2731674955555555
746,1778414922540,1.24956076,0.155759084,-0.0859135502,-0.6033644,0.65322477,-0.056961507
747,1778414922550,1.1973768666666669,0.14357545,-0.1073030083333333,-0.6306489066666666,0.4907394033333333,-0.165285089
748,1778414922560,0.98871624,0.08564524,-0.12397064,-0.635494952,0.262404704,-0.2443694559999999
749,1778414922570,0.9831874333333334,0.0828808466666666,-0.1177914233333333,-0.5915546777777778,-0.1653105388888888,-0.2400799444444444
750,1778414922580,1.025718446,0.1102076467999999,-0.0729188878,-0.5239542399999999,-0.642260089,-0.238932907
751,1778414922590,1.1168334,0.16839397,-0.018080324,-0.42744038,-0.8854995,-0.35200074
752,1778414922600,1.09531998,0.1466335539999999,0.041465836,-0.3350802599999999,-0.91775222,-0.4780795879999999
753,1778414922610,1.031645561111111,0.1215856799999999,0.0605489254444444,-0.1995943366666666,-0.9311094,-0.5324043
754,1778414922620,0.9013331,0.07783991,0.09418232,0.009315421,-0.9765157,-0.48577628
755,1778414922630,0.83591768,0.058204616,0.202325831,0.2158428743,-1.01884743,-0.3805883929999999
756,1778414922640,0.7803199222222221,0.0274304633333333,0.414400881111111,0.7789150844444443,-0.8447763022222222,-0.1221185544444444
757,1778414922650,0.7841921,0.006097917,0.4226770999999999,1.1693144,-0.51227176,0.065818794
758,1778414922660,0.8661955444444444,0.0070464820999999,0.31069901,1.4777243555555557,-0.0968956444444444,0.2515163726666667
759,1778414922670,0.90890972,0.01304954235,0.20426496,1.64856225,0.180734435,0.381626835
760,1778414922680,0.8949946066666666,-0.0044176024,0.0410931833333333,1.8483135,0.5261685555555555,0.5873466122222223
761,1778414922690,0.89352775,-0.033934906,-0.14863673,1.8914120999999997,0.6788804,0.8055548
762,1778414922700,0.9086811,-0.04539899,-0.2406237999999999,1.8262551222222223,0.6647629777777778,0.8761415911111112
763,1778414922710,0.9086811,-0.061595062,-0.2316476639999999,1.70632546,0.5863980700000001,0.955334596
764,1778414922720,0.9174621,-0.0690589066666666,-0.1719815766666666,1.5810763,0.5249468500000001,1.0391021333333337
765,1778414922730,0.97155974,-0.0564240220999999,-0.093734126,1.3575775,0.63392202,1.1703528
766,1778414922740,1.0807338,0.011464084,0.005366167,0.9764902111111112,1.2249100000000002,1.206542088888889
767,1778414922750,1.07446508,0.0302212727999999,-0.0725408146,0.6932199880000001,1.6520363799999995,1.10413692
768,1778414922760,1.0109127,0.01683025,-0.3184942,0.3450777733333333,1.775631177777778,0.927656388888889
769,1778414922770,0.9820322555555556,0.0111388612777777,-0.4230226666666666,0.1973884906666666,1.6214262111111113,0.8566623733333334
770,1778414922780,0.94304889,-0.0012683666,-0.571057732,-0.2121778012,0.77211096,0.671779228
771,1778414922790,0.9491441022222222,0.0056100838444444,-0.5601275333333333,-0.4663988422222222,0.0423775306666666,0.5278229266666666
772,1778414922800,1.008397256,0.0693729494,-0.297185008,-0.718997768,-0.8327833453,0.245285707
773,1778414922810,1.0263098,0.08759657,-0.05808266,-0.76951486,-1.1542722,0.024892027
774,1778414922820,1.01202545,0.07954732,0.021967745,-0.73408571,-1.14205525,-0.0426065965
775,1778414922830,0.9977411000000002,0.07149807,0.10201815,-0.6155134688888889,-0.9165169011111112,-0.1690180444444444
776,1778414922840,0.99715574,0.01293368064,0.124068222,-0.5202891679999999,-0.605242728,-0.2334963699999999
777,1778414922850,0.9844341377777778,-0.0353408169666666,0.0480041577777777,-0.4541819066666666,-0.1543831622222222,-0.3211868922222222
778,1778414922860,0.971007889,-0.0913803282,-0.0621316735,-0.473864772,0.02820587,-0.35945306
779,1778414922870,0.9598121,-0.1238215877777777,-0.1037120111111111,-0.5108549644444444,0.1480541038888888,-0.3756880244444444
780,1778414922880,0.934999698,-0.19629499,-0.18809938,-0.622911491,0.3656378919999999,-0.3703872419999999
781,1778414922890,0.9114827511111112,-0.2228178711111111,-0.2256906722222222,-0.7280450888888889,0.4751288611111111,-0.3310283177777778
782,1778414922900,0.8599486111111112,-0.2171535822222222,-0.2355286544444444,-0.8779741333333333,0.5365529688888889,-0.2047186788888889
783,1778414922910,0.8695751700000001,-0.139489856,-0.218256633,-0.9039012,0.54021806,-0.17607673
784,1778414922920,0.8623267622222222,-0.1227239711111111,-0.1844280999999999,-0.9135390222222222,0.5368244622222222,-0.1536789955555555
785,1778414922930,0.8881615650000001,-0.051496905,-0.0546830674999999,-0.90756635,0.56037602,-0.0694838775
786,1778414922940,1.0028295333333332,0.0415708556666666,-0.0458326223333333,-0.7633385055555555,0.69272626,-0.0964629655555555
787,1778414922950,1.07914229,0.1042591373,-0.1658267503,-0.63182985,0.6964728,-0.148832938
788,1778414922960,1.0735688,0.1002192633333333,-0.2025626333333333,-0.5933872,0.5669595933333333,-0.1775020322222222
789,1778414922970,1.04738428,0.089712548,-0.210518378,-0.598783025,0.29160321,-0.19684553
790,1778414922980,1.0578564666666666,0.0912858133333333,-0.1749797166666666,-0.6575261777777778,0.0133962211111111,-0.2322746711111111
791,1778414922990,1.0640987,0.0818980728,-0.0747513113,-0.6638382500000001,-0.088404866,-0.26935311
792,1778414923000,1.1554028,0.09713981,-0.0070735829999999,-0.57282203,-0.12071869,-0.29030517
793,1778414923010,1.18450208,0.084431754,0.0253185506,-0.4535235469999999,-0.116870353,-0.216087228
794,1778414923020,1.1234192,0.037837572,0.07271766,-0.3499985244444444,-0.1078908988888888,-0.0819383746666666
795,1778414923030,1.117890422222222,0.0324104266666666,0.0725008444444444,-0.3161304411111111,-0.1063977166666666,-0.0299484831111111
796,1778414923040,1.0800813,0.0088785672,0.0942981836,-0.204908711,-0.131530681,0.208085111
797,1778414923050,1.0625721444444445,-0.0019513333333333,0.1340525384444444,-0.1462470111111111,-0.1234335638888888,0.3193204022222222
798,1778414923060,1.05006744,-7.317499699999999e-05,0.148776981,-0.0630088952,-0.061588675,0.409725812
799,1778414923070,1.0346573,0.0155564640755555,0.1275752011111111,-0.0085348934444444,0.0138713233333333,0.4296801644444444
800,1778414923080,1.01063212,0.0344105448,0.0887795716,0.0459662571,0.1079825169999999,0.436969589
801,1778414923090,0.9650292,0.0383796106666666,0.0482446846666666,0.068567604,0.14072394,0.4225536
802,1778414923100,0.8493788999999999,0.018049834,0.034880083,0.0718661778,-0.020356485,0.3576816
803,1778414923110,0.83228098,0.0085641853333333,0.0449585873333333,0.0883862002222222,-0.1518040322222222,0.3115151233333333
804,1778414923120,0.849073944,0.00117079996,0.0558874102,0.130018844,-0.334515226,0.252371548
805,1778414923130,0.8807898666666667,-0.0121958338666666,0.0618227104444444,0.1860538988888888,-0.5164119833333333,0.1871059111111111
806,1778414923140,0.91528815,-0.02470875745,0.0264649584,0.256036626,-0.595835699,0.159461676
807,1778414923150,0.9508787,-0.0131715005,-0.047106408,0.2856898766666667,-0.5985369844444445,0.17353152
808,1778414923160,0.9753008,0.0026830835,-0.015641157,0.27625567,-0.56602633,0.18676655
809,1778414923170,0.98613068,0.0097078832,0.0025245378,0.288716968,-0.520945816,0.18090242
810,1778414923180,1.031696288888889,0.0263429996666666,-0.0022494532222222,0.3274311,-0.4467075177777777,0.1503872055555555
811,1778414923190,1.0970273899999998,0.0451032413,-0.0745531342999999,0.3590865639999999,-0.39938722,0.100759254
812,1778414923200,1.1882264666666666,0.0643160855555555,-0.2288141555555555,0.38193226,-0.3497864,-0.06001574
813,1778414923210,1.220559,0.06735149,-0.35288644,0.354138718,-0.387414599,-0.172472721
814,1778414923220,1.2305597,0.06369274,-0.4495384399999999,0.2391297266666666,-0.6628795888888889,-0.4574736955555555
815,1778414923230,1.15677185,0.0524969695,-0.426049259,0.18157434,-0.7926507,-0.5584671
816,1778414923240,1.1176262,0.0351036753333333,-0.37219312,0.1340640022222222,-0.8520386222222222,-0.6530126777777778
817,1778414923250,1.0556317300000002,0.00546373355,-0.364576146,0.097949363,-0.791490095,-0.735001966
818,1778414923260,1.0074198555555556,-0.0237954280555555,-0.4282600755555555,0.09361234,-0.63321954,-0.72828263
819,1778414923270,0.92746264,-0.082962155,-0.6457694,0.1304464329999999,-0.460594104,-0.599638223
820,1778414923280,0.92746264,-0.082962155,-0.6457694,0.1335210322222222,-0.4322507888888889,-0.493717311111111
821,1778414923290,0.9906607866666668,-0.0782193283333333,-0.9545746333333334,0.1141775311111111,-0.5066384488888889,-0.3524758411111111
822,1778414923300,1.03464883,-0.01427217413,-1.20953402,0.0511584578,-0.8653415200000001,-0.251149854
823,1778414923310,1.0375301,-0.0073175007,-1.2280595,-0.14339639,-1.2532295,-0.23105298
824,1778414923320,1.4155399,0.2730952,-1.3810562,-0.274789649,-1.62431921,-0.362995968
825,1778414923330,1.4672908333333332,0.3615963066666666,-1.3407082666666668,-0.3657448,-1.7904781777777776,-0.5602317722222222
826,1778414923340,1.3763150199999998,0.381750928,-1.21053399,-0.478995886,-1.97893138,-0.8987090249999999
827,1778414923350,1.2598499,0.3225188111111111,-1.042774217777778,-0.5013529,-2.016865,-0.9811734
828,1778414923360,0.8835545899999999,0.0555154332,-0.630619082,-0.1511541519999999,-1.53795304,-1.00756203
829,1778414923370,0.5756162377777778,-0.1671947071111111,-0.3802152555555556,0.1163494333333333,-0.9526247777777778,-0.7699559666666667
830,1778414923380,0.485186848,-0.210512276,-0.304487268,0.27961533,-0.638106315,-0.5883985999999999
831,1778414923390,0.3713868477777777,-0.2462067688888888,-0.2585144288888888,0.6477865722222221,-0.1875725255555555,-0.2235191933333333
832,1778414923400,0.40183748,-0.2219397729999999,-0.34390727,0.7268166299999999,-0.155598065,-0.155613341
833,1778414923410,0.4747533,-0.19940189,-0.37828425,1.216145933333333,-0.0863076233333333,0.2496838066666666
834,1778414923420,0.6672171333333333,-0.1580207288888888,-0.4509917333333333,1.3842646666666667,0.1388235222222222,0.38081235
835,1778414923430,0.7222068,-0.14619754,-0.4717653,1.43564375,0.494099065,0.354749545
836,1778414923440,0.7696587111111112,-0.1545449155555555,-0.45789256,1.469986977777778,0.8890712488888889,0.2604754511111111
837,1778414923450,0.6653437,-0.20232888,-0.35755134,1.53380697,0.899716935,0.251943946
838,1778414923460,0.6551534244444445,-0.1992934755555555,-0.4555787266666666,1.6180749666666667,0.6624044666666666,0.3314694777777778
839,1778414923470,0.689808568,-0.158887314,-0.623060718,1.5248275,-0.03397838,0.49585527
840,1778414923480,0.7439153511111112,-0.1219820433333333,-0.6433166777777778,1.3819570555555556,-0.3441530577777777,0.5301305922222223
841,1778414923490,0.908863968,-0.0457953539999999,-0.4887297399999999,1.03993691,-0.835104572,0.51772358
842,1778414923500,0.9352408555555556,-0.0263599388888888,-0.3855916055555555,0.735002,-0.9679638000000002,0.41339087
843,1778414923510,0.9959728,-0.0259740768,-0.183291181,0.5189453,-0.90584067,0.389201327
844,1778414923520,1.1195166,-0.029544408,0.03146525,0.2261662,-0.6894175,0.3865136
845,1778414923530,1.17590398,-0.0011799474,0.0810230205,0.042545512,-0.500665684,0.38028296
846,1778414923540,1.2705619111111113,0.0797607477777777,0.300512105,-0.3638443866666667,0.0622639977777777,0.3527812444444444
847,1778414923550,1.3969168399999998,0.159021474,0.380174624,-0.6021426799999999,0.6490710180000001,0.258480014
848,1778414923560,1.4685003,0.24891695,0.3062679,-0.9356653,1.3551646,0.036498122
849,1778414923570,1.43259574,0.3262385499999999,0.31504886,-1.16277071,1.6484935099999998,-0.1426633794
850,1778414923580,1.3481274,0.3361375166666666,0.35287628,-1.3989675333333331,1.8043409666666668,-0.3326572266666667
851,1778414923590,1.3318188777777775,0.3285760822222222,0.376383751111111,-1.5814750000000002,1.7367406,-0.4738308233333334
852,1778414923600,1.3790226,0.335885448,0.613916951,-1.74132694,1.60646724,-0.5903533270000001
853,1778414923610,1.2229983,0.27675393,1.2285168,-1.7793895333333332,1.902483822222222,-0.6967221733333333
854,1778414923620,0.807656913,0.1372732494,1.64956569,-1.4432335,3.0830072,-0.6456960599999999
855,1778414923630,0.6289526522222223,-0.2958099604444444,1.4529744111111111,-0.919655988888889,3.959885288888889,-0.3122956488888889
856,1778414923640,0.53507388,-0.510401742,1.43352882,-0.792788118,4.02079521,-0.120672872
857,1778414923650,0.3952703666666666,-0.76576285,1.47388,-0.4774619755555556,4.108261788888888,0.8747162733333332
858,1778414923660,0.350733888,-0.441650773,1.85011707,-0.581496036,3.60480814,1.66239022
859,1778414923670,0.3248495799999999,-0.0167760477777777,2.3215447777777776,-0.2835518977777778,3.170738511111111,1.8235063555555555
860,1778414923680,0.313015216,0.153856537,2.4497437,-0.18798824,3.0850842,1.826357
861,1778414923690,0.4278095,0.7905441133333334,2.648051,0.6703200255555556,-1.1234329666666667,1.852284066666667
862,1778414923700,0.89636938,0.8502020720000001,2.27929156,1.104869965,-2.3516092,1.692276
863,1778414923710,1.0084735,0.2174517,0.5405498,1.4820682,-3.264215,1.6003435
864,1778414923720,1.20439954,0.0972892116,0.248883416,1.29832532,-3.5427614000000007,1.39509886
865,1778414923730,1.3083283666666663,0.0310688858,-0.0422179066666666,0.9198172111111113,-3.3907962222222223,1.0868500055555554
866,1778414923740,1.3306264555555556,-0.0665553707333333,-0.2537580399999999,0.2290168233333333,-2.757415488888889,0.6518249555555555
867,1778414923750,1.27693741,-0.180659929,-0.2719732,-0.446987474,-1.8578614,0.377106556
868,1778414923760,1.1756479,-0.25281963,-0.2057437,-1.2332243,-0.51227176,0.23807772
869,1778414923770,1.12996834,-0.269668176,-0.1161226257999999,-1.47756313,-0.0316571549999999,0.32597864
870,1778414923780,1.0830374333333337,-0.2687589044444444,0.0132494174444444,-1.7554986,0.51578414,0.46958882
871,1778414923790,1.05380839,-0.22607112,0.146487211,-1.82049276,0.687676553,0.557245396
872,1778414923800,1.0216755,-0.15449072,0.26013714,-1.8993871333333336,0.8993283477777777,0.6382505444444444
873,1778414923810,1.0365545,-0.07637641,0.38654694,-1.86783345,0.956159236,0.664571253
874,1778414923820,1.0721391222222223,-0.0193270091111111,0.4672562644444444,-1.7371732,0.7399651,0.61863554
875,1778414923830,1.07966055,-0.0033172668619999,0.5554165600000001,-1.63913225,0.651086815,0.6039752199999999
876,1778414923840,1.0792702444444444,0.0906489196311111,0.607657428888889,-1.3412762777777776,0.3960581033333333,0.5035248022222222
877,1778414923850,1.0980789333333334,0.19668491,0.6796399022222223,-0.9730712222222222,0.3351091222222222,0.2055670755555555
878,1778414923860,1.06597378,0.0264436154,0.748604654,-0.537637227,0.428494076,-0.2256164319999999
879,1778414923870,1.0541164,-0.15497856,0.6813812,-0.19409671,0.5732038,-0.60794574
880,1778414923880,1.01414458,-0.11281146,0.6397812199999999,-0.285723796,0.6237819640000001,-0.688944096
881,1778414923890,0.986683588888889,-0.0661183572222222,0.6153170666666666,-0.41305152,0.6716181,-0.7790508533333333
882,1778414923900,0.99652156,0.0281235919999999,0.598437356,-0.5554739339999999,0.64381776,-0.936581574
883,1778414923910,0.9711542,0.21086596,0.57619214,-0.46286952,0.28854898,-1.2957598
884,1778414923920,0.97539839,0.030306646,0.7079803339999999,-0.1027750514999999,0.349022878,-1.51628329
885,1778414923930,1.0044624722222222,-0.10177423,0.6452882855555555,-0.0183763214666666,0.4530705333333333,-1.5489305
886,1778414923940,0.97442887,-0.1010424814999999,0.602522911,0.03674246169,0.49403799,-1.5418854
887,1778414923950,0.8851533266666667,-0.116897065,0.5316875,0.1206932362222222,0.4475050044444444,-1.522867711111111
888,1778414923960,0.8767246533333334,-0.1547278611111111,0.5073229877777777,0.2278629911111111,0.4032525088888888,-1.5035242333333332
889,1778414923970,0.900991587,-0.1522222889999999,0.39616639,0.3593309,0.124841906,-1.4784794
890,1778414923980,0.9624409644444444,-0.1032445066666666,0.4143500377777778,0.3374761377777778,-0.0903799431111111,-1.4870313
891,1778414923990,1.02580678,-0.04405745,0.44696206,0.26672646,-0.160668098,-1.5173292799999998
892,1778414924000,1.0893420333333332,-0.0073175,0.4596203199999999,0.1680678422222222,-0.1190218911111111,-1.5566
893,1778414924010,1.0622174999999998,-0.0483961157,0.5101547550000001,0.0465771044,0.0494022697999999,-1.60009911
894,1778414924020,0.95673263,-0.07808383,0.60107166,0.13148487,0.36734828,-1.588432
895,1778414924030,0.904217366,-0.083767086,0.555190972,0.334286174,0.372723736,-1.50780016
896,1778414924040,0.89108855,-0.0851879,0.5437208,0.3849865,0.3740676,-1.4876422
897,1778414924050,0.848857433,-0.0623298581,0.453752096,0.711117852,0.236871293,-1.27474663
898,1778414924060,0.8419765877777778,0.0311569686666666,0.3548174577777778,0.8843880555555556,0.0203191576666666,-1.0233218977777778
899,1778414924070,0.8399439566666667,0.0590854257777777,0.4585226911111111,0.8866957000000001,-0.036828999,-0.8294796799999999
900,1778414924080,0.8952351500000001,0.0507651575,0.48100369,0.9399412,-0.0550526085,-0.699878235
901,1778414924090,0.9648530555555556,0.0157055241111111,0.4249130144444444,1.0812165555555555,-0.2310105477777778,-0.5891452166666666
902,1778414924100,0.88484125,-0.0602413169799999,0.339678343,1.2813437,-0.6438482480000001,-0.372525216
903,1778414924110,0.8677640222222222,-0.0677749546666666,0.3096284888888889,1.4296031444444446,-0.864459151111111,-0.0974810399999999
904,1778414924120,0.87767315,0.014391083,0.31285363,1.620196,-0.81036526,0.3193204
905,1778414924130,0.8503545,0.050033405,0.2172078,1.6299696,-0.38826978,0.4561502
906,1778414924140,0.8864541000000001,0.101377865,0.083468284,1.53829668,-0.15113887938,0.4913350099999999
907,1778414924150,0.9161815,0.1489551666666666,0.0010637476666666,1.3317997333333331,0.1808362292333333,0.5282301833333334
908,1778414924160,0.8844113800000001,0.1334894999999999,-0.0447587085999999,0.8539339399999999,0.531116415,0.56188785
909,1778414924170,0.9038535666666668,0.1392831966666666,-0.08353129,0.5987830333333334,0.6543107555555555,0.5502206444444444
910,1778414924180,0.90726638,0.145703628,-0.12545854,0.451813184,0.6489488640000001,0.56255978
911,1778414924190,0.9066755055555556,0.1732181044444444,-0.2100833955555555,0.3242411188888889,0.5360778577777778,0.5817132555555555
912,1778414924200,0.8635022833333333,0.2161745266666666,-0.3345893111111111,0.0177315384444444,0.0012471448888888,0.5035247933333333
913,1778414924210,0.75800154,0.127976977,-0.255024025,-0.0894585837999999,-0.3169839247,0.504834703
914,1778414924220,0.8566963,0.091529734,-0.24699612,-0.1666085888888888,-0.7093718377777778,0.6436124055555557
915,1778414924230,0.97967918,0.1243121307999999,-0.198383528,-0.218652778,-0.79973651,0.744836616
916,1778414924240,1.082177,0.1742378,-0.17849619,-0.2462223533333333,-0.7300727733333333,0.7498319877777777
917,1778414924250,1.27576956,0.313347538,-0.171223408,-0.347541552,-0.246431054,0.59701156
918,1778414924260,1.2761279444444442,0.3548106655555555,-0.2076340622222222,-0.4521457333333333,0.1749992544444444,0.2946828822222222
919,1778414924270,1.124151,0.23501371,-0.32434818,-0.5764871,0.17248799,-0.044744562
920,1778414924280,1.0575404000000002,0.1403801388,-0.298203369,-0.645757182,-0.0190737055,-0.1832847246
921,1778414924290,0.9825674533333336,0.0149940993333333,-0.2438252144444444,-0.705850991111111,-0.3620033544444444,-0.3248519677777778
922,1778414924300,0.982032932,-0.0164887664,-0.179669016,-0.705986735,-0.652033655,-0.3517563959999999
923,1778414924310,1.0045708,0.0039026666999999,-0.08104131,-0.65834063,-0.7181273,-0.27442312
924,1778414924320,1.0897588,0.08540133,0.018781584,-0.578197486,-0.39706598,-0.255853368
925,1778414924330,1.1194928555555554,0.1677096522222222,-0.084344354,-0.51255178,0.2424639544444444,-0.2636993744444444
926,1778414924340,1.1456461,0.18205331,-0.17644322,-0.5405828633333333,0.7134187055555555,-0.3070695166666666
927,1778414924350,1.16984266,0.201395902,-0.197542012,-0.606662951,1.072159151,-0.3805883909999999
928,1778414924360,1.0800054,0.1528679855555555,-0.30043759,-0.6821636666666666,1.2532888666666666,-0.4896449777777777
929,1778414924370,1.01486713,0.085773295,-0.376549398,-0.83829624,1.101357605,-0.608800943
930,1778414924380,0.9884723,0.041496325,-0.26528987,-0.9240592,0.86648685,-0.70140535
931,1778414924390,0.95705276,0.0234678337,-0.214771673,-0.841045054,0.697641045,-0.668969395
932,1778414924400,1.0086597444444445,0.0550980626666666,-0.2215169844444444,-0.7757590688888888,0.5258970877777779,-0.545164231111111
933,1778414924410,1.05421082,0.1102594747,-0.195621159,-0.690776638,0.403449343,-0.337218239
934,1778414924420,1.0909783,0.13299556,-0.17132097,-0.5276193,0.2720561,-0.04046863
935,1778414924430,1.0503356499999998,0.1115308949999999,-0.194264385,-0.419804765,0.124536486,0.083838785
936,1778414924440,1.011102333333333,0.0761765322222222,-0.2393364577777778,-0.276153861111111,-0.1166463733333333,0.2591858888888889
937,1778414924450,1.05191504,0.107231866,-0.268948616,-0.198006144,-0.444528799,0.397814275
938,1778414924460,1.0790263,0.14644147,-0.25309405,-0.1674230577777777,-0.7129690466666667,0.4635482388888889
939,1778414924470,1.1328235444444443,0.1969864211111111,-0.1958278277777777,-0.1297541388888888,-0.9889362088888888,0.4530280822222222
940,1778414924480,1.1395482,0.20330454,-0.18866955,-0.1120599294999999,-1.08762876,0.440207074
941,1778414924490,1.1413911222222224,0.1888152133333333,-0.0425024822222222,0.0011707877777777,-1.2163072111111113,0.3617403444444445
942,1778414924500,1.11093975,0.1189795022,0.0806083612,0.15500249,-1.2303228000000002,0.298857015
943,1778414924510,1.0898399777777776,0.063997637,0.1104197233333333,0.3339468,-1.0677356111111111,0.2722172944444444
944,1778414924520,1.0731418,0.031739656,0.04564291,0.4863871299999999,-0.79875916,0.2814479
945,1778414924530,1.0775629,0.026586918,0.011220166,0.5755708,-0.55564195,0.2661767
946,1778414924540,1.05583905,0.028050417,-0.0058692455,0.59420165,-0.469512475,0.2334963699999999
947,1778414924550,1.0084023333333334,0.024472972,-0.0193812123333333,0.6217915666666667,-0.3589491133333333,0.1596856533333333
948,1778414924560,0.9450585088888888,0.0109491482777777,-0.0001151829888888,0.6381486999999999,-0.3457819666666666,0.0806827411111111
949,1778414924570,0.909120138,-0.01261049195,0.03780708393,0.68387407,-0.394989114,-0.0184781292
950,1778414924580,0.924725351111111,-0.0172638796666666,0.0243374624444444,0.7119255111111111,-0.3879982955555555,-0.1052863153333333
951,1778414924590,0.9638366699999998,-0.01536675,-0.010488417,0.7027492150000001,-0.355650544,-0.1897596979999999
952,1778414924600,0.9771708233333334,-0.0100005837999999,-0.0228671876666666,0.68369079,-0.33492246,-0.2186324133333333
953,1778414924610,0.98456966,0.00014634972,-0.029349274,0.614542888,-0.265855996,-0.281753298
954,1778414924620,1.0153031,0.030245667,-0.002927,0.5132644,-0.088954635,-0.3617743
955,1778414924630,1.04672264,0.0862794222,-0.0053417747,0.4599985359999999,0.025395973,-0.436053316
956,1778414924640,1.0472867,0.12884897,-0.028080907,0.4110493088888889,0.0943674111111111,-0.5011153422222222
957,1778414924650,1.03235906,0.141746066,-0.029398057,0.35261159,0.150619655,-0.569951008
958,1778414924660,1.0035239866666668,0.1454454766666666,-0.035804935,0.3241053711111111,0.1727594822222222,-0.5982400333333334
959,1778414924670,0.92868227,0.12519024,-0.07128465,0.3306211,0.0588704049999999,-0.5700732
960,1778414924680,0.8976316540000001,0.126556168,-0.066967326,0.330804343,-0.037704545,-0.504529286
961,1778414924690,0.884015,0.1347029766666666,-0.0652375516666666,0.32390177,-0.13721156,-0.42346987
962,1778414924700,0.8890153,0.149719095,-0.072854865,0.3013004199999999,-0.142098345,-0.393232925
963,1778414924710,0.91648644,0.16912572,-0.1144579,0.22922044,-0.09689565,-0.32268006
964,1778414924720,0.9252674,0.16795492,-0.15448462,0.16263808,-0.022372281,-0.2738123
965,1778414924730,0.9333167,0.11982407,-0.26821688,0.011147963,0.07963921,-0.10766183
966,1778414924740,0.919852492,0.099335066,-0.289681536,-0.0538461834,0.059114742,0.0203717556
967,1778414924750,0.915266828888889,0.0852522677777777,-0.2865106111111111,-0.1030804733333333,0.0193689479333333,0.1684411306666667
968,1778414924760,0.928804212,0.078766792,-0.274900192,-0.141624944,-0.00826170922,0.325001282
969,1778414924770,0.94185372,0.0870511488888888,-0.3330140211111111,-0.16477604,-0.05841227,0.4463766199999999
970,1778414924780,0.9721299,0.10787215,-0.4021881,-0.1886669644444444,-0.1621205633333333,0.4789551444444445
971,1778414924790,0.98322812,0.1223851939999999,-0.444724118,-0.220973994,-0.29334414,0.464946388
972,1778414924800,0.9749756111111112,0.1256238644444444,-0.4678490955555555,-0.2464938355555555,-0.3975682566666666,0.4389786
973,1778414924810,0.945082572,0.113335888,-0.456889446,-0.2662377649999999,-0.5319410920000001,0.39592066
974,1778414924820,0.922421717777778,0.10909174,-0.4427087644444444,-0.2253178066666666,-0.5234706288888888,0.3759255955555555
975,1778414924830,0.8964120720000001,0.0897491399999999,-0.460075636,-0.217064579,-0.397615751,0.37924451
976,1778414924840,0.8698678477777777,0.0784632466666666,-0.4768265933333333,-0.2248426922222222,-0.2743128288888889,0.3694777366666666
977,1778414924850,0.79202795,0.0580826599999999,-0.5471661,-0.244674873,-0.154559623,0.371608916
978,1778414924860,0.7664166522222222,0.0439896937777777,-0.5981446777777778,-0.2665160511111111,-0.1010358344444444,0.3968301266666666
979,1778414924870,0.7192340340000001,0.0263521475999999,-0.695635071,-0.277049782,-0.2257233289999999,0.461342402
980,1778414924880,0.72610945,0.036374073,-0.7885216,-0.3000447911111111,-0.5753926555555555,0.5600620777777778
981,1778414924890,0.7948939388888889,0.0845340667777777,-0.7182464888888889,-0.3303835222222222,-0.9157024666666664,0.5986812
982,1778414924900,0.8354145799999999,0.1138328612,-0.6757833200000001,-0.338623173,-1.04199854,0.58076302
983,1778414924910,0.9693349644444444,0.1872297655555555,-0.6015357666666667,-0.3829163877777778,-1.0232115777777775,0.4177346666666667
984,1778414924920,1.0048147,0.15229547,-0.6384214,-0.520838884,-0.64604732,0.197028775
985,1778414924930,0.9794473866666666,0.1249564766666666,-0.6553532666666667,-0.6392686288888889,-0.3820255777777778,0.0886916255555555
986,1778414924940,0.8061751000000001,0.010488417,-0.8614832,-0.8781845770000001,-0.0275033989,0.0516471365
987,1778414924950,0.8073947,-0.0075614169999999,-0.92566377,-1.0993724,0.18103985,0.11468657
988,1778414924960,0.8110534040000001,0.0041465833999999,-0.928170024,-1.1943438199999998,0.2180571979999999,0.150604394
989,1778414924970,0.7771185,0.012683666,-0.85099477,-1.2983813,0.2742279988888889,0.2174446588888888
990,1778414924980,0.77565503,0.064424485,-0.6918696,-1.22039642,0.353909634,0.310279868
991,1778414924990,0.8633329233333333,0.1588744572222222,-0.5735090688888889,-1.0849919555555556,0.5433401222222222,0.3956763066666667
992,1778414925000,0.92575526,0.19351739,-0.4671004,-0.88191074,0.7698966,0.41278005
993,1778414925010,1.011467612,0.22456799,-0.4969802399999999,-0.7356739219999999,0.813136972,0.387979645
994,1778414925020,1.0654177444444446,0.22539256,-0.5567296222222222,-0.673001,0.83166856,0.3773509
995,1778414925030,0.994451304,0.169833075,-0.5204571689999999,-0.457005368,0.358078672,0.138876124
996,1778414925040,0.93063354,0.08418174,-0.47518018,-0.2661767,-0.16775393,0.06520794
997,1778414925050,0.958757164,0.036544816,-0.491571364,-0.207596444,-0.478614109,0.0853048175
998,1778414925060,1.00564809,0.0379900216666666,-0.4639396533333333,-0.1815404166666666,-1.002850022222222,0.0682621808888888
999,1778414925070,1.05180228,0.0479845064,-0.316146498,-0.229403686,-1.4175474,-0.00198525457
