id,timestamp,acc_x,acc_y,acc_z,gyro_x,gyro_y,gyro_z
0,1778414954550,1.0101808,0.086620905,-0.048813824,-0.12384928,0.08574768,-0.1693574
1,1778414954560,1.02052603,0.0901607499,-0.0646196294,-0.120000939,0.090023616,-0.180047233
2,1778414954570,1.0189958222222222,0.0956763113333333,-0.0644786977777777,-0.1134648766666666,0.0861549133333333,-0.1927732166666666
3,1778414954580,0.995911803,0.108433152,-0.064107404,-0.1178018919999999,0.0865417815,-0.194279973
4,1778414954590,0.98042303,0.1164092299999999,-0.04613074,-0.12995775,0.096132085,-0.18585028
5,1778414954600,0.96571487,0.1074087079999999,-0.030983515,-0.1200620286,0.0889851714999999,-0.168257881
6,1778414954610,0.9637011833333332,0.1031835283333333,-0.0427701101111111,-0.0994832625555555,0.0568342472222222,-0.1568010977777777
7,1778414954620,0.970178547,0.1064330385,-0.0556190976999999,-0.0614817784999999,-0.0334897005,-0.132095728
8,1778414954630,1.0010475444444444,0.1194717422222222,-0.0555350831111111,-0.0179690906666666,-0.1095198277777777,-0.1087477811111111
9,1778414954640,1.0238707,0.13445906,-0.06564408,0.0440115452,-0.152849253,-0.0692395335
10,1778414954650,1.0333563666666667,0.1347300822222222,-0.0733850411111111,0.0662599622222222,-0.1562157022222222,-0.0495634661111111
11,1778414954660,1.04192055,0.133361445,-0.084578105,0.103508068,-0.155048314,-0.0060168453199999
12,1778414954670,1.0504847333333334,0.1213688735555555,-0.0880606933333333,0.1371182377777778,-0.1244516466666666,0.0413848994888888
13,1778414954680,1.0600618666666666,0.1167344576666666,-0.0940502033333333,0.1468239211111111,-0.1014430655555555,0.0650722011111111
14,1778414954690,1.0825875100000002,0.1072135725,-0.101359569,0.167280527,0.0061542858999999,0.142357951
15,1778414954700,1.0830645,0.1042947022222222,-0.1010153777777777,0.1625702155555555,0.0326039727777777,0.1352517588888889
16,1778414954710,1.07402913,0.0983106109999999,-0.0973593439999999,0.1562852699999999,0.069071553,0.105829286
17,1778414954720,1.061759077777778,0.09302033,-0.1056497955555555,0.15863364,0.0685760891111111,0.0612035033333333
18,1778414954730,1.03787156,0.088974701,-0.1089453803999999,0.157873474,0.0674222662,0.0498145954
19,1778414954740,1.013419588888889,0.0870274333333333,-0.1109888562222222,0.1548328055555555,0.0717660683333333,0.0251635134444444
20,1778414954750,1.00500985,0.0835963398,-0.115287209,0.155552256,0.094421716,0.0378419881999999
21,1778414954760,1.0045708,0.08198649,-0.1168970599999999,0.1515070911111111,0.1117426288888888,0.0449142402222222
22,1778414954770,1.0226512,0.07735208,-0.14131922,0.14370182,0.12423106,0.038941514
23,1778414954780,1.048641811111111,0.0872408633333333,-0.1942728588888889,0.1227972688888889,0.1004758911111111,0.0090099973422222
24,1778414954790,1.07055635,0.0898467065,-0.287580817,0.087137356,0.01617218123,-0.0572669334559999
25,1778414954800,1.0465549777777778,0.0762544511111111,-0.3002140055555555,0.0528891884444444,-0.0736155807222222,-0.0930015011111111
26,1778414954810,1.02521221,0.0536189829,-0.287641789,-0.0071774551,-0.217415809,-0.147183658
27,1778414954820,1.0086970666666668,0.0383254093333333,-0.2968601433333333,-0.054212693,-0.2911451,-0.17790927
28,1778414954830,1.0138396666666667,0.0527978,-0.34030441,-0.0718593916666666,-0.3315967533333333,-0.1765518255555555
29,1778414954840,1.03064249,0.0789161908999999,-0.41263077,-0.119329009,-0.4608384479999999,-0.1816965159999999
30,1778414954850,1.0250903,0.10104248,-0.5518005,-0.1691198555555555,-0.6129937033333334,-0.1850358144444444
31,1778414954860,1.0244805,0.111286985,-0.63258265,-0.202587502,-0.6673048149999999,-0.18487292
32,1778414954870,1.017556033333333,0.1280359166666666,-0.7899275022222222,-0.3407679166666666,-0.8221749555555555,-0.1851036855555555
33,1778414954880,1.01566897,0.133898051,-0.8829722099999999,-0.450469295,-0.916835927,-0.1681967959999999
34,1778414954890,1.0621656,0.19668831,-0.8927349999999998,-0.4953122711111111,-0.9459733144444444,-0.1462130811111111
35,1778414954900,1.1026863,0.26480204,-0.8424576499999998,-0.451690991,-0.81757326,-0.127758707
36,1778414954910,1.1221996333333335,0.3496037377777778,-0.8828123255555556,-0.3641158733333333,-0.6258893666666666,-0.12476555
37,1778414954920,1.08161187,0.412478335,-0.982965906,-0.16355436,-0.2862583,-0.12048962
38,1778414954930,0.9323511355555556,0.3243515777777778,-1.166199555555555,0.0112837066666666,-0.21295662,0.03805918
39,1778414954940,0.80544335,0.31602454,-1.3837392,0.18890451,-0.07062922,0.27350685
40,1778414954950,0.7509736850000001,0.270363337,-1.4764337099999998,0.188171496,-0.064398574,0.42634086
41,1778414954960,0.7382815722222222,0.2258058488888889,-1.5157828666666666,0.1257836333333333,-0.039068772,0.6703539733333334
42,1778414954970,0.772825585,0.185739505,-1.5879919800000002,-0.036009445,-0.0345281418999999,0.816183576
43,1778414954980,0.7988000222222222,0.1426201188888889,-1.1410557555555556,-0.143192781111111,0.0327397155555555,0.7441986111111112
44,1778414954990,0.80885816,0.092505395,-0.93154824,-0.170212595,0.2352220153999999,0.581068464
45,1778414955000,0.7496270733333333,0.0724839023333333,-0.75680228,-0.1706809066666667,0.5956015433333334,0.36513394
46,1778414955010,0.6333357339999999,0.0419658616,-0.574686,-0.154086215,0.97609575,0.20234315
47,1778414955020,0.5263078344444445,0.0215730742222222,-0.4800855955555556,-0.1161118833333333,1.3722683111111111,0.1250709822222222
48,1778414955030,0.431848374,0.0296785624,-0.526664888,-0.0694838768,1.33244108,0.180047238
49,1778414955040,0.35639274,0.044911157,-0.55253226,0.05207473,0.7259156,0.32909396
50,1778414955050,0.47719246,0.09031015,-0.30507877,0.188476926,0.277370468,0.348763239
51,1778414955060,0.59400822,0.1112869806666666,-0.1369998613333333,0.46724725,-0.1946312133333333,0.2826695633333334
52,1778414955070,0.85157406,0.12226323,0.10689648,0.7470831644444444,-0.3732022344444444,0.1198448355555555
53,1778414955080,0.766874,0.017318083,0.2113233,1.3800566,-0.05780142,-0.33367532
54,1778414955090,0.7716439199999999,-0.0557756174444444,0.1384464288888888,1.5882113222222225,0.0818789872222222,-0.3978142822222222
55,1778414955100,0.95631185,-0.130138696,0.209079286,1.86593986,0.2322899494999999,-0.561277003
56,1778414955110,1.070150513333333,-0.1797157777777777,0.3238467911111111,1.957723,0.2791826577777778,-0.6520624977777777
57,1778414955120,1.07553838,-0.225982692,0.35761844,2.23128762,0.337661096,-0.93206126
58,1778414955130,0.9821609444444444,-0.2484020033333333,0.2478667633333333,2.3373306,-0.094452254,-1.0373714
59,1778414955140,1.0682635,-0.18888296,0.44365394,1.9757091,-0.42003384,-0.64032066
60,1778414955150,1.2774221,-0.17083314,0.7130904,1.8084048222222224,-0.4034052233333333,-0.3651000211111111
61,1778414955160,1.3889957,-0.157661634,0.7804480199999999,1.57262626,-0.2761182359999999,0.0474933759999999
62,1778414955170,1.5085026333333331,-0.1538673766666666,0.8136450377777779,1.3623421111111111,-0.0698147491111111,0.4799053777777777
63,1778414955180,1.3965144,-0.11567748,0.79901004,1.3330214,-0.024204822,0.6601732
64,1778414955190,1.202997,-0.10079856,0.94322574,1.4753488,0.047875155,0.78417516
65,1778414955200,1.14393875,-0.072976817,0.98240482,1.5687168,0.1236202169999999,0.862852296
66,1778414955210,1.0163805,0.0440167953333333,0.9846509266666666,1.7026603555555555,0.3125756377777777,1.099983222222222
67,1778414955220,0.95381178,0.20163373,0.992527448,1.56723552,0.36062894,1.43918668
68,1778414955230,0.91526675,0.42584804,0.9676479,1.0758548,0.1144575,1.9601325
69,1778414955240,0.8596233,0.61402977,0.86831284,0.3477248088888889,-0.4724988555555555,2.431978011111111
70,1778414955250,0.82381329,0.6160054770000001,0.4615330089999999,-0.78906196,-1.415104,2.8586888
71,1778414955260,0.8018557166666667,0.5810806533333334,0.4372409533333333,-1.201485666666667,-1.7276202666666665,2.9078280000000003
72,1778414955270,0.76589835,0.440507408,0.398376924,-1.89269498,-2.28319432,2.9846454
73,1778414955280,0.8716159355555555,0.2197790899999999,0.5987374777777776,-2.6531727333333333,-3.230889955555556,2.9673518
74,1778414955290,1.6076243,0.24403864,1.0613425,-2.95019372,-3.9664449,2.44618356
75,1778414955300,2.341478,0.77974063,1.3761778,-2.7249134,-2.8280702,0.8244911
76,1778414955310,2.15492156,0.788960659,1.3406423,-2.6506953500000003,-1.9197021,0.191653335
77,1778414955320,1.7118310222222224,0.5616520111111111,1.1100072,-2.4985603,-0.0245441788888888,-0.98042684
78,1778414955330,1.32005562,0.100060716,0.548894807,-2.402386,1.4907727,-1.6983843999999997
79,1778414955340,0.6609667222222222,-0.5261316288888889,0.0370787149999999,-2.3016640111111113,0.8621515444444445,-1.5297226666666666
80,1778414955350,1.0328957,-0.27041212,0.41657916,-1.7377841,0.41255096,-1.2273449
81,1778414955360,1.07310534,-0.218470064,0.2320806,-1.47655526,0.388850088,-1.1503781400000002
82,1778414955370,1.1742758,-0.1952349733333333,-0.0807872333333333,-0.7938808555555554,0.1337331299999999,-0.9093649444444444
83,1778414955380,1.14023427,-0.2105000829999999,-0.0656715109999999,-0.203320518,-0.361881189,-0.64508525
84,1778414955390,1.145754577777778,-0.1286728122222222,0.0515104586666666,0.3501003155555555,-0.8448441977777778,-0.3358472088888888
85,1778414955400,1.18459964,-0.069943106,0.2944135328,0.77739479,-0.925693228,-0.19489082
86,1778414955410,1.1890260333333331,-0.0481091768888888,0.4003959888888889,1.0063539,-0.7771758833333333,-0.1516428355555555
87,1778414955420,1.18384344,-0.00561618124,0.45753888,1.34035166,-0.351618948,-0.118046236
88,1778414955430,1.1893614444444447,0.0079137407444444,0.3707533444444444,1.5593742666666666,0.0104777266666666,-0.1003316622222222
89,1778414955440,1.25887528,-0.018760241,0.2217720904,1.71750397,0.228258345,-0.0759588539999999
90,1778414955450,1.3247725,-0.037837572,0.043661084,1.739922,0.428433,-0.13209572
91,1778414955460,1.38890119,-0.0288370482,0.00853708343,1.69245927,0.6259809799999999,-0.211628033
92,1778414955470,1.3227499777777778,-0.0540173827777777,0.0101360926,1.613680311111111,1.0651309333333332,-0.3682899911111111
93,1778414955480,1.2578003777777778,-0.0612806789999999,-0.0360183644444444,1.5327854,1.4329458888888889,-0.4969072666666666
94,1778414955490,1.17536742,-0.0454477754,-0.01229949864,1.514443,1.5090982,-0.5236488
95,1778414955500,1.1151362,-0.048976435,-0.0359573844333333,1.2843572666666665,1.9908530666666664,-0.6690304666666668
96,1778414955510,1.0761786,-0.076150786,-0.079468052,1.1137273,2.18622235,-0.7411104500000001
97,1778414955520,1.037692611111111,-0.0938604861111111,-0.0975463411111111,1.0023494666666666,2.0796294,-0.7303188
98,1778414955530,0.983133567,-0.1144578995,-0.0494998366,0.9000528859999999,1.79534117,-0.669519125
99,1778414955540,0.96359277,-0.12860507,-0.048082076,0.81624466,1.4614521,-0.5786251
100,1778414955550,0.968861434,-0.14814279,-0.0857671992,0.7095907,1.1766750900000005,-0.506056417
101,1778414955560,0.9646057666666668,-0.1665781477777777,-0.1248819522222222,0.5945749488888888,0.9970724222222224,-0.459306241111111
102,1778414955570,0.99721978,-0.140688084,-0.191343478,0.345708994,0.7512276050000001,-0.395431975
103,1778414955580,1.080246,-0.05881441,-0.23281845,0.08994726,0.6000811,-0.38987327
104,1778414955590,1.0660683,-0.021220751,-0.2674851,-0.167891364,0.479133313,-0.392072303
105,1778414955600,1.0493735444444443,-0.0084286763333333,-0.1902448422222222,-0.4044996555555555,0.4841558522222222,-0.3776563111111111
106,1778414955610,0.92380387,-0.06369274,0.060033992,-0.462380844,0.57497526,-0.356582085
107,1778414955620,0.8537184744444445,-0.1057819133333333,0.1873584968888889,-0.4024635044444444,0.7012102333333333,-0.3184719977777777
108,1778414955630,0.8498667,-0.1481489,0.2389163799999999,-0.1361340946666666,1.1239844555555554,-0.1919587444444444
109,1778414955640,0.924752145,-0.1101436226,0.216716917,0.1074174886,1.64733299,-0.057144763
110,1778414955650,0.881088,-0.05369216,0.29187676,0.2664142488888889,1.9365554111111112,0.0453214722222222
111,1778414955660,0.8430828,-0.019199291,0.094853098,0.4481480839999999,2.46226422,0.277416282
112,1778414955670,0.8695020000000001,-0.011708,-0.1089934922222222,0.4405057077777778,2.6775811111111114,0.3975088488888889
113,1778414955680,0.897628575,-0.0385388351999999,-0.415716333,0.11071607,2.6110666,0.54105794
114,1778414955690,0.91477895,-0.03125182,-0.50981635,-0.13850962,2.2830417,0.55693996
115,1778414955700,0.98329523,-0.0216658968,-0.41181063,-0.3950654759999999,1.86913154,0.535438184
116,1778414955710,1.038827588888889,-0.0550709608888888,-0.2940246133333333,-0.56427014,1.5023788,0.5013529
117,1778414955720,1.043628,-0.059546154,-0.28236404,-0.587726668,1.38069808,0.52236602
118,1778414955730,1.113903111111111,-0.1220159282222222,-0.5398587244444444,-0.7304206,1.0802834,0.59664506
119,1778414955740,1.1773553,-0.18058981,-1.0310968,-1.18514299,0.399608657,0.588948386
120,1778414955750,1.2678958666666666,-0.0708882848888888,-0.5970097666666666,-1.5044404,-0.09261972,0.4756973
121,1778414955760,1.2635188,0.088846646,-0.12543415,-1.5044404,-0.09261972,0.4756973
122,1778414955770,1.27315355,0.099213108,-0.136547605,-1.51421395,0.03352024,0.19592926
123,1778414955780,1.2602395,0.1052432731111111,-0.1335681,-1.4626313222222225,0.1640040044444444,-0.1821173222222222
124,1778414955790,1.3599939,0.0866727410999999,-0.280479784,-1.33993927,-0.0270147189999999,-0.4017847769999999
125,1778414955800,1.2654701,-0.02414775,-0.2174517,-1.2602373,-0.2145855488888889,-0.6122895277777778
126,1778414955810,1.22476042,-0.0456246139999999,-0.1637656479999999,-1.21092835,-0.141792918,-0.660173175
127,1778414955820,1.1480717222222223,-0.0820813455555555,-0.0563379788888888,-1.1420383777777776,0.1278282688888888,-0.6567456444444445
128,1778414955830,1.09795434,-0.079608298,-0.046716138,-1.07206751,0.5983095949999999,-0.61252708
129,1778414955840,1.0419205,-0.052960407,-0.1125065599999999,-1.0507081666666669,0.8361396,-0.5883307666666666
130,1778414955850,1.04455489,0.0482954979,-0.218372498,-1.0187405,0.8212077599999998,-0.56457555
131,1778414955860,1.060891866666667,0.0766745326666666,-0.2737422688888889,-0.9970214777777778,0.5117118399999999,-0.6253888388888889
132,1778414955870,1.0397101,0.073327452,-0.267607075,-0.98911442,0.33497337,-0.66628165
133,1778414955880,0.9291192444444444,0.0448569559999999,-0.1605683177777777,-0.9423846,-0.07368345,-0.76737684
134,1778414955890,0.8469090999999999,0.04027674,-0.10348164,-0.898770096,-0.1304922479999999,-0.778372116
135,1778414955900,0.78891122,0.0670804744444444,-0.1048672255555555,-0.7340857,-0.11888615,-0.722785
136,1778414955910,0.7973941,0.05710699,-0.14327055,-0.6876613,-0.10911259,-0.6574244
137,1778414955920,0.80141872,0.0470728681,-0.172476525,-0.672267955,-0.134584921,-0.62847023
138,1778414955930,0.8085329444444445,0.021491769,-0.22425428,-0.6192463888888889,-0.2980680177777778,-0.5100744233333334
139,1778414955940,0.83359133,0.00746385016,-0.143862052,-0.5581616800000001,-0.543302808,-0.385108646
140,1778414955950,0.8596741499999999,0.0113556765222222,-0.1073877064444444,-0.48424917,-0.73034424,-0.25731942
141,1778414955960,0.8909422599999999,0.0143423003999999,-0.0924078312,-0.433426674,-0.750380048,-0.181085676
142,1778414955970,0.89946304,0.0095127503333333,-0.0808787,-0.3908574111111111,-0.7428327055555556,-0.1219828066666666
143,1778414955980,0.925404558,0.0117811758,-0.078187492,-0.30710348,-0.714401141,0.0049784029999999
144,1778414955990,0.9567563688888888,0.0142826758888888,-0.0391723411111111,-0.1859520955555555,-0.7046208088888889,0.1615860644444444
145,1778414956000,0.982520792,0.0216110165999999,-0.0258856572,-0.0716829272,-0.6718250880000001,0.265077168
146,1778414956010,1.0665562,0.05344824,-0.04783816,0.034971006,-0.59717953,0.33275905
147,1778414956020,1.10477182,0.072620094,-0.0557410599999999,0.0705223163999999,-0.560895232,0.333125548
148,1778414956030,1.1343954777777778,0.1055922099999999,-0.0588415115555555,0.1208289766666666,-0.4735169333333333,0.3186416855555556
149,1778414956040,1.10132644,0.1005058668,-0.0587656265999999,0.144068326,-0.34453312,0.296352542
150,1778414956050,1.0426014222222222,0.065837172,-0.0687878855555555,0.1534075011111111,-0.22015105,0.2521950699999999
151,1778414956060,0.9529993777777778,0.0187849719999999,-0.0639637611111111,0.1752622644444444,-0.1923235566666666,0.2168338066666666
152,1778414956070,0.93687785,0.0033172671,-0.06408301,0.200632788,-0.211979264,0.214865524
153,1778414956080,0.9872425833333334,-0.0126836665,-0.0534482433333333,0.2410301533333333,-0.2272097333333333,0.2071281266666666
154,1778414956090,1.07733715,0.0002439167719999,-0.0569636896,0.254204077,-0.164394265,0.139975658
155,1778414956100,1.12098,0.015854584,-0.09811548,0.21822518,-0.03581092,0.044439137
156,1778414956110,1.09814944,0.0125373168,-0.154338272,0.139548057,0.099308498,-0.0179894523
157,1778414956120,1.064238911111111,0.0079137407222222,-0.1792516533333333,0.0556040698222222,0.2033697133333333,-0.05071729
158,1778414956130,0.978624168,-0.00117080014,-0.1767908079999999,-0.06923953588,0.2903815019999999,-0.0278851775999999
159,1778414956140,0.9160018955555556,-0.0111388617222222,-0.1362782733333333,-0.15072656,0.2696127,0.08719844
160,1778414956150,0.910827514,0.0098084989,-0.062918307,-0.142663381,0.217385267,0.151337407
161,1778414956160,0.94624424,0.034178823,-0.03295924,-0.11407573,0.19692189,0.16660859
162,1778414956170,0.988704056,0.0552532212,-0.0512529904,-0.080173704,0.1798181649999999,0.127514365
163,1778414956180,1.072454177777778,0.0806856008888888,-0.0902220662222222,-0.0109782824444444,0.1399094711111111,-0.0245187311111111
164,1778414956190,1.1052068444444445,0.1028278204444444,-0.1822667426666666,0.0249259608888888,0.0751596588888888,-0.2205328277777777
165,1778414956200,1.09041727,0.102115714,-0.258262016,0.0405908024,-0.017118996,-0.344426224
166,1778414956210,1.069971,0.097871564,-0.3389832,0.0463734877777777,-0.1437272688888889,-0.4799393222222222
167,1778414956220,1.07070273,0.0991887143,-0.370539909,0.0440726290999999,-0.198235204,-0.5478994800000001
168,1778414956230,1.0769835,0.102099455,-0.4763895766666667,0.0254010649999999,-0.2608063311111111,-0.6600714000000001
169,1778414956240,1.08319741,0.112945619,-0.5410102450000001,0.022143213,-0.284670102,-0.667381198
170,1778414956250,1.0794599666666669,0.17771362,-0.7396976333333334,-0.0250956421111111,-0.5613431777777778,-0.5613177266666667
171,1778414956260,1.0499331399999998,0.18478517,-0.73235374,-0.0617872015999999,-0.661440704,-0.5077667800000001
172,1778414956270,0.9740846022222224,0.1931650655555555,-0.7200047444444444,-0.0899133233333333,-0.8107046222222222,-0.4097597222222222
173,1778414956280,0.904885085,0.18095568,-0.74167435,-0.083044686,-0.94279694,-0.365928044
174,1778414956290,0.8167447766666666,0.15186862,-0.7300425666666667,-0.07131642,-1.1212865,-0.31351736
175,1778414956300,0.812077847,0.129263642,-0.68792126,0.097277425,-1.4847406,-0.1131594549999999
176,1778414956310,0.90454805,0.1212875666666666,-0.7198658666666666,0.1719365383333333,-1.4296286,-0.0675495261111111
177,1778414956320,1.0895149,0.11128698,-0.7653495,0.288900208,-1.11114646,-0.000641389604
178,1778414956330,1.116630233333333,0.1015303133333333,-0.7792256777777777,0.2882689922222222,-0.8477627111111112,-0.0264191425333333
179,1778414956340,1.14108484,0.094383552,-0.891240964,0.271002374,-0.27807296,-0.101553356
180,1778414956350,1.0380788444444446,0.12074552,-0.9794338511111113,0.1645384933333333,0.0545944766666666,-0.1591766133333333
181,1778414956360,0.9010180222222224,0.1165989422222222,-0.9841292333333332,0.0468485917777777,0.1880306655555555,-0.1819137011111111
182,1778414956370,0.7288749,0.091310205,-0.96154997,0.0024739317599999,0.079394874,-0.181574346
183,1778414956380,0.7017991,0.08208812,-0.93527812,0.0162383561333333,-0.0504712533333333,-0.1707827133333333
184,1778414956390,0.696961379,0.067180751,-0.837734827,0.242170387,-0.489059572,-0.1401589
185,1778414956400,0.79227185,0.13689823,-0.6940649,0.5055948622222223,-0.785116911111111,-0.1164173044444444
186,1778414956410,0.8668371699999999,0.10996983,-0.55642274,0.8817275,-0.904557888,-0.0956892239999999
187,1778414956420,0.87531531,0.0401039646666666,-0.4766233533333334,1.1430479333333334,-0.7906145066666667,-0.0738616149999999
188,1778414956430,0.8431437299999999,-0.106164733,-0.407691465,1.56211968,-0.413436688,-0.0353375134
189,1778414956440,0.8148747766666666,-0.1383820599999999,-0.4801296233333334,1.7352389333333331,-0.1457634266666666,-0.033952927
190,1778414956450,0.7750269000000001,-0.142148532,-0.5763079839999999,1.7831700600000002,-0.2556548389999999,-0.0421790034
191,1778414956460,0.8907836155555555,-0.1209386268888888,-0.3623348144444444,1.8274089666666669,-0.8347991155555555,-0.1028429246666666
192,1778414956470,0.917364444,-0.1201655472,-0.281687158,1.83216,-0.8983272299999999,-0.11010522
193,1778414956480,0.9618549,-0.12738548,-0.07494339,1.83216,-0.89832723,-0.11010522
194,1778414956490,1.30792695,-0.1338645175,-0.0695619899999999,1.95903297,-1.09495906,-0.561154843
195,1778414956500,1.4641098,-0.11762882,-0.049545575,1.8352142333333337,-0.8627623999999999,-0.76181137
196,1778414956510,1.50031613,-0.0269985266,-0.0306908155999999,1.4716837,-0.23739052,-1.034928
197,1778414956520,1.5619508777777775,0.1524919633333333,-0.0542104795555555,1.326302,-0.27098712,-0.9781192
198,1778414956530,1.5226803,0.28114447,-0.072016396,1.1222792,-0.667427,-0.782648
199,1778414956540,1.47172614,0.287193614,0.1794616808,1.03822648,-1.0544598,-0.4830885439999999
200,1778414956550,1.5202174888888889,0.1486807545555555,0.6667665466666667,1.05081,-1.0650885,-0.065513365
201,1778414956560,1.557103,0.018293751,0.6064378,0.96773475,-0.45912808,0.065818794
202,1778414956570,1.520729,-0.07076632,0.4495384399999999,0.96773475,-0.4591280799999999,0.065818794
203,1778414956580,1.45906992,-0.093154826,0.4411507529999999,0.3229243971,0.01678302,0.0474322902
204,1778414956590,1.3675255444444443,-0.0611790451111111,0.5208874288888888,-0.5316916463333334,0.2413779866666666,0.1367449377777777
205,1778414956600,1.53145531,0.1037895912,1.01604404,-1.2175789140000002,0.493549332,0.2681925109999999
206,1778414956610,1.4960934,0.2833397,0.8438907,-1.7280105,0.16149275,0.31382278
207,1778414956620,1.20293604,0.435324164,0.9771424199999998,-2.03496125,-0.457906425,0.43324341
208,1778414956630,1.0810386,0.72716638,1.7198767,-2.5402338666666666,-1.1151780666666666,0.6988601666666666
209,1778414956640,1.152360533333333,1.137895,4.017659800000001,-2.3799881777777774,0.2270570111111111,0.7082943422222222
210,1778414956650,0.8793378799999999,1.11597364,3.67075076,-1.58849296,4.75616382,0.389567836
211,1778414956660,0.8066629166666667,0.9073598666666663,1.5836086666666669,-1.5695974666666668,6.2249664000000005,-0.19745639
212,1778414956670,0.577064146,0.67395398,0.66315451,-1.9239704200000003,3.965101160000001,-0.9948564399999998
213,1778414956680,0.5052530566666666,0.4006433,0.9713676999999998,-1.968412888888889,2.707241022222222,-1.2371184777777775
214,1778414956690,0.56916734,0.154097402,1.19605763,-1.79990721,1.85294406,-1.38976913
215,1778414956700,0.6479104122222222,0.0568156444444444,0.9251895111111113,-1.3612986111111112,0.9472544666666668,-1.3734730666666666
216,1778414956710,0.721054266,0.024739248,0.7927413600000001,-1.1194234,0.20487818,-1.27792298
217,1778414956720,0.7459514,0.0087538978888888,0.8246415777777778,-0.9832434666666666,-0.2463496055555555,-1.2065082
218,1778414956730,0.7595565,0.028782167,0.9444453000000002,-0.6740394000000001,-0.91781326,-0.969872765
219,1778414956740,0.7584182333333334,0.0702886556666666,0.9748739666666668,-0.4522814866666667,-1.1770772,-0.7745034166666667
220,1778414956750,0.76982843,0.117851388,0.996234966,-0.1681967879999999,-1.42206769,-0.518273349
221,1778414956760,0.826908,0.15619814,0.98911256,0.2353289099999999,-1.7101432,-0.18951537
222,1778414956770,0.917943806,0.181272764,1.0380667010000002,0.628775631,-1.86109125,0.0175007726
223,1778414956780,0.9425855,0.19034646,0.96716005,0.8516738,-1.8556013,0.140953
224,1778414956790,0.933877668,0.197517617,0.8694318040000001,0.9594271800000002,-1.73325621,0.249989228
225,1778414956800,0.93990237,0.15985689,0.77068526,1.0783660444444445,-1.5157580666666668,0.3651339377777778
226,1778414956810,0.941420138888889,0.0945414277777777,0.7810923177777779,1.2817781,-1.145448866666667,0.3964907577777777
227,1778414956820,0.935243566,0.0519115679,0.66050197,1.51035042,-0.93021348,0.354627372
228,1778414956830,0.887226588888889,0.0231314318888888,0.5854034111111112,1.6551500555555556,-0.8617443,0.3333020133333333
229,1778414956840,0.81725807,0.00778094188,0.4148687159999999,1.8253185,-0.800225184,0.325673204
230,1778414956850,0.8217077933333333,0.0171283711888888,0.1944490211111111,1.9085159,-0.7456154,0.36513394
231,1778414956860,0.8884055,0.0073175007,0.03878275,1.7863464,-0.6106182,0.4109474999999999
232,1778414956870,0.9079459177777776,-0.0176162039222222,0.0233888993333333,1.684267022222222,-0.3939710266666666,0.4674169399999999
233,1778414956880,0.924291748,-0.0469478578,0.0320018668,1.63687215,-0.1873010385,0.523648807
234,1778414956890,0.8840217555555555,-0.1337171544444444,-0.0342262518888888,1.612255,0.0093917783333333,0.6339067233333333
235,1778414956900,0.819989909,-0.167515879,-0.1626161870999999,1.5515978,0.157705498,0.8681055540000001
236,1778414956910,1.03192,-0.06954674,-0.10714039,1.3917305666666666,0.4407262877777778,1.206601511111111
237,1778414956920,1.0310419,-0.0598845910999999,-0.146481101,1.2354080399999998,0.865814883,1.32204149
238,1778414956930,1.023139,0.027074749,-0.5005475,1.0001097,1.1786298,1.2967523
239,1778414956940,1.0900534444444443,0.0077782312222222,-0.4849232777777778,0.7007945333333334,1.0411891333333334,1.2665069111111111
240,1778414956950,1.22393421,0.0081224262,-0.387260398,0.2094289889999999,1.0111354389999998,1.058018003
241,1778414956960,1.202997,0.0278065019999999,-0.23013538,-0.04382829,1.4180819,0.68643963
242,1778414956970,1.0746055,-0.06100966,-0.4099934,-0.208207287,1.44502025,0.640809306
243,1778414956980,1.0860085,-0.1156876533333333,-0.4685740666666666,-0.41176194,1.3506850666666663,0.68501429
244,1778414956990,1.11556504,-0.1132992984,-0.4482334619999999,-0.638915664,1.22578718,0.71954754
245,1778414957000,1.1282163111111112,-0.0279487848888888,-0.3648180188888889,-0.8545583511111111,0.9729778555555556,0.6783628333333334
246,1778414957010,1.00560748,-0.0359777084,-0.31732948,-0.878123488,0.7751651799999999,0.6601731399999999
247,1778414957020,0.8548601888888889,-0.1122592558888888,-0.1946387311111111,-0.7437913555555555,0.3579140555555555,0.6728652466666666
248,1778414957030,0.8049311429999999,-0.08020895,-0.158637307,-0.5926134700000001,0.186354221,0.707269504
249,1778414957040,0.9322156577777778,0.0101530286666666,-0.1144375788888888,-0.4613084444444444,0.2000439955555555,0.7260768
250,1778414957050,1.3041818155555551,0.1318268015555555,-0.1556527188888888,-0.4047711444444444,0.6032031888888889,0.61924639
251,1778414957060,1.47778136,0.0736994248,-0.254642892,-0.409237121,1.215196588,0.357437263
252,1778414957070,1.443133,-0.06369274,-0.39145577,-0.4317163,1.6318785,0.17332791
253,1778414957080,1.2979112,-0.17083314,-0.42197582,-0.5037351999999999,1.69565088,0.212361054
254,1778414957090,1.2279680666666666,-0.14690898,-0.4149632333333333,-0.5141807,1.6168109,0.2521272233333333
255,1778414957100,1.11435153,-0.085965381,-0.3899434839999999,-0.50856088,1.46395654,0.283952344
256,1778414957110,1.0426522,-0.03661799,-0.51908517,-0.50685054,1.0277505,0.31504446
257,1778414957120,1.1446277100000002,-0.002789797,-0.624496833,-0.605074748,0.6953885,0.275461564
258,1778414957130,1.3484492777777777,0.0691910311111111,-0.7156650288888888,-0.6296308,0.612298,0.26556584
259,1778414957140,1.4034599,0.081791362,-0.669423184,-0.82662905,0.292824894,0.038330665
260,1778414957150,1.4057933666666669,0.0551556586666666,-0.5736005666666667,-1.0765674333333333,-0.1113523573333333,-0.3167751966666666
261,1778414957160,1.24922831,-0.0080705939,-0.315893433,-1.09130918,-0.142464846,-0.4755140439999999
262,1778414957170,1.211317277777778,-0.0071277868888888,-0.1563946222222222,-0.9748273777777778,0.0750917966666666,-0.44932907
263,1778414957180,1.1784427444444443,-0.0156648703333333,-0.1597755866666666,-0.8464137055555556,0.2400205466666666,-0.4236734911111111
264,1778414957190,1.11630292,-0.0096103168,-0.18300458,-0.7808155250000001,0.31939675,-0.46012071
265,1778414957200,1.0693780666666666,0.0060708149444444,-0.1664731322222222,-0.71128075,0.4166911611111111,-0.54923654
266,1778414957210,1.0062569,0.03790769695,-0.138953229,-0.65070506,0.5498083460000001,-0.580213275
267,1778414957220,0.85425717,0.062473156,-0.18671821,-0.5624376,0.63367766,-0.51387525
268,1778414957230,0.85425717,0.062473156,-0.18671821,-0.51747924,0.5149289720000001,-0.416628362
269,1778414957240,0.7722401900000001,0.0471877133333333,-0.2151751566666666,-0.4728466833333333,0.34474692,-0.3051691066666666
270,1778414957250,0.74947974,0.0463502664,-0.233574599,-0.39873055,0.090023614,-0.18401773
271,1778414957260,0.86547726,0.03000175,-0.18720604,-0.2973299,-0.25144,-0.12904148
272,1778414957270,0.8654772600000001,0.03000175,-0.18720604,-0.258724356,-0.36285856,-0.154697064
273,1778414957280,0.8702201155555556,0.0141471666666666,-0.1665917011111111,-0.1970830788888889,-0.5418639722222222,-0.2057367511111111
274,1778414957290,0.8676482140000001,-0.0477375416,-0.1252664625,-0.20570281,-0.5574745,-0.23105298
275,1778414957300,0.8534982911111111,-0.1180590582222222,-0.0784937407777777,-0.2432359855555555,-0.5356197222222222,-0.2453060844444444
276,1778414957310,0.8545498760000001,-0.1892915329999999,0.0044789193,-0.272529502,-0.480507724,-0.237161448
277,1778414957320,0.8859663,-0.20891462,0.06954674,-0.28389126,-0.43713757,-0.22922044
278,1778414957330,0.9589279,-0.17693105,0.11421398,-0.30404922,-0.2990861,-0.26098448
279,1778414957340,1.0184893,-0.136303685,0.111774813,-0.30710346,-0.225479,-0.28877804
280,1778414957350,1.1245777666666668,-0.0340060510666666,0.0872002086666666,-0.2967190466666667,-0.1017824266666666,-0.3471139466666667
281,1778414957360,1.17923348,0.10006070934,0.0210042743,-0.246018736,0.0106745553,-0.378877998
282,1778414957370,1.1796860333333334,0.1193362322222222,0.0320072885555555,-0.18432316,0.059481252,-0.35138988
283,1778414957380,1.1641105699999998,0.1208729052,0.0206841335,-0.099659728,0.0875191437,-0.273873375
284,1778414957390,1.1541831,0.14153264,0.008781,-0.055434387,0.13156123,-0.19623469
285,1778414957400,1.1274255,0.140947248,0.037489992,-0.0324665318,0.214147774,-0.118046234
286,1778414957410,1.0592453777777775,0.1406111844444444,0.0450466664444444,-0.0157293166666666,0.28977067,-0.0386360893333333
287,1778414957420,0.8956985490000001,0.126775691,-0.0126379322999999,-0.00363454115,0.407419837,0.1980061426
288,1778414957430,0.85157406,0.12567806,-0.027593073,-0.0029015245,0.43270892,0.37185326
289,1778414957440,0.824984136,0.1359957409999999,-0.0392278986,-0.0029015245,0.4327089199999999,0.37185326
290,1778414957450,0.8112973,0.13421515,-0.053204324,0.0600836172777777,0.3089105466666667,0.5075971177777778
291,1778414957460,0.8325181,0.11958014,-0.06100966,0.14186928,0.14194563,0.5117373
292,1778414957470,0.8785878822222223,0.1041558011111111,-0.0901407577777777,0.1687465533333333,0.06049933,0.4441368599999999
293,1778414957480,0.9262159622222222,0.0651528523333333,-0.1666120244444444,0.18523943,-0.07185091,0.25395975
294,1778414957490,0.91624254,0.018293751,-0.2616311,0.16202724,-0.21295662,0.096972
295,1778414957500,0.88984862,-0.0027643886666666,-0.2880012122222222,0.1396973722222222,-0.4063237177777778,0.0143040058888888
296,1778414957510,0.90730902,-0.0085858672,-0.321317522,0.104729764,-0.6745739220000001,-0.0881758012
297,1778414957520,0.97676426,0.009268833,-0.36047834,0.0662599599999999,-0.8868568744444445,-0.2269806688888889
298,1778414957530,1.01355005,0.0412768001,-0.399532464,0.0363148679,-0.923616347,-0.3879796299999999
299,1778414957540,1.0263098,0.056863073,-0.45027018,0.020921519,-0.84884864,-0.458899
300,1778414957550,1.04387188,0.0906455346,-0.5935712360000001,-0.0167066722,-0.703711328,-0.5106988400000001
301,1778414957560,1.025818722222222,0.1073030033333333,-0.8205797355555555,-0.1271071422222222,-0.6473369022222222,-0.5100744
302,1778414957570,0.9948142,0.11665315,-0.9354509,-0.23746687,-0.77127105,-0.45523393
303,1778414957580,0.9186816,0.114701815,-0.9244442000000002,-0.2577605633333333,-0.9427833444444444,-0.4262526155555555
304,1778414957590,0.8596233,0.13543473,-0.8214808,-0.22463907,-0.9612445,-0.43874106
305,1778414957600,0.8289813,0.1312339466666666,-0.7435121888888889,-0.1448895715555555,-0.8506132944444444,-0.4472250433333333
306,1778414957610,0.67339295,0.08933448,-0.5464343,0.08506048,-0.54709005,-0.39781427
307,1778414957620,0.636878603,0.0936243663999999,-0.428403036,0.218652779,-0.314540526,-0.280592698
308,1778414957630,0.64802563,0.074181154,-0.35877094,0.4631749399999999,0.1492758,-0.09361234
309,1778414957640,0.5828694,0.006341833,-0.6032974,0.69847328,0.5440053239999999,0.118595996
310,1778414957650,0.7322276666666667,0.0356321596666666,-0.8255461333333334,0.7449791133333333,0.5573217866666667,0.1674230533333333
311,1778414957660,0.669956835,-0.028443733,-0.98225248,0.708552293,0.295451551,0.170029334
312,1778414957670,0.68074095,-0.075888574,-0.8060836,0.67391723,-0.4530195999999999,0.14400724
313,1778414957680,0.512475015,-0.1112595424,-0.51397816,0.6898603430000001,-0.90602389,0.203931355
314,1778414957690,0.59116256,-0.15351506,-0.22915971,0.7398887,-0.90748996,0.3229855
315,1778414957700,0.834225472,-0.142563204,-0.203597246,0.81740525,-0.568836232,0.308141917
316,1778414957710,1.106345,-0.109335646,-0.30629835,0.85472804,-0.12804885,0.17760384
317,1778414957720,1.1388097555555554,-0.1116122046666666,-0.5610117444444445,0.8214708066666666,0.2667620777777778,0.022245021
318,1778414957730,1.02165113,-0.0830597214,-0.76380068,0.6957855719999999,0.238948167,-0.0384528346
319,1778414957740,0.9225843,-0.011464084,-0.6999494,0.56518644,-0.22273017,-0.014202199
320,1778414957750,0.93117022,0.0545153752,-0.55916068,0.521999541,-0.637923081,0.0080326415999999
321,1778414957760,0.87907904,0.0164203347777777,-0.40202888,0.5091921133333333,-1.2325286444444443,0.0389415117777777
322,1778414957770,0.798156324,-0.1037225182,-0.328369774,0.5255424559999999,-1.40649879,0.0909246156
323,1778414957780,1.0072539,-0.068571076,-0.28114447,0.6097783,-1.8219283,0.38345936
324,1778414957790,1.4946543,0.0109244174,-0.44543146,0.689493856,-1.67294257,0.482966393
325,1778414957800,1.5488099,0.01975725,-0.46368557,0.69835114,-1.6563886,0.4940227299999999
326,1778414957810,1.62901576,-0.0437159639999999,-0.4678199979999999,0.60965612,-1.30594563,0.328422031
327,1778414957820,1.6939438333333332,-0.1039931966666666,-0.3611830144444444,0.5492365155555556,-0.6886709111111111,0.22151697
328,1778414957830,1.7766097899999995,-0.0647019482,-0.232458689,0.61264926,-0.70352809,0.198678072
329,1778414957840,1.9792924,0.0102445,0.034636166,0.76859856,-0.8909971000000001,0.12629268
330,1778414957850,1.6234789,0.014391083,0.118604474,1.05148864,-1.122304566666667,-0.018681744
331,1778414957860,1.49080342,0.0655678522999999,0.5253842744,1.2924612,-1.08964459,0.0687508533
332,1778414957870,1.3806361,-0.0886196711111111,0.6402067144444444,1.4421594999999998,-0.8723323111111111,0.2624437388888889
333,1778414957880,1.36750965,-0.138288561,0.6207831739999999,1.25367242,-0.672130522,0.454928501
334,1778414957890,1.3450174,-0.09299323,0.59204674,0.8089145,-0.5189911,0.5777088
335,1778414957900,1.30284133,-0.0259832233,0.550529074,0.4625640799999999,-0.405740014,0.68711154
336,1778414957910,1.4326446,0.09738373,0.6223229,0.1713256877777777,-0.4283142155555555,0.8280204222222223
337,1778414957920,1.4960019,0.172135039,0.73885709,-0.0190889767,-0.6472690059999999,0.8791008
338,1778414957930,1.6698536,0.40170026,1.8718163999999995,-0.20875706,-0.5110501,0.7524111
339,1778414957940,1.5308668,0.39767565,1.62180185,-0.190248386,-0.2706206139999999,0.6747113309999999
340,1778414957950,1.2302716444444446,0.41273072,1.2696132555555557,-0.1963364933333333,0.0354545933333333,0.4624622766666666
341,1778414957960,1.12318748,0.445971152,1.4175095,-0.231724912,-0.532796254,0.435259216
342,1778414957970,1.1056132,0.45027018,1.6748843,-0.1138721066666666,-1.0513105222222223,0.3492519233333333
343,1778414957980,1.0150592,0.50713325,1.7297959,-0.0700268511111111,-0.9155667066666666,0.2090964177777777
344,1778414957990,0.974065975,0.4968734999999999,1.63596425,-0.0548235414999999,-0.787763885,0.089947263
345,1778414958000,0.97195715,0.4498636499999999,1.3753546,-0.056248851,-0.7346202,-0.1542898346666666
346,1778414958010,1.00369275,0.4318788720000001,1.2636712,-0.1397313084999999,-0.811403675,-0.55865037
347,1778414958020,0.9902881444444446,0.4063651688888889,1.2103890666666668,-0.2785972411111111,-0.4044233144444444,-1.049656266666667
348,1778414958030,0.963885496,0.309685736,1.1245260199999998,-0.353833274,0.266986054,-1.50363872
349,1778414958040,0.96554416,0.2552588,1.0403656,-0.35658208,0.7876112,-1.7649668
350,1778414958050,0.993716528,0.183013725,0.87688046,-0.304415728,1.42691637,-1.99073591
351,1778414958060,1.0294503111111113,0.0925900922222222,0.7189511333333333,-0.2637333033333333,1.8838191333333336,-2.1319501555555553
352,1778414958070,1.07086128,0.029520016,0.625780408,-0.15988927,2.1904372800000003,-2.1965914
353,1778414958080,1.1430680444444443,-0.0616601016666666,0.4013479533333333,0.14919944,2.298313,-2.0936027
354,1778414958090,1.12076056,-0.0501553695,0.383598617,0.297391002,2.08866996,-1.77742808
355,1778414958100,1.1056132,-0.04027674,0.33703187,0.36482853,1.9391346,-1.5169628
356,1778414958110,1.1344158000000002,-0.0049698026666666,0.28544349,0.3656429766666667,1.7509936666666668,-1.2880478000000002
357,1778414958120,1.241048,0.09274931,0.09369449,0.27869907,1.1065499,-0.84678704
358,1778414958130,1.2249495,0.09323715,0.0151228339999999,0.2200577277777778,0.6096595266666667,-0.7023555377777777
359,1778414958140,1.2282424200000002,0.09192,0.0197328599,0.136982496,-0.024693498,-0.49664936
360,1778414958150,1.2790516333333335,0.0915026333333333,0.0332539733333333,0.0481381564444444,-0.3846046911111111,-0.33672955
361,1778414958160,1.3284068100000002,0.08161757,0.0467435813,-0.04443913668,-0.60957973,-0.192447426
362,1778414958170,1.3569965444444445,0.0383796098888888,0.1256712777777777,-0.1357947384444444,-0.7526740999999999,0.0901848066666666
363,1778414958180,1.2081193,0.056375243,0.47588143,0.012980504,-0.6246677,0.37429667
364,1778414958190,1.0516772,0.038569324,0.5307932,0.2317995582222222,-0.3075701,0.6289520744444445
365,1778414958200,1.07843496,0.0596437288,0.328732608,0.3676384199999999,0.1288735,0.8743362399999999
366,1778414958210,1.1518254,0.0893141533333333,0.2450244633333333,0.3589236733333333,0.3665338,0.9623389666666669
367,1778414958220,1.2981551,0.17961414,0.07857166,0.115175251,0.897510265,0.98978634
368,1778414958230,1.2267992,0.16329882,0.0218237667777777,0.0078222383333333,1.046211688888889,0.9576557888888888
369,1778414958240,1.13874323,0.145438368,-0.0704004547,-0.1232384305,1.2756323,0.92192122
370,1778414958250,1.0216789000000002,0.0980070733333333,-0.1235370211111111,-0.1161797511111111,1.1972945,0.947475
371,1778414958260,0.90848593,0.023056223,-0.183373491,0.0109036256,0.914132892,1.025582
372,1778414958270,0.8427659555555556,0.0181853428888888,-0.2685658044444444,0.17546588,0.5695387,1.1824476
373,1778414958280,0.926432094,0.1057439797,-0.336004382,0.166119911,0.4375957029999999,1.28422239
374,1778414958290,1.0401793288888888,0.1210707486666666,-0.44500565,0.0439979695555555,0.2540700455555555,1.3167067
375,1778414958300,1.0934954222222222,0.1022485133333333,-0.4801770666666666,-0.0672441053333333,0.1338010066666667,1.3126344
376,1778414958310,1.18663935,0.0632049085,-0.47296965,-0.42102649,-0.18271969,1.25212235
377,1778414958320,1.218716,0.0420654598888888,-0.4065819822222222,-0.7661212533333334,-0.40842776,1.081793522222222
378,1778414958330,1.0236268,0.0024391667,-0.33508053,-1.03279,-0.4627931399999999,0.8397623
379,1778414958340,0.9554927555555556,0.0189170931888888,-0.3637271877777778,-1.1544759,-0.3592205955555556,0.7209864244444444
380,1778414958350,0.93109706,-0.0107811173999999,-0.355676246,-1.26877562,-0.1055696736,0.54594474
381,1778414958360,0.933614822222222,-0.0281046208888888,-0.4322677866666666,-1.3451451,0.1543661959999999,0.4246576133333333
382,1778414958370,0.9664101,-0.0225500962,-0.458856032,-1.40963702,0.325810668,0.359636328
383,1778414958380,1.105714922222222,0.0265869169999999,-0.4077473644444444,-1.5443492,0.7524450677777778,0.1454325555555555
384,1778414958390,1.229096,0.09299323,-0.1879378,-1.5630818,1.338305286,-0.149077272
385,1778414958400,1.2471459,0.09640807,-0.26480204,-1.4769523,1.8560594,-0.36116344
386,1778414958410,1.1786572,0.0477040055,-0.307850276,-1.4769523,1.8560594,-0.36116344
387,1778414958420,1.0978079444444444,0.0237412228888888,-0.5653480222222222,-1.3039468111111112,1.9919390444444445,-0.5568381644444443
388,1778414958430,1.0292369,0.019513333,-0.709706,-1.2723185,1.6276026,-0.6965186
389,1778414958440,1.0003734333333334,0.0266682236666666,-0.7461308888888889,-1.3179283666666666,1.1421826,-0.7920822444444444
390,1778414958450,0.9301525666666666,0.0239580376666666,-0.6605229422222223,-1.2951234222222223,0.5868630344444444,-0.8681666777777778
391,1778414958460,0.9111203,0.022928167,-0.63476264,-1.2869788,0.44553673,-0.8864921000000001
392,1778414958470,0.9111203,0.022928167,-0.63476264,-1.1783836888888888,0.2940465966666667,-0.844140011111111
393,1778414958480,0.87742923,0.0957647257,-0.277601568,-0.748013,0.40192224,-0.65779088
394,1778414958490,0.8783506588888889,0.1554087911111111,-0.3106549744444444,-0.4733896577777778,0.5738146333333334,-0.5843263066666666
395,1778414958500,0.877599972,0.180672122,-0.335797028,-0.4268295199999999,0.58028961,-0.581190624
396,1778414958510,0.8628484722222223,0.2354202344444444,-0.3586184933333333,-0.2978728733333333,0.4752646111111112,-0.6540307844444444
397,1778414958520,0.8272585969999999,0.236550377,-0.3698111899999999,-0.213277316,0.383230308,-0.7251062599999999
398,1778414958530,0.8298621088888889,0.1990495511111111,-0.5187531444444445,-0.1006370857777777,0.2267176555555555,-0.7297079666666666
399,1778414958540,0.8284202940000001,0.1316845059999999,-0.57307004,-0.1214058899999999,-0.47012332,-0.63115793
400,1778414958550,0.7543868522222222,0.0798522177777777,-0.4722091266666667,-0.1577852322222222,-0.7253217022222223,-0.5442818588888889
401,1778414958560,0.7152704,0.0580826564999999,-0.362536385,-0.1909203039999999,-0.84628304,-0.46305276
402,1778414958570,0.6703880522222222,0.0362114592222222,-0.1979959633333333,-0.2190057066666667,-0.9270370333333332,-0.3558015666666667
403,1778414958580,0.567502677,0.0115646981,-0.0873861928,-0.198494818,-0.93369531,-0.1400978169999999
404,1778414958590,0.55015403,-0.009024917,-0.026617408,-0.17943639,-0.9099333,0.06704049
405,1778414958600,0.5948213,-0.079303406,0.006829667,-0.1490297677777777,-0.794279611111111,0.3401570944444445
406,1778414958610,0.60543165,-0.110433268,-0.0056253284999999,-0.137898775,-0.7526402,0.456761035
407,1778414958620,0.6329976111111111,-0.1692070188888889,-0.0302761567777777,-0.1324690188888889,-0.7200277222222222,0.6068258444444444
408,1778414958630,0.6975163,-0.230178066,-0.0107384314,-0.154880322,-0.67561234,0.844282536
409,1778414958640,0.8215350722222223,-0.2297017477777778,-0.0422517886111111,-0.1370843011111111,-0.4718201266666666,1.0057768855555556
410,1778414958650,0.900982465,-0.204508885,-0.067854569,-0.13179029,-0.413009105,1.0673028
411,1778414958660,0.96651983,-0.18058981,-0.08860273,-0.1293469,-0.37849623,1.1134218
412,1778414958670,1.095161406,-0.0954628851999999,-0.134288322,-0.162332656,-0.374098128,1.11507114
413,1778414958680,1.1743977111111112,-0.0043396837777777,-0.0925629911111111,-0.1822870022222222,-0.4116177166666667,1.0061163555555557
414,1778414958690,1.20294212,0.0483198896,-0.0355508556,-0.177481672,-0.3992650299999999,0.84978018
415,1778414958700,1.2169002333333334,0.0700345723333333,-0.0180803236666666,-0.1627398933333333,-0.3632250533333333,0.7456918333333333
416,1778414958710,1.22744352,0.07422994,-0.0183730236,-0.15622419,-0.34734303,0.7114844
417,1778414958720,1.2731941999999998,0.0547491266666666,-0.0301135459999999,-0.12120228,-0.2687473433333333,0.5713967333333333
418,1778414958730,1.24784718,0.0205926644,-0.012055581668,-0.098315865,-0.146374268,0.408992788
419,1778414958740,1.1851605,-0.00073175,-0.00048783334,-0.12629268,-0.03825431,0.34070006
420,1778414958750,1.14630462,-0.017196125,0.023440392266,-0.140464328,-0.0074676078239999,0.318709548
421,1778414958760,1.0800934555555557,-0.0406764922222222,0.0338773175555555,-0.1207271766666666,0.0197083078266666,0.2215169755555555
422,1778414958770,1.0741419,-0.029080966,0.0290748684,-0.097949358,0.00670404852,0.163065676
423,1778414958780,1.1195166,0.0160985,0.018537667,-0.04199575,-0.020539738,0.100637086
424,1778414958790,1.1795133666666666,0.0385083443333333,0.0037400556244444,0.0439979697777777,0.0055909493333333,0.0284213654222222
425,1778414958800,1.2103145,0.0558874099999999,-0.02417824,0.1411362564,0.092772425,-0.0889698987599999
426,1778414958810,1.203268011111111,0.0615245948888888,-0.04466724,0.1968455266666666,0.1549770366666666,-0.16976463
427,1778414958820,1.18116646,0.0863525992,-0.119305738,0.26513824,0.19960962,-0.281753297
428,1778414958830,1.1093025666666667,0.0979528688888888,-0.1751423366666666,0.3617743,0.12850699,-0.422859
429,1778414958840,1.08295654,0.095944617,-0.215442453,0.39085062,0.081899345,-0.452362936
430,1778414958850,1.0707840444444443,0.0892802755555555,-0.2817914955555556,0.4179722377777777,0.0320609973333333,-0.4894413644444444
431,1778414958860,1.06304375,0.0853372958,-0.372607115,0.431166548,-0.0739277872,-0.55810062
432,1778414958870,1.0497259333333333,0.0837752146666666,-0.4504429433333333,0.4257096333333333,-0.19911076,-0.6279001000000001
433,1778414958880,0.995402554,0.0832548539999999,-0.5547244179999999,0.374418821,-0.292794359,-0.65021639
434,1778414958890,0.9951393511111112,0.0654272611111111,-0.7885351444444445,0.27503398,-0.36200336,-0.6183301
435,1778414958900,0.991301688,0.0546190404,-0.98663682,0.1479777512,-0.477819952,-0.585100052
436,1778414958910,0.926625828888889,0.0427159081111111,-1.0484690444444444,-0.0043268339999999,-0.75165602,-0.5051197933333333
437,1778414958920,0.87563335,0.0486674715,-1.04420419,-0.084388546,-0.931068648,-0.436297652
438,1778414958930,0.8433114222222222,0.0526893876666666,-0.96277635,-0.15167677,-1.0366502333333334,-0.4011400033333333
439,1778414958940,0.76166028,0.0607657374,-0.8261030500000001,-0.1834679819999999,-0.77689082,-0.486875826
440,1778414958950,0.7279015555555556,0.0913637277777777,-0.7767322777777779,-0.1885991,-0.7089646,-0.5089885
441,1778414958960,0.7158107555555556,0.0886941988888889,-0.8069406833333334,-0.1438036306666666,-0.2610099333333333,-0.5706161888888889
442,1778414958970,0.70903529,0.0741811584,-0.8942533920000001,-0.03943019084,0.53386526,-0.6428862
443,1778414958980,0.7438035355555556,0.0822575125555555,-1.050356,0.0906938499111111,1.0112407333333333,-0.6240313866666667
444,1778414958990,0.8891798920000001,0.2098323665,-1.28517866,0.3538333,1.2989666,-0.75699246
445,1778414959000,0.8860476111111111,0.2704324488888889,-1.3438657111111112,0.5357300111111111,1.3608658,-0.8672164422222223
446,1778414959010,0.87279482,0.272183571,-1.33819091,0.63689988,1.31802512,-0.8432440959999999
447,1778414959020,0.8626858377777777,0.2283466655555555,-1.3196298222222222,0.7303188,1.1214137333333334,-0.7052740666666666
448,1778414959030,0.9218434,0.1361695319999999,-1.23368777,0.79339896,0.51311168,-0.53012378
449,1778414959040,0.8256885,0.04369157,-1.0118273,0.9457443,-0.2270061099999999,-0.3813214
450,1778414959050,0.6657919170000001,-0.0725194756,-0.722767775,1.18873935,-0.6596692209999999,-0.307653214
451,1778414959060,0.5736716966666667,-0.1498461446666666,-0.5888148166666666,1.3643782444444446,-0.8044604,-0.2539936822222222
452,1778414959070,0.493541002,-0.18088251,-0.65814816,1.4930634,-0.9776152,-0.130629684
453,1778414959080,0.5572277,-0.21159773,-0.58597934,1.457498588888889,-1.1554939,-0.0499706994444444
454,1778414959090,0.6724173,-0.19449306,-0.23525764,1.33998514,-1.4336738,0.1620272415
455,1778414959100,0.7161901666666667,-0.1693594766666666,-0.1238182083333333,1.3334286999999998,-1.5400562333333334,0.2119470355555555
456,1778414959110,0.8633938999999999,-0.1158400877777777,0.2106525355555555,1.3468673111111111,-1.8006165111111112,0.3528491288888888
457,1778414959120,0.9111203,-0.11323831,0.29992604,1.37578075,-1.6701328,0.402395625
458,1778414959130,1.0599907666666666,-0.0925663726666666,0.3916793666666666,1.424377,-1.3834757444444443,0.3931650388888889
459,1778414959140,1.1863803,-0.017562,0.44097087,1.426481,-0.63993883,0.29427567
460,1778414959150,1.2859591,0.010488417,0.47563753,1.3366865,-0.10972344,0.2197523
461,1778414959160,1.33505954,0.0439781762,0.537628946,1.26998198,0.1446333759999999,0.154513814
462,1778414959170,1.4807164222222222,0.1229577177777778,0.69596542,1.0854247,0.7837849333333333,0.0037159877777777
463,1778414959180,1.70425796,0.231056168,0.840981988,0.8428776039999999,1.43262008,-0.1759545539999999
464,1778414959190,1.8694078777777776,0.2785934888888889,1.1264309177777776,0.3617743,2.7668326,-0.562743
465,1778414959200,1.87627713,0.27353428,1.2391759400000002,0.1907370599999999,3.51505956,-0.7587028159999999
466,1778414959210,1.724026711111111,0.24343224,1.1949003333333337,0.1660995499999999,3.838742433333334,-0.8005662133333333
467,1778414959220,1.3796842,0.19538335,1.02229137,0.272285175,3.776906850000001,-0.572822
468,1778414959230,1.0520329666666666,0.2106423755555555,0.8087836222222222,0.4020902044444445,2.5738049999999997,-0.0030033355555555
469,1778414959240,0.9360505555555556,0.2607232055555555,0.7338368444444445,0.4197369066666667,0.1185383155555555,0.8090162911111111
470,1778414959250,0.9918078,0.356151871,0.8189563099999999,0.2444916199999999,-2.0913882,1.4158676
471,1778414959260,1.2097860666666669,0.4722158911111111,1.259904148888889,0.1006031488888889,-2.8906480222222224,1.699843688888889
472,1778414959270,1.1583725,0.51692648,1.19733212,-0.079746108,-3.619850200000001,1.85702148
473,1778414959280,1.1705256666666666,0.5379480333333333,1.2015132666666668,-0.3775545088888889,-4.293560344444445,1.9504947444444445
474,1778414959290,1.33481568,0.475155748,2.01621516,-0.6760552120000001,-3.68496666,1.55086482
475,1778414959300,1.1681236666666666,0.4966143222222221,2.2046748555555555,-0.48791423,-1.0925766,0.65467554
476,1778414959310,1.05519574,0.5361837230000001,1.66976209,-0.17760384,0.9642224,-0.11438115
477,1778414959320,1.0532220333333333,0.5465867666666667,1.4638659333333337,-0.1226275872222222,1.572694177777778,-0.3868869
478,1778414959330,1.0862524333333334,0.5309659166666667,1.3371309,-0.0069059673333333,2.483263733333333,-0.8277150333333334
479,1778414959340,1.20283844,0.453983804,1.18552646,0.1347834464,3.00115352,-1.12936498
480,1778414959350,1.2320501666666668,0.2726446177777777,0.8940223555555556,0.3980178788888889,3.1682270111111115,-1.3935632777777778
481,1778414959360,1.15499111,0.116366546,0.64733657,0.544906314,2.9304176400000004,-1.3785906
482,1778414959370,1.1386368555555555,0.0582960855555555,0.5444897777777777,0.59471072,2.623962388888889,-1.294334366666667
483,1778414959380,1.0705625,0.0194157676,0.415658416,0.6079457340000001,1.88049336,-1.09075936
484,1778414959390,0.9645685,0.09079798,0.33532444,0.5076989044444445,0.7991579222222222,-0.8078285355555556
485,1778414959400,0.94684186,0.140867974,0.371930236,0.389262416,-0.015775118,-0.659012572
486,1778414959410,0.9198470333333332,0.2217575344444444,0.4581533888888888,0.1479098733333333,-1.1318067033333332,-0.5153684511111112
487,1778414959420,0.86348019,0.295117831,0.51310614,-0.00632227,-1.53360834,-0.491518246
488,1778414959430,0.9749078333333334,0.3142053277777778,0.6671595166666667,-0.2203631422222222,-1.9595725888888889,-0.5082419044444444
489,1778414959440,1.01925757,0.227019354,0.947777885,-0.363912259,-1.79493647,-0.5960342369999999
490,1778414959450,0.959043088888889,0.0904795344444444,1.092451922222222,-0.3806087666666667,-1.1463312444444442,-0.5864982188888889
491,1778414959460,0.8953388199999999,-0.0053600683999999,1.1740136,-0.299895472,-0.6092743199999999,-0.502024828
492,1778414959470,0.8228935333333333,-0.0755396368888888,1.120465088888889,-0.1604322493333333,-0.0846108266666666,-0.3034044444444445
493,1778414959480,0.8287170555555555,-0.1101758066666666,0.9296917166666666,0.0561470446666666,0.7377762066666667,0.1150938033333333
494,1778414959490,0.888515258,-0.0686290069999999,0.709657233,0.08994726,0.89275324,0.21303298
495,1778414959500,0.9046428577777778,-0.0072395826222222,0.3237959777777777,0.0850604813333333,1.138178182222222,0.7864149177777778
496,1778414959510,0.906040648,0.00902491666,0.187675588,0.0130415889,0.909681412,0.924364626
497,1778414959520,0.8466042266666667,0.0292903266666666,0.1611577766666666,-0.0630360428888889,0.5708961655555556,0.9507328788888888
498,1778414959530,0.747641172,0.0454233819,0.1599300629999999,-0.112670772,0.197166224,0.941407275
499,1778414959540,0.7083035244444444,-0.0241172636666666,0.2926017522222222,0.0939517011111111,-0.2210334011111111,0.985347508888889
500,1778414959550,0.6031937270000001,-0.213076467,0.19279174,0.375579444,-0.375930688,1.161312312
501,1778414959560,0.45499605,-0.3158111,-0.00804925,0.69041014,-0.63077617,1.5917916
502,1778414959570,0.4784120749999999,-0.304087865,-0.13593781,0.73439112,-0.706521215,1.7518336
503,1778414959580,0.6096561777777778,-0.2267002122222222,-0.508484948888889,0.6909530666666667,-0.9865607466666666,2.1270973666666664
504,1778414959590,0.832658354,-0.1288550806,-0.849006825,0.388346135,-1.4253663600000002,2.16934757
505,1778414959600,0.9720621466666668,-0.0521270262222222,-0.8158537888888888,-0.0567918277777777,-2.0372859777777776,1.894636088888889
506,1778414959610,1.1502567888888888,0.0931355168888889,-0.8162162666666667,-0.1627398844444444,-2.230118577777778,1.696653722222222
507,1778414959620,1.39710586,0.187071892,-0.96887968,-0.225677522,-2.3101937900000005,1.35986054
508,1778414959630,1.5785203222222224,0.2391365733333333,-1.048296288888889,-0.31117578,-2.2731493222222223,0.9844651933333332
509,1778414959640,1.67836616,0.273363516,-0.99692711,-0.527863658,-1.8996433,0.212055629
510,1778414959650,1.4903715333333334,0.1398184544444444,-0.7465476166666667,-0.6092692333333334,-0.8205714666666667,-0.6207735433333332
511,1778414959660,1.43064438,0.0485973472999999,-0.72736258,-0.6194907599999999,0.008047912,-1.24921324
512,1778414959670,1.4050515,-0.13616648,-0.88078314,-0.6265766,0.5035672,-1.8358251
513,1778414959680,1.39841698,-0.188596368,-0.905967524,-0.7031768599999999,0.6274470400000001,-2.04913302
514,1778414959690,1.3975714222222222,-0.3135548722222221,-0.9729599222222222,-0.946999877777778,0.7203501333333333,-2.3395704777777775
515,1778414959700,1.36546083,-0.284391581,-1.00065289,-1.32166734,0.5985539899999999,-2.4203448100000005
516,1778414959710,1.3590020333333337,-0.1855291088888889,-0.8913054222222221,-1.666315,0.5267794,-2.4185734
517,1778414959720,1.3315749666666667,-0.0986541266666666,-0.7535805777777778,-1.8465149444444444,0.6798305888888889,-2.4406317333333334
518,1778414959730,1.23022424,0.0229342664,-0.5284698800000001,-1.9906748999999997,0.8022715399999999,-2.4582784
519,1778414959740,1.0358836666666666,0.0578658422222222,-0.3617555244444445,-2.06994921111111,1.4289329266666666,-2.376289155555556
520,1778414959750,0.7895003700000001,-0.0023537959999999,-0.357078751,-2.01205455,1.92838368,-1.90643904
521,1778414959760,0.5982768166666667,-0.043583168,-0.3949790044444444,-1.9198166,2.0240424,-1.5475051
522,1778414959770,0.516115485,-0.0433013056,-0.460307342,-1.84578194,1.940112,-1.2395923
523,1778414959780,0.4757831888888889,-0.0318853284444444,-0.4718839044444444,-1.7377162222222222,1.7341614555555556,-0.7567209722222222
524,1778414959790,0.419966579,0.0121013162,-0.383278459,-1.63198537,1.42095291,-0.237161455
525,1778414959800,0.35785624,0.05881441,-0.18180938,-1.4722692,1.0803512777777775,0.4450191999999999
526,1778414959810,0.366417724,0.0724249615,-0.0915571729999999,-1.3175212,0.9782719,0.7273664
527,1778414959820,0.4508494699999999,0.1134822299999999,-0.10957957,-1.1415972,0.8114342,0.9277243
528,1778414959830,0.51298729,0.1665137766666666,-0.15220401,-1.0287431666666669,0.5956015133333333,0.9619317266666668
529,1778414959840,0.56787464,0.21528695,-0.1752724259999999,-0.91947785,0.346274035,0.96132087
530,1778414959850,0.6617018722222222,0.2606486888888888,-0.1260913666666666,-0.7522753555555556,-0.0856289,0.9307106333333331
531,1778414959860,0.769871125,0.2456027409999999,-0.073720764,-0.55816168,-0.501276508,0.942873268
532,1778414959870,0.8707520166666667,0.2302708844444444,-0.0374141066666666,-0.3991377833333333,-0.7086252444444444,0.93695486
533,1778414959880,0.986521,0.19156605,0.0078053335,-0.13728791,-0.9453625,0.8843541
534,1778414959890,1.0138633888888888,0.1644371066666666,0.0091333241111111,-0.0047340627777777,-1.0033251444444444,0.8349433555555555
535,1778414959900,1.0683367,0.1250499848,0.02766015,0.147489077,-1.03747822,0.73628472
536,1778414959910,1.115776488888889,0.0438304686666666,0.0228739626666666,0.2577945044444444,-1.0000672444444445,0.6738154111111112
537,1778414959920,1.15693644,0.0089547907,-0.0143209576999999,0.2807759479999999,-0.97932559,0.622789316
538,1778414959930,1.1605793,-0.0025746763333333,-0.0196251284444444,0.25406156,-0.9250009233333332,0.5734328666666667
539,1778414959940,1.15789074,-0.0038538836,-0.0024940478,0.19684553,-0.816718052,0.540324954
540,1778414959950,1.1450227666666666,0.0024662683333333,0.0092417316666666,0.1669140133333333,-0.75742515,0.5237506333333334
541,1778414959960,1.0924418,-0.0026830835,0.032197,0.0704001466666666,-0.4414134988888889,0.4682313888888889
542,1778414959970,1.0956127,-0.00036587505,0.026830834,0.0551289649999999,-0.33390439,0.46561832
543,1778414959980,1.0974827333333337,0.0126836671333333,-0.0017887226666666,0.050038572,-0.2013505333333333,0.4781406933333333
544,1778414959990,1.09839334,0.0258551684,-0.0358801436,0.0583053729,-0.145641263,0.494755727
545,1778414960000,1.095694,0.0341686606666666,-0.0548304383333333,0.069178455,-0.07185091,0.536782
546,1778414960010,1.09124665,0.058180221,-0.0662782604999999,0.093123667,-0.0294581082,0.554007894
547,1778414960020,1.074364833333333,0.08466957,-0.0611722711111111,0.103385895,-0.019318044,0.53311694
548,1778414960030,1.03113943,0.094356114,-0.0315201326,0.1085170175,-0.00435228662,0.4971991210000001
549,1778414960040,1.000508911111111,0.0706613066666666,-0.0361301582222222,0.12211855,0.0427847610444444,0.4090470677777778
550,1778414960050,0.992301775,0.0502986665,-0.0640616628,0.1232384359999999,0.0644291155,0.340577891
551,1778414960060,1.0006682,0.015854584,-0.0778704,0.12048962,0.080860905,0.22952586
552,1778414960070,1.0150592,-0.009024917,-0.12863556,0.1232045,0.0629427192222222,0.1806580822222222
553,1778414960080,1.03381028,-0.0132690668,-0.1702172519999999,0.122933012,0.0216087215,0.15530792
554,1778414960090,1.0586694666666667,-0.0105697223333333,-0.2091585466666666,0.1237474697777777,-0.0740228128888888,0.1142114677777777
555,1778414960100,1.08704828,0.01634241665,-0.233867305,0.137898771,-0.087427514,0.0507919483
556,1778414960110,1.1533160333333334,0.0428378636666666,-0.3525374933333333,0.12008239,-0.0097481044444444,-0.0376858807777777
557,1778414960120,1.1863803,0.058570493,-0.59671164,0.06502469,-0.0374602096,-0.2199355575
558,1778414960130,1.1301270222222222,0.0591125268888888,-0.68198084,0.0256046806666666,-0.2244269844444444,-0.2755090888888889
559,1778414960140,1.07311148,0.0773154844,-0.739659012,-0.0269689069999999,-0.529986353,-0.344181895
560,1778414960150,0.9898070666666666,0.1838860611111111,-0.7179721177777778,-0.0213626863333333,-0.9138699222222222,-0.4827220333333333
561,1778414960160,0.9421586,0.21359783,-0.8173282000000001,-0.0036345412,-0.9926421,-0.52487049
562,1778414960170,0.8310613555555555,0.2071258966666666,-1.0862150444444445,-0.0038517313777777,-1.1267840777777778,-0.5084455055555556
563,1778414960180,0.682387396,0.17206492,-1.35198742,-0.07583669052,-1.4346511400000002,-0.37594594
564,1778414960190,0.4992398155555555,0.1127843616666666,-1.6167643444444444,-0.1924677911111111,-1.876938611111111,-0.1800132866666667
565,1778414960200,0.469045652,0.0951610425,-1.58689439,-0.320969686,-2.3844728799999997,0.0725381109999999
566,1778414960210,0.49158356,0.08540133,-1.3293458,-0.4201102,-2.5299766,0.40789327
567,1778414960220,0.77126455,0.1188484,-1.1624154,-0.490479805,-1.99615726,0.517295992
568,1778414960230,0.91270915,0.1599619022222222,-1.1316005999999998,-0.5167598277777778,-1.6026087111111111,0.4447477033333332
569,1778414960240,1.21097617,0.2443069239999999,-1.16073843,-0.55987206,-0.6775670545,0.0112701329999999
570,1778414960250,1.3279433,0.22598879,-1.1943685,-0.5972559,-0.085289545,-0.45950985
571,1778414960260,1.3040191,0.17442075,-1.1294459666666663,-0.5768264777777777,0.4582287566666667,-0.9797481
572,1778414960270,1.34960924,0.2088048619999999,-1.19436236,-0.555596116,1.14023804,-1.56274578
573,1778414960280,1.6093316,0.29285243,-1.1602201,-0.51906747,1.7925312999999998,-2.183397
574,1778414960290,1.1743215299999998,0.2452582049999999,-1.277727,-0.575143248,2.2517662,-2.4161299200000004
575,1778414960300,0.5674924666666666,0.17229664,-1.361390433333333,-0.6495851777777778,2.550796333333333,-2.455834977777778
576,1778414960310,0.26743634,-0.0347764217,-0.92934685,-0.48058408,1.769319,-1.7869573000000003
577,1778414960320,0.28806558,-0.11397006,-0.40096852,-0.0996868766666666,1.2395109,-1.438833677777778
578,1778414960330,0.378537324,-0.068720472,-0.0093633504999999,0.26953635,1.0424109,-1.1900831
579,1778414960340,0.39601226,-0.0468082888888888,0.2118145299999999,0.5334223833333334,0.9919141666666668,-0.9917613933333336
580,1778414960350,0.375232256,-0.079227184,0.47322884,0.92143252,0.944675264,-0.668786108
581,1778414960360,0.3786433844444444,-0.1429148355555555,0.7376920911111111,1.5132214,0.6196282,-0.19440214
582,1778414960370,0.6655876,-0.005610083,0.90566254,2.29780135,-0.225356834,0.17448851
583,1778414960380,0.8688108666666666,0.0671177323333333,0.8801123133333334,2.714494955555556,-0.5856413377777777,0.3284831044444444
584,1778414960390,1.1887371,0.182748464,0.8254841299999999,3.22055468,-0.8393805029999999,0.40606072
585,1778414960400,1.2482096222222223,0.1322875248888889,0.5975856866666667,3.2615426,-0.81769544,0.22647162
586,1778414960410,1.30072831,-0.024931332,0.56317306,3.13344794,-0.813114083,0.205580643
587,1778414960420,1.506094,0.010000584,0.7645873,2.1210907,-0.6668161,0.11957335
588,1778414960430,1.5592983,0.091529734,1.3205343,1.6446298,-0.3406237,0.20325942
589,1778414960440,1.54975506,0.0932371506,1.37180864,1.6446298,-0.3406237,0.20325942
590,1778414960450,1.4551391222222223,0.1197224333333333,1.8749807222222223,1.4980180777777778,0.2926212811111111,0.6674354777777778
591,1778414960460,1.4245954,0.1586373,2.0209413,1.55457572,1.3718866,1.36478546
592,1778414960470,1.187697977777778,0.3994101444444444,1.8061860111111112,1.3293139111111112,2.0634760222222224,1.7328294222222222
593,1778414960480,1.3862699,1.0743004,1.2009542,0.4369085,2.4607983,1.8678945
594,1778414960490,1.4847004555555554,1.1647359555555556,1.4037777,-0.4984089444444444,2.419057022222222,1.4256666111111111
595,1778414960500,1.23869418,1.021480368,1.61642663,-1.73369147,2.1898264,0.750761862
596,1778414960510,0.5467731044444445,0.4002130666666667,1.5176360000000002,-1.9489335555555556,1.840923911111111,0.6277982622222223
597,1778414960520,0.453322207,0.250508528,1.2051556900000002,-1.6490280300000002,1.336656,0.772019305
598,1778414960530,0.6460743,0.21867129,1.062562,-1.4531293,0.8065729133333333,0.78132455
599,1778414960540,0.768730848,0.233525822,1.0389996499999998,-1.26370559,0.2572735929999999,0.669885648
600,1778414960550,0.9195929566666666,0.2713471333333333,1.0006986444444443,-1.1165100222222224,0.0404092422222222,0.4409468733333332
601,1778414960560,1.134191178,0.291166375,0.830338098,-0.8274842550000001,0.4934271488,-0.241131972
602,1778414960570,1.2766904,0.2552588,0.59472984,-0.7397190666666666,0.7959509555555555,-0.50403384
603,1778414960580,1.3563020444444445,0.2307451688888889,0.5056866977777777,-0.6903083177777778,0.9532950222222222,-0.6739851333333333
604,1778414960590,1.48364142,0.177857938,0.36875323,-0.584916793,1.00911967,-0.90188545
605,1778414960600,1.4482891222222225,0.1438430888888889,0.3085783155555555,-0.4806519466666666,0.8751998833333333,-0.9141838277777778
606,1778414960610,1.37841888,0.1203606815999999,0.283754366,-0.319442576,0.611931494,-0.79315461
607,1778414960620,1.2847396,0.08540133,0.27699786,-0.0466789117777777,-0.0425302444444444,-0.5149612111111112
608,1778414960630,1.20217081,0.0807913005,0.295218432,0.1096165423,-0.6318146,-0.315105557
609,1778414960640,1.1881689777777775,0.08092952,0.3024227822222222,0.12354386,-0.68880665,-0.29641363
610,1778414960650,1.10458282,0.089224724,0.41663405,0.254570595,-1.36043315,-0.1296523319999999
611,1778414960660,1.0367984,0.13372731,0.5225,0.36360684,-1.8610989,-0.0062611843
612,1778414960670,1.15170746,0.1966181779999999,0.602666275,0.42518025,-2.04691857,-0.15084873643
613,1778414960680,1.1287854,0.21330512,0.705529,0.47355935,-1.8922521,-0.3849865
614,1778414960690,1.0907192,0.1946302499999999,0.7058948700000001,0.497076975,-1.77798545,-0.494633575
615,1778414960700,1.0298874,0.1557916111111111,0.6975881355555555,0.5208660688888889,-1.489423811111111,-0.7325586166666667
616,1778414960710,1.120949522222222,0.1209386244444444,0.7550711533333333,0.47600272,-1.1640458,-0.8993198999999998
617,1778414960720,1.1497927,0.094212815,0.8170599,0.438924296,-0.7355364590000001,-0.99467316
618,1778414960730,1.1148583888888888,0.1130757083333333,0.8211793666666667,0.41797224,-0.06513159,-1.0172133
619,1778414960740,1.1040522,0.124117002,0.79748558,0.413818476,0.0883132459999999,-1.002553008
620,1778414960750,1.0874007666666667,0.1563505833333333,0.7231011666666667,0.4004612855555555,0.6078185,-0.9439796211111112
621,1778414960760,1.01360182,0.149490434,0.60478533,0.3783893459999999,0.91289598,-0.90665003
622,1778414960770,0.9107712888888888,0.0712880324444444,0.5039386444444445,0.30191126,1.1706887,-0.8272399
623,1778414960780,0.8774292599999999,0.0412524056,0.4653930039999999,0.278454716,1.1868151,-0.7896117
624,1778414960790,0.79657088,-0.0009655033333333,0.36109829,0.1911442866666667,1.0951473,-0.6519267166666667
625,1778414960800,0.7381162339999999,-0.00780533324,0.254386794,0.0712553344,0.96568844,-0.482722046
626,1778414960810,0.7631271911111112,0.0383999369333333,0.2097039666666666,-0.10735641,0.8597675,-0.25548688
627,1778414960820,0.763629932,0.0551556567,0.081602324,-0.2075964389999999,0.757389529,-0.1549414076
628,1778414960830,0.7753026933333333,0.0627983788888889,-0.0141166764444444,-0.3400892,0.5890858,-0.088114716
629,1778414960840,0.787994142,0.081471214,-0.0611529578,-0.444421925,0.4766288399999999,-0.1090667757999999
630,1778414960850,0.7857165244444444,0.0968687966666666,-0.034944451,-0.5739758111111111,0.4009448777777777,-0.1479098744444444
631,1778414960860,0.7616975222222222,0.0668162305555555,0.0607521901111111,-0.6901725888888889,0.4620295977777777,-0.1745156611111111
632,1778414960870,0.7127793600000001,0.0365539625,0.098316715,-0.66756444,0.76793426,-0.0042453884999999
633,1778414960880,0.695132,0.05710699,0.04170975,-0.6534538,1.1083823,0.25395975
634,1778414960890,0.6810824600000001,0.063253693,-0.088303935,-0.632929368,1.35076654,0.51051563
635,1778414960900,0.7486005888888889,0.1017132488888889,-0.4022829644444444,-0.6489743311111111,1.5340749555555555,0.7000818888888889
636,1778414960910,0.946701597,0.192002057,-0.979627314,-0.806104567,1.218457,0.703115714
637,1778414960920,0.97668298,0.1814570622222222,-0.975558311111111,-0.8857115655555555,0.4708614222222222,0.5556503955555556
638,1778414960930,0.972325052,0.222763,-0.959251072,-0.824613248,-0.122306896,0.4181554820000001
639,1778414960940,0.97408122,0.2468843233333333,-0.88280558,-0.7116879633333333,-0.6372918566666667,0.3488446866666667
640,1778414960950,1.116421828,0.323768897,-0.7625078700000001,-0.5443565319999999,-1.07547294,0.358048124
641,1778414960960,1.2468308666666663,0.3863233566666666,-0.67968396,-0.43619584,-1.2851971666666668,0.3960835466666667
642,1778414960970,1.59733103,0.52904002,-0.436995018,-0.376312461,-1.18457034,0.39500438
643,1778414960980,1.7047337,0.5483857,-0.34166628,-0.2997733,-0.791429,0.22769332
644,1778414960990,1.63753151,0.451520248,-0.362329083,-0.27283495,-0.55997897,0.1072953204999999
645,1778414961000,1.4995894666666667,0.3463819933333333,-0.41066423,-0.3003841466666667,-0.3485647266666666,-0.0074828783333333
646,1778414961010,1.292375488888889,0.1951841422222222,-0.4653896466666667,-0.35760016,-0.1608309933333333,-0.0972774266666666
647,1778414961020,1.08727676,0.066625837,-0.490254204,-0.5427072620000001,-0.04191939264,-0.08304468953
648,1778414961030,0.92990184,0.005854,-0.4522215,-0.66628164,-0.0046577104,-0.0038177953
649,1778414961040,0.867239616,-0.017562,-0.407316444,-0.818749128,0.12972868192,0.13203463294
650,1778414961050,0.8029127133333334,-0.0536819933333333,-0.3947892866666667,-0.9098060833333332,0.2043877966666666,0.2494802066666667
651,1778414961060,0.75970286,-0.082736532,-0.390772792,-0.96901755,0.232473198,0.36757734
652,1778414961070,0.7085812888888889,-0.1157316894444444,-0.3570127144444444,-1.0211160333333331,0.1513798366666666,0.5685460755555556
653,1778414961080,0.69415635,-0.088114895,-0.2215983,-1.04598427,0.0455539372,0.781670696
654,1778414961090,0.72797947,-0.0577337216666666,-0.1619471177777777,-1.0262743,0.0596169975555555,0.9347150666666668
655,1778414961100,0.7642336,-0.0135190817999999,-0.156442048,-1.0075009,0.0713316899999999,1.01898482
656,1778414961110,0.8355772266666667,0.0521168585,-0.15671308,-0.9660040555555556,0.0670150333333333,1.1162046444444444
657,1778414961120,0.884106472,0.090304048,-0.165857236,-0.905122956,0.0256403131999999,1.15410434
658,1778414961130,0.9534973888888888,0.1415834655555555,-0.1785842733333333,-0.7658497477777778,-0.1896086912222222,1.0938747388888888
659,1778414961140,0.98871624,0.16815005,-0.15083197,-0.67483354,-0.41514707,0.97537035
660,1778414961150,0.987106356,0.1659548,-0.092840782,-0.6257213979999999,-0.500910008,0.88081122
661,1778414961160,0.9943805222222222,0.1597484733333333,0.0124329744444444,-0.5249723233333333,-0.5621576333333334,0.7440628666666667
662,1778414961170,1.0111718,0.1632717149999999,0.023416,-0.357192947,-0.5182580800000001,0.608617655
663,1778414961180,1.0636292,0.15400289,-0.02490999,-0.16111097,-0.4866162,0.4756973
664,1778414961190,1.080246,0.13982524,-0.0500334049999999,-0.0786465854,-0.533346,0.415773194
665,1778414961200,1.0830103333333334,0.11933624,-0.0074089676666666,-0.0108425393333333,-0.5711167333333332,0.3781653666666666
666,1778414961210,1.09512486,0.074086638,0.0983563450999999,0.1000873217999999,-0.57274568,0.33239253
667,1778414961220,1.1136625,0.06564408,0.16936964,0.12048962,-0.5690806,0.32481802
668,1778414961230,1.12200451,0.071132199,0.1709063,0.2854184,-0.09872819,0.1977618
669,1778414961240,1.1313871333333334,0.08954791,0.0821287733333333,0.35003246,0.0309750464444444,0.1397991866666666
670,1778414961250,1.1278098,0.08418174,-0.01393374,0.411252917,0.0859920242,0.078768756
671,1778414961260,1.0855308666666668,0.0655356688888889,-0.0620666288888888,0.4806180366666667,0.0252738048888888,0.0059557607999999
672,1778414961270,1.0606807699999998,0.0544483008,-0.0412767962,0.5084998,-0.0394760058,-0.04523323982
673,1778414961280,1.0224309444444444,0.025855167,-0.0107594355555555,0.51509696,-0.04680617,-0.103385895
674,1778414961290,0.9679833,-0.025123417,0.020489,0.4876088199999999,-0.008322794,-0.17913096
675,1778414961300,0.917199812,-0.0565642714,0.0208792672,0.479912152,0.0220363138,-0.211200438
676,1778414961310,0.8698135577777778,-0.0841817427777777,0.0092688335555555,0.4619532422222222,0.0388481893333333,-0.2385188911111111
677,1778414961320,0.8492050259999999,-0.077184381,0.00275625835,0.422187086,-0.0090558101,-0.244613792
678,1778414961330,0.85197388,-0.0554537783333333,-0.0099463806666666,0.4041942488888889,-0.0771449185555555,-0.2346501866666666
679,1778414961340,0.8945034,-0.0131715004999999,-0.012683666,0.398608385,-0.1923710735,-0.2228676249999999
680,1778414961350,0.9109948666666666,0.0010298703888888,-0.0137812908888888,0.4021580855555555,-0.2625709922222222,-0.2300348977777778
681,1778414961360,0.9615104,0.0408286013,-0.0154948065,0.4149179939999999,-0.350152906,-0.260007128
682,1778414961370,1.013511,0.0594648531111111,-0.0308452945555555,0.4407093355555556,-0.4041518044444444,-0.3174539355555555
683,1778414961380,1.0074978,0.059546154,-0.02783699,0.4521796699999999,-0.43835926,-0.35994175
684,1778414961390,0.9977411777777778,0.0530417113333333,-0.0271865473333333,0.4467499188888888,-0.4323865311111111,-0.3718872166666667
685,1778414961400,0.99627763,0.032715324,-0.030520074,0.4436278299999999,-0.4169796,-0.3849865
686,1778414961410,1.00798561,0.024076608,-0.0619243446666666,0.4217730522222223,-0.3846725777777778,-0.4101669622222222
687,1778414961420,1.0265538,0.009024917,-0.14449014,0.41552883,-0.375442,-0.41736138
688,1778414961430,1.0607997,0.00463441676,-0.287922294,0.329765895,-0.5271764649999999,-0.527863668
689,1778414961440,1.0711092444444443,0.0006775463066666,-0.3493902933333334,0.2798528866666666,-0.6756394666666667,-0.5933532655555555
690,1778414961450,1.0863439,0.013659334,-0.39389494,0.2029540099999999,-0.74744797,-0.6812474
691,1778414961460,1.0800833333333333,0.0153667506666666,-0.4371732177777778,0.14797775,-0.6281291233333333,-0.7317441066666667
692,1778414961470,1.0743157,0.0246355834,-0.5275246640000001,0.051586052,-0.35931562,-0.7882678280000001
693,1778414961480,1.1361333,0.09031015,-0.75239146,-0.20631365,0.39178216,-0.8968765
694,1778414961490,1.1195166,0.15814948,-0.9571595,-0.317365703,0.741431116,-0.967246087
695,1778414961500,1.1143671555555554,0.1904176244444444,-1.0812182222222222,-0.3605865311111111,0.8648239666666666,-1.0147700244444444
696,1778414961510,1.09766164,0.2421543719999999,-1.25631114,-0.37099807,0.885911786,-1.0578958200000002
697,1778414961520,1.0363409555555556,0.3535606066666666,-1.4049295,-0.3172842511111111,0.6329480444444444,-1.0531176333333334
698,1778414961530,0.97898702,0.462850164,-1.32800431,-0.226593801,0.2704678989999999,-1.01110493
699,1778414961540,0.9208769,0.4844185,-1.2771173,-0.1505908188888888,0.2166047344444444,-0.9954265111111112
700,1778414961550,0.8766975,0.4256041300000001,-1.235133,-0.0592216409999999,0.320496279,-0.97946304
701,1778414961560,0.8771853333333334,0.3712716766666666,-1.2593620666666667,0.0671422933333333,0.5123226566666667,-0.9402466266666668
702,1778414961570,0.85279363,0.2730952,-1.3649577,0.1836783783333333,0.7168207888888889,-0.8623975622222222
703,1778414961580,0.799641133,0.157103677,-1.49148636,0.1958681809999999,0.7475396,-0.6991452199999999
704,1778414961590,0.7515953466666666,0.0859501333333333,-1.5793672555555556,0.0474594384444444,0.4564641022222222,-0.5455714488888889
705,1778414961600,0.6742466439999999,0.000920784,-1.53236992,0.028862532,0.41988114,-0.5285356
706,1778414961610,0.6402439833333333,-0.0552132486666666,-1.2685665622222222,-0.2229422706666666,-0.1687720066666666,-0.30571209
707,1778414961620,0.583427317,-0.098456964,-0.8516136939999999,-0.24907297,-1.0510391,-0.037414394
708,1778414961630,0.50722474,-0.12787332,-0.525427,-0.00167983,-1.5543772,0.14950487
709,1778414961640,0.481512838,-0.169390986,-0.235077739,0.399646811,-1.9266352,0.411191831
710,1778414961650,0.5134987599999999,-0.1943473933333333,-0.0841783522222222,0.5721093444444444,-2.054058711111111,0.5173706666666666
711,1778414961660,0.5609016,-0.21354905,0.1220193169999999,0.98294481,-2.30701727,0.7852136249999999
712,1778414961670,0.79983324,-0.11762882,0.35483778,1.2725476,-2.35222,1.0162971
713,1778414961680,0.945170942,-0.0547470981,0.6357505139999999,1.40009245,-1.75840783,0.97396542
714,1778414961690,0.9560009,0.010488417,0.9354204000000002,1.3861651,-0.78715307,0.88557583
715,1778414961700,1.00110106,0.0434903422,0.99214324,1.3446886299999998,-0.1508945485,0.8577822599999999
716,1778414961710,1.1239171666666667,0.15025267,1.0720036333333334,1.2975922666666666,0.5306481116666667,0.8108488433333334
717,1778414961720,1.27252239,0.2473558939999999,0.925834475,1.22691729,1.166649483,0.68515684
718,1778414961730,1.4558166,0.27992487,0.82071865,1.1674818,1.2238325,0.5325061
719,1778414961740,1.576165888888889,0.2645581277777777,0.9296850444444444,1.1484777111111113,0.9528877888888888,0.2854523222222222
720,1778414961750,1.61603942,0.2507006109999999,1.2522652099999998,1.26869921,0.784259136,0.117679727
721,1778414961760,1.6166492,0.24964872,1.2846482,1.2823211,0.76928574,0.10246963
722,1778414961770,1.55809998,0.329964381,1.38873353,1.54877262,0.79561328,0.104668677
723,1778414961780,1.4885048555555551,0.5482128933333333,1.0976216888888888,1.948492477777778,0.4496090266666667,0.1662692255555555
724,1778414961790,1.4082223,0.63086,1.0589032,1.8492637000000005,-0.29053423,0.13240114
725,1778414961800,1.1654034,0.65330034,1.2551342,1.6238611,-1.0351571,0.18249062
726,1778414961810,1.0685502100000002,0.608203183,1.44713321,1.39804612,-1.29391196,0.2261051059999999
727,1778414961820,0.8860306777777778,0.577818238888889,1.7756388555555556,0.9301337355555556,-1.5044234888888888,0.2941399066666667
728,1778414961830,0.857208516,0.599952689,2.2022200199999995,0.286273572,-1.40875116,0.383948036
729,1778414961840,0.959656237777778,0.6580973388888889,2.249884066666666,-0.0050055544444444,-1.2894731222222222,0.37843685
730,1778414961850,1.22718441,0.741021885,1.94745511,-0.278882326,-0.87890234,0.228059822
731,1778414961860,1.2911729,0.7387321166666667,1.8229315666666668,-0.3810838533333333,-0.6837841433333334,0.1541201535555555
732,1778414961870,1.33166914,0.585967109,1.356737694,-0.786626165,0.204626204,-0.1614774752
733,1778414961880,1.2086071,0.37804034,0.95639724,-1.2228398,1.0839485,-0.40025768
734,1778414961890,1.19405746,0.323488387,0.861105104,-1.3241794,1.33213572,-0.444055438
735,1778414961900,1.1715013,0.21476863,0.6703745,-1.5123814,1.8267387,-0.5358658
736,1778414961910,1.1480853000000002,0.1308070922222222,0.5816700822222223,-1.4787169555555555,2.0270966555555554,-0.5668154
737,1778414961920,1.12755057,0.090240026,0.539485734,-1.3795832300000002,2.04401706,-0.547166438
738,1778414961930,1.0916015555555556,0.0515511137777777,0.4662907588888889,-1.0676082,1.8035265,-0.42957833
739,1778414961940,1.0642206399999998,0.1076709226,0.393388812,-0.72846588,1.24985458,-0.248278874
740,1778414961950,1.0928144555555557,0.1707179555555555,0.3777930466666666,-0.4664667288888889,0.6139439244444445,-0.1179104888888888
741,1778414961960,1.1313618,0.222695915,0.418774445,-0.32878854,0.201503245,-0.082311665
742,1778414961970,1.1400157666666666,0.2948851,0.4964720766666667,-0.0910671446666666,-0.5126790233333334,-0.0779339266666666
743,1778414961980,1.10834516,0.320097946,0.51513372,0.09361234,-1.1066262,-0.11071607
744,1778414961990,0.99627763,0.26260677,0.504938,0.1211004699999999,-1.5439928,-0.22983128
745,1778414962000,0.962495126,0.233117266,0.48013168,0.052929916,-1.5467415800000002,-0.298001843
746,1778414962010,0.9236412533333334,0.1813317166666666,0.4688891666666667,-0.0527873833333333,-1.416733,-0.4456639833333333
747,1778414962020,0.855805999,0.0873709481999999,0.44005311,-0.1540251319999999,-1.10143401,-0.6653653850000001
748,1778414962030,0.7952801644444444,-0.0058506128888888,0.3747610177777777,-0.2580320666666666,-0.4934033933333333,-0.9342739111111112
749,1778414962040,0.7361405,-0.06418057,0.27086946,-0.37246412,0.1376697,-1.1943591
750,1778414962050,0.6753849333333333,-0.0689233966666666,0.2211409544444444,-0.37246412,0.1376697,-1.1943591
751,1778414962060,0.646318202,-0.0621560649999999,0.193834486,-0.388223975,0.3416316,-1.27409757
752,1778414962070,0.6412874266666667,-0.0065959133333333,0.14667523,-0.37694365,0.9215563888888888,-1.4359576444444444
753,1778414962080,0.7422621333333334,0.0568630733333333,0.1264911188888889,-0.1110893644444444,1.1889463,-1.2949452666666668
754,1778414962090,0.8164622400000001,-0.051533498,-0.143654738,0.184567499,1.5332266799999998,-0.982578373
755,1778414962100,0.90377223,-0.09518848,-0.4671004,0.313381611111111,1.664049788888889,-0.5546662855555555
756,1778414962110,0.953128752,-0.0563874364,-0.72409102,0.315044481,1.3427645,-0.1256207388999999
757,1778414962120,0.9938385222222222,0.0482379117777777,-0.9609232911111112,0.2208721877777777,0.6151571444444445,0.4041602858888888
758,1778414962130,1.0458232,0.20818289,-0.7975465,0.0326497855999999,-0.239161982,0.96461949
759,1778414962140,1.046659977777778,0.2351254988888889,-0.6293219277777777,-0.0706376996666666,-0.5763428955555555,1.2228229
760,1778414962150,1.0140835,0.2730952,-0.57497257,-0.2081462,-0.70407784,1.4616811
761,1778414962160,1.1648105333333332,0.30079329,-0.5979515711111111,-0.365405431111111,-0.6370882366666666,1.5096665666666669
762,1778414962170,1.25677456,0.267125332,-0.55750205,-0.458715756,-0.5790985,1.50651736
763,1778414962180,1.2759314222222224,0.21121828,-0.58085035,-0.6495173,-0.1676860577777777,1.4100306
764,1778414962190,1.2742511,0.20769504,-0.5876868,-0.95081422,0.3652714019999999,1.33242582
765,1778414962200,1.3220893,0.08515741,-0.69308925,-1.2053204222222222,0.6911651888888889,1.3227472666666666
766,1778414962210,1.36498816,0.099225304,-0.72632898,-1.3434211,0.8032946799999999,1.29320942
767,1778414962220,1.4127484222222222,0.1095524622222222,-0.7760208888888889,-1.5656609222222224,0.8718487022222221,1.181098633333333
768,1778414962230,1.42027802,0.1140950712,-0.78647273,-1.7402274800000002,0.788603828,1.0254598
769,1778414962240,1.4992644,0.18376072,-0.7648617,-1.9295901,0.49806958,0.7444701
770,1778414962250,1.5995920666666668,0.2743317255555555,-0.7079139222222222,-1.9551099666666667,0.3623257444444444,0.5986812111111112
771,1778414962260,1.7211065,0.37828425,-0.59524816,-1.93698141,0.073347485,0.192141997
772,1778414962270,1.5903231666666668,0.36858519,-0.4378812455555556,-1.8425783111111111,0.0581916855555555,-0.0627306166666666
773,1778414962280,1.36034468,0.333415811,-0.307838079,-1.72336812,0.116290046,-0.232519006
774,1778414962290,1.0397253,0.25867364,-0.23403804,-1.4482425,0.268391,-0.2854184
775,1778414962300,0.8320302400000001,0.22940363,-0.19940189,-1.17720957,0.31237202,-0.157873478
776,1778414962310,0.80617508,0.2394855166666666,-0.1865352833333333,-0.9870019333333332,0.2724633333333333,-0.0317131546666666
777,1778414962320,0.7817102520000001,0.254087988,-0.1531735719999999,-0.834142484,0.198265752,0.0689951988
778,1778414962330,0.77920534,0.2716791266666666,-0.11644311,-0.5291803577777778,-0.0423944983333333,0.1959292577777777
779,1778414962340,0.7728743880000001,0.25570396,-0.058479022,-0.2352678199999999,-0.2502183109999999,0.202282076
780,1778414962350,0.75906867,0.21623214,-0.036861908,-0.0417921336222222,-0.3765279622222222,0.1720383444444444
781,1778414962360,0.778551528,0.1724368919999999,-0.0517896056,0.14529002328,-0.48062988,0.128613892
782,1778414962370,0.8115413,0.1002904066666666,-0.075746288,0.3764346244444444,-0.629215088888889,0.0609320128888888
783,1778414962380,0.83400603,0.0607169588999999,-0.0822365015,0.4579216439999999,-0.685141574,0.0280684318
784,1778414962390,0.8618186,0.021220751,-0.04686249,0.5246669088888889,-0.6499839144444445,-0.0444730747777777
785,1778414962400,0.8396069349999999,-0.0019513329999999,-0.036374074,0.5282301699999999,-0.569080585,-0.0823116685
786,1778414962410,0.7973737566666667,-0.054413739,-0.0309266006666666,0.5047125400000001,-0.43489779,-0.12741256
787,1778414962420,0.822727875,-0.081885868,-0.0020092628,0.445154932,-0.316434139,-0.153536454
788,1778414962430,0.8409196366666667,-0.0954053,0.0322783053333333,0.3833575622222222,-0.1273701411111111,-0.1858502733333333
789,1778414962440,0.86938,-0.07857166,0.0039026666999999,0.3593309,-0.03397838,-0.15469708
790,1778414962450,0.88614622,-0.073595758,-0.01542468111,0.337340396,-0.0196845539,-0.1321568139999999
791,1778414962460,1.0059495333333333,-0.0353171004444444,-0.0919870784444444,0.2007820999999999,0.0343007718888888,-0.0475273133333333
792,1778414962470,1.06439752,-0.01471732239,-0.1095795695,0.1267202644,0.040544987,-0.0622147923999999
793,1778414962480,1.1132017888888888,0.0135509255111111,-0.1304446033333333,0.0150845337666666,0.0216087214444444,-0.1098337342222222
794,1778414962490,1.0954145599999998,0.0525213614999999,-0.0116104324999999,-0.0860989206299999,-0.0466229188,-0.190248376
795,1778414962500,1.0738736,0.06393666,0.06418057,-0.06961962,-0.0361502814444444,-0.2382473977777777
796,1778414962510,1.04753069,0.066790479,0.092938351,0.0039399648,0.0520289159999999,-0.24424728
797,1778414962520,1.0304565,0.0714980766666666,0.0779212133333333,0.0581832019999999,0.1154755866666666,-0.2314602066666666
798,1778414962530,1.01004676,0.064326928,0.046844196,0.09917105,0.172365829,-0.209551157
799,1778414962540,0.9884723,0.049545575,0.0034148335,0.11865708,0.25617406,-0.17424418
800,1778414962550,0.932685503,0.0651318479,-0.0159308082499999,0.115236336,0.286472092,-0.14687822
801,1778414962560,0.90844732,0.0707934276666666,-0.0141336162222222,0.1143811499999999,0.2951325466666666,-0.1202181344444444
802,1778414962570,0.8906495400000001,0.0781813936,-0.0335324442,0.12794196,0.281096644,-0.0683232676
803,1778414962580,0.9252911355555556,0.1029362162222222,-0.0796015318888888,0.14797775,0.23907034,-0.007482879
804,1778414962590,0.9581961,0.1242145699999999,-0.11104306,0.17241164,0.17065546,0.029778805
805,1778414962600,0.936146052,0.139630098,-0.084504932,0.186522212,0.144999872,0.0562895724999999
806,1778414962610,0.9273813266666668,0.1606394555555555,-0.0630998906666666,0.1925696,0.13400462,0.06765133
807,1778414962620,0.934292316,0.178882394,-0.0861513708,0.21969122,0.138036209,0.079929361
808,1778414962630,0.9386286266666668,0.1948995855555555,-0.1253968833333333,0.2951919444444444,0.1321720722222222,0.0970398744444444
809,1778414962640,0.92219404,0.199322614,-0.174345542,0.32677274,0.048119492,0.0587329627999999
810,1778414962650,0.8920643,0.19571264,-0.16961356,0.40127574,-0.1075515353333333,0.0136931588888888
811,1778414962660,0.9184377,0.18839513,-0.19501138,0.49554983,-0.24899662,-0.019699825
812,1778414962670,0.9386286166666667,0.1801290744444444,-0.2396108688888889,0.5315898200000001,-0.3253525233333333,-0.0384324753333333
813,1778414962680,0.981609095,0.164979142,-0.324485403,0.62969189,-0.598279052,-0.1055849504
814,1778414962690,1.0375807444444445,0.1539486833333333,-0.4011006122222222,0.6807044388888889,-0.9173314,-0.2046508
815,1778414962700,1.16642479,0.125803068,-0.456148543,0.6726955,-1.0180533,-0.39109495
816,1778414962710,1.1944599,0.09372498,-0.51615816,0.60061556,-0.82074964,-0.5706841
817,1778414962720,1.20207014,0.086090388,-0.598748352,0.512164888,-0.5729900079999999,-0.691876156
818,1778414962730,1.2176319555555557,0.100141348,-0.7403142111111111,0.4016829755555555,-0.3219589444444444,-0.8057923822222223
819,1778414962740,1.21802226,0.1343371146,-0.95166226,0.16447063,-0.026037365,-0.9860602
820,1778414962750,1.2002868444444443,0.19294487,-1.4032288333333334,-0.1607716011111111,-0.0607877872222222,-1.210309
821,1778414962760,1.1732425666666666,0.2913720188888888,-1.5295235,-0.36513394,-0.29236677,-1.3916627
822,1778414962770,1.11372348,0.404194332,-1.58034834,-0.4725208959999999,-0.529497672,-1.50642566
823,1778414962780,0.9963385777777778,0.4487524844444445,-1.5145735222222223,-0.5987490666666667,-0.9569685533333332,-1.6907827555555557
824,1778414962790,0.88938723,0.418314039,-1.41729002,-0.59255236,-1.11218487,-1.74212109
825,1778414962800,0.6740840355555555,0.3053531733333333,-1.4877054222222224,-0.3888212444444444,-1.299925377777778,-1.5348131222222223
826,1778414962810,0.6097002,0.2108659599999999,-1.6185396,-0.22488342,-1.51161794,-1.2004141
827,1778414962820,0.6128440222222222,0.2086978222222222,-1.620490888888889,-0.121813125,-1.6826551555555556,-0.9894537666666666
828,1778414962830,0.61323701,0.206304739,-1.6052856800000002,-0.040651885,-1.81026876,-0.8275453159999999
829,1778414962840,0.5390998555555556,0.1583967711111111,-1.1989656444444443,0.182660295,-1.6504243555555556,-0.4294425844444444
830,1778414962850,0.522396306,0.0242056806,-0.99119809,0.237466875,-1.26117048,-0.276255665
831,1778414962860,0.57164925,-0.11323831,-0.8971255,0.2442880055555555,-0.4864804466666667,0.0022228071111111
832,1778414962870,0.4726617359999999,-0.172985704,-0.76445926,0.1852394359999999,-0.1836359534,0.2195079572
833,1778414962880,0.3956667133333333,-0.2010313844444444,-0.4093260666666667,0.1188606973333333,0.100204397,0.5626412333333334
834,1778414962890,0.44369969,-0.1930539459999999,0.0073266466,0.1716175386,0.304125586,0.94244572
835,1778414962900,0.4779242299999999,-0.27675393,0.37971726,0.5076310311111112,0.9893265155555556,1.450813222222222
836,1778414962910,0.6764181855555556,-0.2938823211111111,0.2569458822222222,0.6223345666666666,1.6264486444444444,1.7381234333333333
837,1778414962920,0.8283227180000001,-0.256191774,0.2019629999999999,0.6221173959999999,2.0294177600000003,1.80900882
838,1778414962930,1.1027676333333334,-0.084364676,0.1176288166666666,0.5420421277777777,2.5320636555555556,1.740770388888889
839,1778414962940,1.1736477099999998,0.1781384376,0.193246033,0.449736302,2.61204386,1.54524502
840,1778414962950,1.3481884,0.52932966,0.51640207,0.57041254,1.9278678666666664,1.341276288888889
841,1778414962960,1.4760343,0.6448546860000001,0.4942026069999999,0.8554610500000001,0.98725132,1.13572541
842,1778414962970,1.629089,0.6108588,0.23794071,0.9792051111111112,0.0075677155555555,0.7878402666666666
843,1778414962980,1.62896705,0.527271615,0.151548477,0.93377166,-0.688684448,0.439046468
844,1778414962990,1.5107962444444445,0.3447965422222222,0.1348046153333333,0.8196382222222223,-1.5946253111111113,-0.0488847577777777
845,1778414963000,1.31758296,0.2280194089999999,0.461764728,0.71093456,-2.4456644400000003,-0.4956719879999999
846,1778414963010,1.2530168444444445,0.1982229544444444,0.7033879033333333,0.6757497666666666,-2.8889511999999997,-0.6038734
847,1778414963020,1.267533288888889,0.1731368044444444,1.2053141977777777,0.6257960555555555,-3.6225108666666666,-0.6474472055555556
848,1778414963030,1.32240646,0.1024693974999999,1.7126610100000002,0.50801114,-3.9886798799999994,-0.672084716
849,1778414963040,1.2087222444444443,-0.0947988905555555,2.2842796888888888,0.2802601188888889,-3.779430755555555,-0.6165654933333333
850,1778414963050,1.12286427,-0.123141324,2.83202807,0.019088978,-2.6129296,-0.396714752
851,1778414963060,1.3487439666666663,0.3113935111111111,2.904403777777778,-0.3871923077777778,-0.5088272586666667,-0.1683393255555555
852,1778414963070,1.5146432600000002,0.560179018,2.91216376,-0.768903965,1.002362148,-0.053907273
853,1778414963080,1.6869379666666666,0.8520517266666666,2.4560070666666665,-1.2429723,1.9812830666666668,-0.168339332
854,1778414963090,1.43028765,0.727002794,2.25361331,-1.2894833,1.45369425,-0.472276572
855,1778414963100,1.2857287444444443,0.5350447777777778,2.231319155555555,-1.0134549733333331,1.320550011111111,-0.5776069666666667
856,1778414963110,1.28089481,0.420265375,2.01702617,-0.891195602,1.34881186,-0.60293677
857,1778414963120,1.2669337,0.17961414,1.1052779,-0.6580691111111111,1.2211854777777778,-0.6039412777777778
858,1778414963130,1.11424186,0.125732948,0.736866164,-0.569279096,0.79886602,-0.4707494399999999
859,1778414963140,1.0999456111111112,0.1031564277777777,0.4568931766666667,-0.5040677633333334,0.3357878288888889,-0.2980425733333333
860,1778414963150,1.178331,0.057594825,0.2887059,-0.3993414,-0.16103461,-0.066124216
861,1778414963160,1.20059448,0.052911624,0.30114564,-0.33336988,-0.07490514,0.0267245679999999
862,1778414963170,1.2628819666666666,0.0812445788888888,0.3182468888888888,-0.2441183133333333,0.1897953377777778,0.1146186968888888
863,1778414963180,1.31218018,0.160289834,0.301877368,-0.13313416,0.522014792,0.211078264
864,1778414963190,1.269281366666667,0.2495775633333333,0.27762799,-0.048104222,0.76419538,0.2633260866666667
865,1778414963200,1.22160786,0.3401997479999999,0.304459847,-0.0303285672999999,0.810884447,0.274239893
866,1778414963210,1.2520514222222223,0.3443222666666666,0.5108597611111111,0.0334099523333333,0.7965023888888889,0.22816842
867,1778414963220,1.25756731,0.300374224,0.637131694,0.2019766406,0.84081598,0.1361883968
868,1778414963230,1.2146203111111111,0.2547845088888889,0.6760523322222222,0.37704548,0.9073457,0.0608641426666666
869,1778414963240,1.1246387,0.20560651,0.617185425,0.6062964799999999,0.99140505,-0.0131637587
870,1778414963250,0.96505636,0.112994395,0.39291927,0.87855107,1.0350807,0.029167956
871,1778414963260,0.967032022,0.1072867435,0.308786289,1.0337063,1.0796726,0.1226275859999999
872,1778414963270,0.9750569,0.098603316,0.2804127,1.1949699,1.2165023,0.18554485
873,1778414963280,0.98676488,0.1129456194,0.200011674,1.24848018,1.289804,0.211200436
874,1778414963290,0.9798268666666669,0.1589591327777778,0.0466219633333333,1.253747022222222,1.3980596444444444,0.2202274122222222
875,1778414963300,0.9483649433333334,0.1627567833333333,0.0244729723333333,1.1697216,1.4204573777777778,0.2048204766666666
876,1778414963310,0.8266335650000001,0.0998167987,0.0193364934,1.1431701,1.33036424,0.219630129
877,1778414963320,0.7209872,0.022928167,-0.07226031,1.182753,1.2281084,0.28450212
878,1778414963330,0.686869358,-0.0303615302,-0.148398894,1.202178,1.08956828,0.367699506
879,1778414963340,0.6649913922222223,-0.0810785794444444,-0.2390654388888888,1.2260553111111112,0.7562713111111111,0.5547680933333333
880,1778414963350,0.81617564,-0.013659334,-0.46368557,1.16760399,0.532948946,0.700122594
881,1778414963360,1.0233422711111109,0.1203864295555555,-0.5344214544444444,0.9420792,0.33497337,0.7701257
882,1778414963370,1.1005825,0.146923198,-0.542677968,0.8302941239999999,0.315548418,0.721746578
883,1778414963380,1.1217118,0.1093458066666666,-0.5303154666666666,0.7096178288888889,0.2642508222222222,0.623658091111111
884,1778414963390,1.09183192,0.0491339639999999,-0.50774307,0.6078235540000001,0.134615461,0.477529846
885,1778414963400,0.9978021333333332,-0.0071786035555555,-0.4974578955555555,0.520323078888889,0.0647073894444444,0.39492973
886,1778414963410,0.966702754,-0.0113909088,-0.4827354890000001,0.362018621,-0.0033138445999999,0.370081817
887,1778414963420,0.92819434,0.017562,-0.43368387,0.0801737,-0.048027866,0.37429667
888,1778414963430,1.1619885,0.07954732,-0.57497257,-0.2537561311111111,0.1778498815555555,0.33520243
889,1778414963440,1.3505849,0.098499648,-0.601339954,-0.573432878,0.41945356,0.2063136529999999
890,1778414963450,1.3867577,0.05369216,-0.43417168,-0.9429954000000002,0.9061919,-0.06429167
891,1778414963460,1.26750077,0.0167845153999999,-0.428024995,-1.0419527,1.2482663,-0.19195876
892,1778414963470,1.176040788888889,-0.0161527048888888,-0.4605417777777777,-1.0794180333333334,1.243922566666667,-0.2055331333333333
893,1778414963480,1.12599555,-0.00975666735,-0.480653035,-1.06272155,1.083948465,-0.173938755
894,1778414963490,1.1020900333333334,0.0540377051777777,-0.5470779833333334,-0.9757776133333332,0.5320225155555556,-0.0651061388888888
895,1778414963500,1.2179613,0.173504032,-0.59641285,-0.936520456,-0.0404533559999999,-0.00784938776
896,1778414963510,1.2998624,0.23281845,-0.5168899,-0.95215815,-0.5098284,-0.041079476
897,1778414963520,1.28800814,0.175275465,-0.3519443169999999,-0.955090222,-0.5230227199999999,-0.0992321352
898,1778414963530,1.2468309333333334,0.1194276933333333,-0.2734305966666667,-0.9422488455555555,-0.4099209388888889,-0.1422765055555555
899,1778414963540,1.22980352,0.081361454,-0.2383645099999999,-0.911842266,-0.2464310499999999,-0.18365123
900,1778414963550,1.255791411111111,0.0941010244444444,-0.2631454222222222,-0.8971819000000001,-0.1957171566666666,-0.23933335
901,1778414963560,1.2554696,0.12665373,-0.2933403,-0.914082018888889,-0.1150853257777778,-0.4098954711111111
902,1778414963570,1.19833526,0.0971123699999999,-0.2783607389999999,-0.940246633,0.0178214682,-0.5472275499999999
903,1778414963580,1.1195166,0.06735149,-0.20989029,-0.9704836,0.2366269499999999,-0.6494833
904,1778414963590,1.05000331,0.065644078,-0.1741839409999999,-0.957655785,0.437168095,-0.68454595
905,1778414963600,0.8586477,0.068571076,-0.1293673,-0.8916843000000001,0.6428404,-0.6763606
906,1778414963610,0.75980043,0.1022620649999999,-0.1952553,-0.7652389,0.59458345,-0.5786251
907,1778414963620,0.7482279288888889,0.1383312488888889,-0.2157443,-0.6789058333333333,0.3665338055555555,-0.5455035533333333
908,1778414963630,0.76614225,0.18376072,-0.21671996,-0.636899898,0.194783912,-0.559322308
909,1778414963640,0.7771998166666667,0.1875007733333333,-0.1833643533333333,-0.6048575788888889,0.0824898266666666,-0.5914528555555556
910,1778414963650,0.7765056749999999,0.155195036,-0.0956000923,-0.5318953,-0.011987877,-0.65559185
911,1778414963660,0.7270851,0.09128582,-0.044423323,-0.3553604,-0.06696413,-0.6103891
912,1778414963670,0.7570716,0.1004845165,-0.0881392934,-0.2657491099999999,-0.0834570034999999,-0.5004366219999999
913,1778414963680,0.826908,0.15473464,-0.12348281,-0.21914145,-0.12682717,-0.3721587
914,1778414963690,0.8338901200000001,0.16444862,-0.12158026,-0.21914145,-0.12682717,-0.3721587
915,1778414963700,0.8769414000000001,0.21647604,-0.0845171226666666,-0.1727170633333333,-0.1628671466666666,-0.26688934
916,1778414963710,0.9148839555555556,0.2505972922222222,-0.0092722208444444,-0.0895739635555555,-0.1390441055555555,-0.2305100066666666
917,1778414963720,0.907485807,0.259115743,0.00400023336,0.0131026743999999,-0.0896876508,-0.202220988
918,1778414963730,0.8847500699999999,0.25466596,-0.0318175741444444,0.1374576035555555,-0.0922803562222222,-0.1566653522222222
919,1778414963740,0.8677213,0.2571125589999999,-0.0608114769,0.2051530549999999,-0.115221062,-0.114442233
920,1778414963750,0.8423899333333333,0.2542560355555555,-0.0657592544444444,0.2571157966666667,-0.1418947233333333,-0.0675495266666666
921,1778414963760,0.8257127799999999,0.2080609229999999,-0.036081373,0.40880954,-0.3094705,0.065818794
922,1778414963770,0.8296724088888889,0.1501036077777778,-0.0112506568888888,0.4582202866666666,-0.3974324999999999,0.1385774926666666
923,1778414963780,0.839762411,0.1347029769999999,0.0221964165999999,0.4863871299999999,-0.4426351999999999,0.19531842
924,1778414963790,0.85611025,0.1374131633333333,0.0290802873333333,0.49290285,-0.4236310577777777,0.2129651133333333
925,1778414963800,0.847082981,0.151902158,0.00875660856,0.476308156,-0.337752729,0.274300953
926,1778414963810,0.84764093,0.15668598,0.017074168,0.4417953,-0.32168743,0.35841462
927,1778414963820,0.8559371170000001,0.170540428,0.0356880588,0.4305557,-0.346121326,0.419988028
928,1778414963830,0.85815984,0.18010198,0.06661974,0.4071127333333333,-0.3402843422222222,0.5097690155555555
929,1778414963840,0.8581598400000001,0.18010198,0.06661974,0.4045336,-0.33879116,0.51906747
930,1778414963850,0.9423483755555556,0.19588203,0.0698651866666666,0.3912306911111111,-0.3060090244444444,0.5798806933333334
931,1778414963860,1.0002345333333331,0.2116519255555555,0.0254486388888888,0.3327251155555555,-0.2059658122222222,0.6789058388888889
932,1778414963870,1.11577244,0.240184754,0.0219037164,0.272712766,-0.083823512,0.631341192
933,1778414963880,1.1020460666666667,0.2591004733333333,-0.0053051876666666,0.2644459611111111,-0.0358109195555555,0.5756726322222223
934,1778414963890,1.08375838,0.265241076,-0.0447770038,0.2770497749999999,-0.0262817048,0.510026902
935,1778414963900,1.0875634,0.26626554,-0.0837244,0.2945811,-0.06818583,0.4732538999999999
936,1778414963910,1.09763724,0.246633295,-0.110457666,0.30826407,-0.171235756,0.448025921
937,1778414963920,1.1556670777777778,0.20477143,-0.0689572745555555,0.3293314977777777,-0.4142647455555555,0.2534167744444444
938,1778414963930,1.1951886699999998,0.189175676,-0.1254097523,0.333003383,-0.376969129,0.0613596063
939,1778414963940,1.2398250222222222,0.1841130533333333,-0.2381744733333333,0.31066673,-0.3666865333333333,-0.0642916743333333
940,1778414963950,1.3233577200000002,0.181955746,-0.395873722,0.24632415,-0.4072060599999999,-0.25365433
941,1778414963960,1.3894408,0.17229664,-0.5647281,0.116213694,-0.47317755,-0.48577628
942,1778414963970,1.4414957200000005,0.185248612,-0.687524865,-0.0184781288999999,-0.4368932219999999,-0.6419088380000001
943,1778414963980,1.467456888888889,0.1992765333333333,-0.7494238166666667,-0.1214058927777777,-0.3321397055555555,-0.7347304555555556
944,1778414963990,1.50672816,0.233013606,-0.90433933,-0.3804051249999999,0.082082605,-0.93444355
945,1778414964000,1.5396934666666666,0.2940009033333333,-1.1929049833333334,-0.721665138888889,0.6809844122222222,-1.1440660777777778
946,1778414964010,1.6269716555555556,0.3948400933333333,-1.5386500777777778,-0.993288511111111,0.9446668122222224,-1.2743800777777778
947,1778414964020,1.74951679,0.557255053,-1.79640968,-1.50124874,1.243990454,-1.6057647199999998
948,1778414964030,1.5950558888888888,0.5935373333333334,-1.8395924444444445,-1.877871711111111,1.4252763666666666,-1.8766161111111113
949,1778414964040,1.46801255,0.6070628699999999,-1.79521145,-1.9659966,1.4482578,-1.92745218
950,1778414964050,1.2104567777777775,0.6077691933333332,-1.6826692555555556,-2.0364884666666665,1.4284663666666666,-1.9465920333333335
951,1778414964060,1.0714527400000002,0.5656610200000001,-1.5508343400000002,-1.86319099,1.35479812,-1.83429797
952,1778414964070,0.8887137666666667,0.47951984,-1.4791479333333333,-1.573737588888889,1.345730366666667,-1.666077388888889
953,1778414964080,0.7044435480000001,0.419658628,-1.44612092,-1.35557693,1.1858988,-1.5344330000000002
954,1778414964090,0.5507841666666667,0.3528356166666666,-1.3815474222222222,-1.1235007888888888,0.81140025,-1.3577607333333337
955,1778414964100,0.2218940429999999,0.174683966,-1.1006343099999998,-0.77892186,0.103584414,-1.05728498
956,1778414964110,0.0635301313333333,0.0507549933333333,-0.8732826333333333,-0.4048390133333333,-0.5442394700000001,-0.7203416333333332
957,1778414964120,0.029117551,-0.100066825,-0.62695732,0.143213144,-1.25225216,-0.2405821972
958,1778414964130,0.0977394455555555,-0.2561802444444445,-0.2684167422222222,0.7491872066666666,-1.9447680444444444,0.3063568728888889
959,1778414964140,0.163607105,-0.26687531,-0.1430266349999999,0.97231613,-2.1252904,0.54411219
960,1778414964150,0.3203405066666666,-0.2697345688888888,0.1419561222222222,1.1638167333333334,-2.2012729777777778,0.7723654444444444
961,1778414964160,0.3875768022222222,-0.2639347766666666,0.3866282377777778,1.3474781333333334,-2.0052587666666666,1.0167043666666666
962,1778414964170,0.617218964,-0.207481614,0.702845856,1.45103712,-1.47608176,1.08959884
963,1778414964180,0.6935025222222222,-0.2399699666666666,0.9973108844444446,1.6971627,-0.84518355,1.1372449
964,1778414964190,0.7430768999999999,-0.2151192599999999,0.9959575,1.84449912,-0.72167022,1.14127648
965,1778414964200,0.7898022,-0.18449247,0.9656966,1.9427234,-0.639328,1.1439642
966,1778414964210,1.002418256,-0.0376363444,0.9918445,1.96459166,-0.48515016,1.07506068
967,1778414964220,1.5753968,0.2172078,1.2748915,1.6953303,-0.6106182,0.7353074
968,1778414964230,1.49787701,0.1427339339999999,1.46379268,1.53308154,-0.494618298,0.64789517
969,1778414964240,1.5660568111111113,0.1358683622222222,1.5964955666666667,1.4390373666666667,-0.3630893088888889,0.6430694555555555
970,1778414964250,1.63802244,0.18351071,1.8001659799999998,1.2638735,0.057893046,0.68973822
971,1778414964260,1.5116905111111112,0.2663604033333333,1.8216984111111112,1.194427033333333,0.2770107644444444,0.8182468333333334
972,1778414964270,1.49136134,0.405792015,1.7174111799999998,1.10688575,-0.022983127,0.98532722
973,1778414964280,1.4482552,0.5395742,1.6431446,0.9164914666666668,-0.4444677277777777,1.0120211222222222
974,1778414964290,1.2189465777777777,0.5513092755555555,1.6535787333333334,0.6418816722222223,-0.8869247844444446,0.9725197244444446
975,1778414964300,0.99606429,0.543364016,1.58227522,0.3221913859999999,-1.2637361,0.980684722
976,1778414964310,0.80080897,0.49981573,1.5931418,-0.1531699466666666,-1.7841915555555556,0.9972251022222224
977,1778414964320,0.8088093940000001,0.468570026,1.73722332,-0.630730355,-2.2657623100000004,0.922470987
978,1778414964330,0.9400853222222224,0.4154171777777777,1.8044649444444445,-1.103096811111111,-2.2883526666666665,0.78342858
979,1778414964340,1.1003507200000002,0.415993788,1.71524032,-1.44250058,-1.7793064,0.5883375120000001
980,1778414964350,1.1766438,0.42545166,1.6664184,-1.6063162333333334,-1.3287709111111112,0.4409468722222222
981,1778414964360,1.2977343,0.423518608,1.52000942,-1.77419056,-0.484661478,0.1785812002
982,1778414964370,1.2902785666666663,0.3375095133333333,1.2657750333333333,-1.9071924,0.70417969,-0.1538825976666666
983,1778414964380,1.18380688,0.22701933,1.0345481800000005,-1.95469599,1.7486724500000002,-0.394027034
984,1778414964390,1.0944642333333332,0.1736889933333333,0.9381137,-1.8832336,2.1172984,-0.4396912566666666
985,1778414964400,1.0084308,0.145051148,0.799290544,-1.63699431,2.5894425400000003,-0.4669621929999999
986,1778414964410,0.9827809133333332,0.1597417122222222,0.6869743833333334,-1.3667961222222222,2.7254986,-0.4614102655555556
987,1778414964420,0.919206771111111,0.2118077488888888,0.4898354822222222,-0.9733511444444444,2.3546465333333333,-0.4300534455555555
988,1778414964430,0.867135964,0.213158776,0.425652888,-0.7532662999999999,1.97938947,-0.379305607
989,1778414964440,0.8667511177777778,0.1976538099999999,0.4259564222222222,-0.6263729666666666,1.7487538777777776,-0.3207117777777777
990,1778414964450,0.917843202,0.190078166,0.394410195,-0.280714864,1.23116262,-0.133195244
991,1778414964460,0.9789257166666666,0.2286380077777778,0.2948410466666666,0.0168492022222222,0.8176954233333333,0.0107746678888888
992,1778414964470,0.990082119,0.263286723,0.176446266,0.31596074,0.18592663,0.15011571
993,1778414964480,0.9558687733333334,0.2601676133333333,0.09218356,0.5373589333333334,-0.6084463044444445,0.28837082
994,1778414964490,0.9353899,0.240273155,0.1194429374999999,0.675444365,-1.09563095,0.37612921
995,1778414964500,0.90630284,0.18629135,0.2590801533333333,0.82764715,-1.4295607666666663,0.4504489466666667
996,1778414964510,0.8607484080000001,0.139663639,0.353365139,1.020267612,-1.14828599,0.49127392
997,1778414964520,0.8782660222222223,0.07182669,0.3374112933333333,1.2437019444444446,-0.0552222955555555,0.5037284277777778
998,1778414964530,0.8891372500000001,0.026907058,0.178062215,1.34163437,0.569355457,0.487547746
999,1778414964540,0.9240479,-0.06466841,-0.2347697899999999,1.4849187777777777,1.383993242222222,0.5005384122222223
1000,1778414964550,0.9301458,-0.069714435,-0.2738574383333333,1.51810815,1.5737461499999998,0.5151987416666667
